YLeftPos,time_presentation,XLeftPos,XRightPos,rightimg,YRightPos,leftimg,trials.thisRepN,trials.thisTrialN,trials.thisN,trials.thisIndex,key_resp_4.keys,key_resp_4.rt,key_resp_2.keys,key_resp_2.rt,key_resp_5.keys,key_resp_5.rt,date,frameRate,expName,participant,
,,,,,,,,,,,space,28.3585009575,,,,,2018_Jul_09_1145,60.0034906511,ExpLonely,12,
0,0.5,-300,300,frogs/ab70.jpg,0,frogs/ab30.jpg,0,0,0,31,,,None,,,,2018_Jul_09_1145,60.0034906511,ExpLonely,12,
0,0.5,-300,300,frogs/ab75.jpg,0,frogs/ab35.jpg,0,1,1,36,,,right,0.801580905914,,,2018_Jul_09_1145,60.0034906511,ExpLonely,12,
0,0.5,-300,300,2.jpg,0,4.jpg,0,2,2,43,,,left,1.16784596443,,,2018_Jul_09_1145,60.0034906511,ExpLonely,12,
0,0.5,-300,300,frogs/ab68.jpg,0,frogs/ab28.jpg,0,3,3,29,,,left,1.18445014954,,,2018_Jul_09_1145,60.0034906511,ExpLonely,12,
0,0.5,-300,300,1.jpg,0,3.jpg,0,4,4,42,,,left,0.968780994415,,,2018_Jul_09_1145,60.0034906511,ExpLonely,12,
0,0.5,-300,300,frogs/ab64.jpg,0,frogs/ab24.jpg,0,5,5,25,,,right,1.05253386497,,,2018_Jul_09_1145,60.0034906511,ExpLonely,12,
0,0.5,-300,300,frogs/ab43.jpg,0,frogs/ab3.jpg,0,6,6,2,,,left,0.618520021439,,,2018_Jul_09_1145,60.0034906511,ExpLonely,12,
0,0.5,-300,300,frogs/ab60.jpg,0,frogs/ab20.jpg,0,7,7,19,,,right,0.701771020889,,,2018_Jul_09_1145,60.0034906511,ExpLonely,12,
0,0.5,-300,300,frogs/ab48.jpg,0,frogs/ab8.jpg,0,8,8,7,,,left,0.702227115631,,,2018_Jul_09_1145,60.0034906511,ExpLonely,12,
0,0.5,-300,300,3.jpg,0,1.jpg,0,9,9,20,,,right,0.568591117859,,,2018_Jul_09_1145,60.0034906511,ExpLonely,12,
0,0.5,-300,300,frogs/ab72.jpg,0,frogs/ab32.jpg,0,10,10,33,,,right,0.702993869781,,,2018_Jul_09_1145,60.0034906511,ExpLonely,12,
0,0.5,-300,300,frogs/ab49.jpg,0,frogs/ab9.jpg,0,11,11,8,,,right,0.519143819809,,,2018_Jul_09_1145,60.0034906511,ExpLonely,12,
0,0.5,-300,300,frogs/ab56.jpg,0,frogs/ab16.jpg,0,12,12,15,,,left,0.419800043106,,,2018_Jul_09_1145,60.0034906511,ExpLonely,12,
0,0.5,-300,300,frogs/ab73.jpg,0,frogs/ab33.jpg,0,13,13,34,,,right,0.568722963333,,,2018_Jul_09_1145,60.0034906511,ExpLonely,12,
0,0.5,-300,300,frogs/ab59.jpg,0,frogs/ab19.jpg,0,14,14,18,,,right,0.634191036224,,,2018_Jul_09_1145,60.0034906511,ExpLonely,12,
0,0.5,-300,300,frogs/ab71.jpg,0,frogs/ab31.jpg,0,15,15,32,,,right,0.468846082687,,,2018_Jul_09_1145,60.0034906511,ExpLonely,12,
0,0.5,-300,300,frogs/ab55.jpg,0,frogs/ab15.jpg,0,16,16,14,,,left,0.519968032837,,,2018_Jul_09_1145,60.0034906511,ExpLonely,12,
0,0.5,-300,300,frogs/ab76.jpg,0,frogs/ab36.jpg,0,17,17,37,,,right,0.552263021469,,,2018_Jul_09_1145,60.0034906511,ExpLonely,12,
0,0.5,-300,300,frogs/ab50.jpg,0,frogs/ab10.jpg,0,18,18,9,,,left,0.335088014603,,,2018_Jul_09_1145,60.0034906511,ExpLonely,12,
0,0.5,-300,300,frogs/ab65.jpg,0,frogs/ab25.jpg,0,19,19,26,,,right,0.718554973602,,,2018_Jul_09_1145,60.0034906511,ExpLonely,12,
0,0.5,-300,300,frogs/ab77.jpg,0,frogs/ab37.jpg,0,20,20,38,,,None,,,,2018_Jul_09_1145,60.0034906511,ExpLonely,12,
0,0.5,-300,300,frogs/ab45.jpg,0,frogs/ab5.jpg,0,21,21,4,,,right,0.817222118378,,,2018_Jul_09_1145,60.0034906511,ExpLonely,12,
0,0.5,-300,300,frogs/ab66.jpg,0,frogs/ab26.jpg,0,22,22,27,,,left,0.368775129318,,,2018_Jul_09_1145,60.0034906511,ExpLonely,12,
0,0.5,-300,300,frogs/ab44.jpg,0,frogs/ab4.jpg,0,23,23,3,,,right,0.319337129593,,,2018_Jul_09_1145,60.0034906511,ExpLonely,12,
0,0.5,-300,300,frogs/ab69.jpg,0,frogs/ab29.jpg,0,24,24,30,,,left,0.384883165359,,,2018_Jul_09_1145,60.0034906511,ExpLonely,12,
0,0.5,-300,300,frogs/ab67.jpg,0,frogs/ab27.jpg,0,25,25,28,,,right,0.268310785294,,,2018_Jul_09_1145,60.0034906511,ExpLonely,12,
0,0.5,-300,300,frogs/ab51.jpg,0,frogs/ab11.jpg,0,26,26,10,,,right,0.386008024216,,,2018_Jul_09_1145,60.0034906511,ExpLonely,12,
0,0.5,-300,300,frogs/ab52.jpg,0,frogs/ab12.jpg,0,27,27,11,,,left,0.201873064041,,,2018_Jul_09_1145,60.0034906511,ExpLonely,12,
0,0.5,-300,300,frogs/ab58.jpg,0,frogs/ab18.jpg,0,28,28,17,,,right,0.185160160065,,,2018_Jul_09_1145,60.0034906511,ExpLonely,12,
0,0.5,-300,300,frogs/ab79.jpg,0,frogs/ab39.jpg,0,29,29,40,,,left,0.567537069321,,,2018_Jul_09_1145,60.0034906511,ExpLonely,12,
0,0.5,-300,300,frogs/ab61.jpg,0,frogs/ab21.jpg,0,30,30,22,,,right,0.618938922882,,,2018_Jul_09_1145,60.0034906511,ExpLonely,12,
0,0.5,-300,300,frogs/ab47.jpg,0,frogs/ab7.jpg,0,31,31,6,,,left,0.401464939117,,,2018_Jul_09_1145,60.0034906511,ExpLonely,12,
0,0.5,-300,300,frogs/ab57.jpg,0,frogs/ab17.jpg,0,32,32,16,,,left,0.335155010223,,,2018_Jul_09_1145,60.0034906511,ExpLonely,12,
0,0.5,-300,300,frogs/ab53.jpg,0,frogs/ab13.jpg,0,33,33,12,,,right,0.551942110062,,,2018_Jul_09_1145,60.0034906511,ExpLonely,12,
0,0.5,-300,300,frogs/ab42.jpg,0,frogs/ab2.jpg,0,34,34,1,,,left,0.384582996368,,,2018_Jul_09_1145,60.0034906511,ExpLonely,12,
0,0.5,-300,300,frogs/ab74.jpg,0,frogs/ab34.jpg,0,35,35,35,,,left,0.46880197525,,,2018_Jul_09_1145,60.0034906511,ExpLonely,12,
0,0.5,-300,300,frogs/ab63.jpg,0,frogs/ab23.jpg,0,36,36,24,,,left,0.485294103622,,,2018_Jul_09_1145,60.0034906511,ExpLonely,12,
0,0.5,-300,300,4.jpg,0,2.jpg,0,37,37,21,,,right,0.669129133224,,,2018_Jul_09_1145,60.0034906511,ExpLonely,12,
0,0.5,-300,300,frogs/ab80.jpg,0,frogs/ab40.jpg,0,38,38,41,,,left,0.352486848831,,,2018_Jul_09_1145,60.0034906511,ExpLonely,12,
0,0.5,-300,300,frogs/ab78.jpg,0,frogs/ab38.jpg,0,39,39,39,,,right,0.418698072433,,,2018_Jul_09_1145,60.0034906511,ExpLonely,12,
0,0.5,-300,300,frogs/ab62.jpg,0,frogs/ab22.jpg,0,40,40,23,,,left,0.402152061462,,,2018_Jul_09_1145,60.0034906511,ExpLonely,12,
0,0.5,-300,300,frogs/ab41.jpg,0,frogs/ab1.jpg,0,41,41,0,,,right,0.402197122574,,,2018_Jul_09_1145,60.0034906511,ExpLonely,12,
0,0.5,-300,300,frogs/ab54.jpg,0,frogs/ab14.jpg,0,42,42,13,,,left,0.517585039139,,,2018_Jul_09_1145,60.0034906511,ExpLonely,12,
0,0.5,-300,300,frogs/ab46.jpg,0,frogs/ab6.jpg,0,43,43,5,,,left,0.452223062515,,,2018_Jul_09_1145,60.0034906511,ExpLonely,12,
,,,,,,,,,,,,,,,escape,4.25184512138,2018_Jul_09_1145,60.0034906511,ExpLonely,12,
