YLeftPos,time_presentation,XLeftPos,XRightPos,rightimg,YRightPos,leftimg,trials.thisRepN,trials.thisTrialN,trials.thisN,trials.thisIndex,key_resp_4.keys,key_resp_4.rt,key_resp_2.keys,key_resp_2.rt,key_resp_5.keys,key_resp_5.rt,date,frameRate,expName,participant,
,,,,,,,,,,,space,21.1052091122,,,,,2018_Jul_09_1215,60.0460118967,ExpLonely,18,
0,0.5,-300,300,frogs/ab57.jpg,0,frogs/ab17.jpg,0,0,0,16,,,None,,,,2018_Jul_09_1215,60.0460118967,ExpLonely,18,
0,0.5,-300,300,2.jpg,0,4.jpg,0,1,1,43,,,left,0.83364200592,,,2018_Jul_09_1215,60.0460118967,ExpLonely,18,
0,0.5,-300,300,frogs/ab65.jpg,0,frogs/ab25.jpg,0,2,2,26,,,right,0.868402957916,,,2018_Jul_09_1215,60.0460118967,ExpLonely,18,
0,0.5,-300,300,frogs/ab67.jpg,0,frogs/ab27.jpg,0,3,3,28,,,right,0.83503484726,,,2018_Jul_09_1215,60.0460118967,ExpLonely,18,
0,0.5,-300,300,frogs/ab60.jpg,0,frogs/ab20.jpg,0,4,4,19,,,right,0.769330978394,,,2018_Jul_09_1215,60.0460118967,ExpLonely,18,
0,0.5,-300,300,frogs/ab47.jpg,0,frogs/ab7.jpg,0,5,5,6,,,right,0.518770933151,,,2018_Jul_09_1215,60.0460118967,ExpLonely,18,
0,0.5,-300,300,frogs/ab79.jpg,0,frogs/ab39.jpg,0,6,6,40,,,left,1.63442611694,,,2018_Jul_09_1215,60.0460118967,ExpLonely,18,
0,0.5,-300,300,frogs/ab46.jpg,0,frogs/ab6.jpg,0,7,7,5,,,right,1.35144114494,,,2018_Jul_09_1215,60.0460118967,ExpLonely,18,
0,0.5,-300,300,frogs/ab58.jpg,0,frogs/ab18.jpg,0,8,8,17,,,left,1.66915488243,,,2018_Jul_09_1215,60.0460118967,ExpLonely,18,
0,0.5,-300,300,frogs/ab50.jpg,0,frogs/ab10.jpg,0,9,9,9,,,right,1.63537192345,,,2018_Jul_09_1215,60.0460118967,ExpLonely,18,
0,0.5,-300,300,frogs/ab51.jpg,0,frogs/ab11.jpg,0,10,10,10,,,None,,,,2018_Jul_09_1215,60.0460118967,ExpLonely,18,
0,0.5,-300,300,frogs/ab80.jpg,0,frogs/ab40.jpg,0,11,11,41,,,left,1.66879105568,,,2018_Jul_09_1215,60.0460118967,ExpLonely,18,
0,0.5,-300,300,frogs/ab78.jpg,0,frogs/ab38.jpg,0,12,12,39,,,right,0.683979034424,,,2018_Jul_09_1215,60.0460118967,ExpLonely,18,
0,0.5,-300,300,frogs/ab71.jpg,0,frogs/ab31.jpg,0,13,13,32,,,right,0.752873897552,,,2018_Jul_09_1215,60.0460118967,ExpLonely,18,
0,0.5,-300,300,frogs/ab68.jpg,0,frogs/ab28.jpg,0,14,14,29,,,left,0.701444149017,,,2018_Jul_09_1215,60.0460118967,ExpLonely,18,
0,0.5,-300,300,frogs/ab75.jpg,0,frogs/ab35.jpg,0,15,15,36,,,right,0.568393945694,,,2018_Jul_09_1215,60.0460118967,ExpLonely,18,
0,0.5,-300,300,1.jpg,0,3.jpg,0,16,16,42,,,left,0.535270929337,,,2018_Jul_09_1215,60.0460118967,ExpLonely,18,
0,0.5,-300,300,frogs/ab45.jpg,0,frogs/ab5.jpg,0,17,17,4,,,left,0.785878896713,,,2018_Jul_09_1215,60.0460118967,ExpLonely,18,
0,0.5,-300,300,frogs/ab72.jpg,0,frogs/ab32.jpg,0,18,18,33,,,right,0.586254119873,,,2018_Jul_09_1215,60.0460118967,ExpLonely,18,
0,0.5,-300,300,frogs/ab77.jpg,0,frogs/ab37.jpg,0,19,19,38,,,right,0.568086147308,,,2018_Jul_09_1215,60.0460118967,ExpLonely,18,
0,0.5,-300,300,frogs/ab53.jpg,0,frogs/ab13.jpg,0,20,20,12,,,right,0.584920883179,,,2018_Jul_09_1215,60.0460118967,ExpLonely,18,
0,0.5,-300,300,frogs/ab69.jpg,0,frogs/ab29.jpg,0,21,21,30,,,right,0.634818077087,,,2018_Jul_09_1215,60.0460118967,ExpLonely,18,
0,0.5,-300,300,frogs/ab61.jpg,0,frogs/ab21.jpg,0,22,22,22,,,right,0.585503101349,,,2018_Jul_09_1215,60.0460118967,ExpLonely,18,
0,0.5,-300,300,3.jpg,0,1.jpg,0,23,23,20,,,left,1.06858897209,,,2018_Jul_09_1215,60.0460118967,ExpLonely,18,
0,0.5,-300,300,frogs/ab48.jpg,0,frogs/ab8.jpg,0,24,24,7,,,right,0.468529939651,,,2018_Jul_09_1215,60.0460118967,ExpLonely,18,
0,0.5,-300,300,frogs/ab74.jpg,0,frogs/ab34.jpg,0,25,25,35,,,right,0.63490486145,,,2018_Jul_09_1215,60.0460118967,ExpLonely,18,
0,0.5,-300,300,frogs/ab52.jpg,0,frogs/ab12.jpg,0,26,26,11,,,left,0.668414831161,,,2018_Jul_09_1215,60.0460118967,ExpLonely,18,
0,0.5,-300,300,frogs/ab44.jpg,0,frogs/ab4.jpg,0,27,27,3,,,right,0.452870130539,,,2018_Jul_09_1215,60.0460118967,ExpLonely,18,
0,0.5,-300,300,frogs/ab62.jpg,0,frogs/ab22.jpg,0,28,28,23,,,left,0.335397958755,,,2018_Jul_09_1215,60.0460118967,ExpLonely,18,
0,0.5,-300,300,4.jpg,0,2.jpg,0,29,29,21,,,right,0.352215051651,,,2018_Jul_09_1215,60.0460118967,ExpLonely,18,
0,0.5,-300,300,frogs/ab42.jpg,0,frogs/ab2.jpg,0,30,30,1,,,left,0.668491125107,,,2018_Jul_09_1215,60.0460118967,ExpLonely,18,
0,0.5,-300,300,frogs/ab73.jpg,0,frogs/ab33.jpg,0,31,31,34,,,None,,,,2018_Jul_09_1215,60.0460118967,ExpLonely,18,
0,0.5,-300,300,frogs/ab54.jpg,0,frogs/ab14.jpg,0,32,32,13,,,left,0.319019079208,,,2018_Jul_09_1215,60.0460118967,ExpLonely,18,
0,0.5,-300,300,frogs/ab70.jpg,0,frogs/ab30.jpg,0,33,33,31,,,left,0.552088022232,,,2018_Jul_09_1215,60.0460118967,ExpLonely,18,
0,0.5,-300,300,frogs/ab64.jpg,0,frogs/ab24.jpg,0,34,34,25,,,left,0.619328975677,,,2018_Jul_09_1215,60.0460118967,ExpLonely,18,
0,0.5,-300,300,frogs/ab43.jpg,0,frogs/ab3.jpg,0,35,35,2,,,None,,,,2018_Jul_09_1215,60.0460118967,ExpLonely,18,
0,0.5,-300,300,frogs/ab56.jpg,0,frogs/ab16.jpg,0,36,36,15,,,left,1.56732797623,,,2018_Jul_09_1215,60.0460118967,ExpLonely,18,
0,0.5,-300,300,frogs/ab59.jpg,0,frogs/ab19.jpg,0,37,37,18,,,right,0.935349941254,,,2018_Jul_09_1215,60.0460118967,ExpLonely,18,
0,0.5,-300,300,frogs/ab76.jpg,0,frogs/ab36.jpg,0,38,38,37,,,left,0.769575119019,,,2018_Jul_09_1215,60.0460118967,ExpLonely,18,
0,0.5,-300,300,frogs/ab66.jpg,0,frogs/ab26.jpg,0,39,39,27,,,left,0.584322929382,,,2018_Jul_09_1215,60.0460118967,ExpLonely,18,
0,0.5,-300,300,frogs/ab41.jpg,0,frogs/ab1.jpg,0,40,40,0,,,right,0.552441835403,,,2018_Jul_09_1215,60.0460118967,ExpLonely,18,
0,0.5,-300,300,frogs/ab55.jpg,0,frogs/ab15.jpg,0,41,41,14,,,left,0.466989994049,,,2018_Jul_09_1215,60.0460118967,ExpLonely,18,
0,0.5,-300,300,frogs/ab63.jpg,0,frogs/ab23.jpg,0,42,42,24,,,left,0.552207946777,,,2018_Jul_09_1215,60.0460118967,ExpLonely,18,
0,0.5,-300,300,frogs/ab49.jpg,0,frogs/ab9.jpg,0,43,43,8,,,left,0.752252101898,,,2018_Jul_09_1215,60.0460118967,ExpLonely,18,
,,,,,,,,,,,,,,,escape,4.63429188728,2018_Jul_09_1215,60.0460118967,ExpLonely,18,
