YLeftPos,time_presentation,XLeftPos,XRightPos,rightimg,YRightPos,leftimg,trials.thisRepN,trials.thisTrialN,trials.thisN,trials.thisIndex,key_resp_4.keys,key_resp_4.rt,key_resp_2.keys,key_resp_2.rt,key_resp_5.keys,key_resp_5.rt,date,frameRate,expName,participant,
,,,,,,,,,,,space,13.0243709087,,,,,2018_Jul_09_1308,59.94123498,ExpLonely,29,
0,0.5,-300,300,frogs/ab71.jpg,0,frogs/ab31.jpg,0,0,0,32,,,right,0.869521141052,,,2018_Jul_09_1308,59.94123498,ExpLonely,29,
0,0.5,-300,300,frogs/ab64.jpg,0,frogs/ab24.jpg,0,1,1,25,,,left,0.651965856552,,,2018_Jul_09_1308,59.94123498,ExpLonely,29,
0,0.5,-300,300,frogs/ab75.jpg,0,frogs/ab35.jpg,0,2,2,36,,,right,0.686211109161,,,2018_Jul_09_1308,59.94123498,ExpLonely,29,
0,0.5,-300,300,frogs/ab52.jpg,0,frogs/ab12.jpg,0,3,3,11,,,left,0.467581987381,,,2018_Jul_09_1308,59.94123498,ExpLonely,29,
0,0.5,-300,300,frogs/ab62.jpg,0,frogs/ab22.jpg,0,4,4,23,,,right,0.55193400383,,,2018_Jul_09_1308,59.94123498,ExpLonely,29,
0,0.5,-300,300,frogs/ab43.jpg,0,frogs/ab3.jpg,0,5,5,2,,,left,0.435614109039,,,2018_Jul_09_1308,59.94123498,ExpLonely,29,
0,0.5,-300,300,frogs/ab50.jpg,0,frogs/ab10.jpg,0,6,6,9,,,right,0.520146131516,,,2018_Jul_09_1308,59.94123498,ExpLonely,29,
0,0.5,-300,300,frogs/ab72.jpg,0,frogs/ab32.jpg,0,7,7,33,,,left,0.484942913055,,,2018_Jul_09_1308,59.94123498,ExpLonely,29,
0,0.5,-300,300,frogs/ab46.jpg,0,frogs/ab6.jpg,0,8,8,5,,,right,0.41756105423,,,2018_Jul_09_1308,59.94123498,ExpLonely,29,
0,0.5,-300,300,frogs/ab78.jpg,0,frogs/ab38.jpg,0,9,9,39,,,left,0.684845924377,,,2018_Jul_09_1308,59.94123498,ExpLonely,29,
0,0.5,-300,300,2.jpg,0,4.jpg,0,10,10,43,,,left,0.70189499855,,,2018_Jul_09_1308,59.94123498,ExpLonely,29,
0,0.5,-300,300,frogs/ab67.jpg,0,frogs/ab27.jpg,0,11,11,28,,,right,0.667629957199,,,2018_Jul_09_1308,59.94123498,ExpLonely,29,
0,0.5,-300,300,frogs/ab55.jpg,0,frogs/ab15.jpg,0,12,12,14,,,left,0.451472043991,,,2018_Jul_09_1308,59.94123498,ExpLonely,29,
0,0.5,-300,300,frogs/ab47.jpg,0,frogs/ab7.jpg,0,13,13,6,,,right,0.385027885437,,,2018_Jul_09_1308,59.94123498,ExpLonely,29,
0,0.5,-300,300,frogs/ab59.jpg,0,frogs/ab19.jpg,0,14,14,18,,,left,0.717610836029,,,2018_Jul_09_1308,59.94123498,ExpLonely,29,
0,0.5,-300,300,4.jpg,0,2.jpg,0,15,15,21,,,right,0.635447978973,,,2018_Jul_09_1308,59.94123498,ExpLonely,29,
0,0.5,-300,300,frogs/ab69.jpg,0,frogs/ab29.jpg,0,16,16,30,,,None,,,,2018_Jul_09_1308,59.94123498,ExpLonely,29,
0,0.5,-300,300,frogs/ab65.jpg,0,frogs/ab25.jpg,0,17,17,26,,,right,1.51702213287,,,2018_Jul_09_1308,59.94123498,ExpLonely,29,
0,0.5,-300,300,frogs/ab42.jpg,0,frogs/ab2.jpg,0,18,18,1,,,right,0.76890707016,,,2018_Jul_09_1308,59.94123498,ExpLonely,29,
0,0.5,-300,300,frogs/ab51.jpg,0,frogs/ab11.jpg,0,19,19,10,,,left,0.485818862915,,,2018_Jul_09_1308,59.94123498,ExpLonely,29,
0,0.5,-300,300,frogs/ab76.jpg,0,frogs/ab36.jpg,0,20,20,37,,,right,0.651839017868,,,2018_Jul_09_1308,59.94123498,ExpLonely,29,
0,0.5,-300,300,frogs/ab63.jpg,0,frogs/ab23.jpg,0,21,21,24,,,left,0.667189836502,,,2018_Jul_09_1308,59.94123498,ExpLonely,29,
0,0.5,-300,300,frogs/ab58.jpg,0,frogs/ab18.jpg,0,22,22,17,,,right,0.40293598175,,,2018_Jul_09_1308,59.94123498,ExpLonely,29,
0,0.5,-300,300,frogs/ab77.jpg,0,frogs/ab37.jpg,0,23,23,38,,,right,0.651622056961,,,2018_Jul_09_1308,59.94123498,ExpLonely,29,
0,0.5,-300,300,frogs/ab54.jpg,0,frogs/ab14.jpg,0,24,24,13,,,right,0.518092870712,,,2018_Jul_09_1308,59.94123498,ExpLonely,29,
0,0.5,-300,300,frogs/ab79.jpg,0,frogs/ab39.jpg,0,25,25,40,,,right,0.752908945084,,,2018_Jul_09_1308,59.94123498,ExpLonely,29,
0,0.5,-300,300,frogs/ab80.jpg,0,frogs/ab40.jpg,0,26,26,41,,,left,0.968684911728,,,2018_Jul_09_1308,59.94123498,ExpLonely,29,
0,0.5,-300,300,frogs/ab45.jpg,0,frogs/ab5.jpg,0,27,27,4,,,left,0.552325963974,,,2018_Jul_09_1308,59.94123498,ExpLonely,29,
0,0.5,-300,300,frogs/ab53.jpg,0,frogs/ab13.jpg,0,28,28,12,,,right,0.551914930344,,,2018_Jul_09_1308,59.94123498,ExpLonely,29,
0,0.5,-300,300,frogs/ab48.jpg,0,frogs/ab8.jpg,0,29,29,7,,,None,,,,2018_Jul_09_1308,59.94123498,ExpLonely,29,
0,0.5,-300,300,frogs/ab70.jpg,0,frogs/ab30.jpg,0,30,30,31,,,right,0.804090023041,,,2018_Jul_09_1308,59.94123498,ExpLonely,29,
0,0.5,-300,300,frogs/ab60.jpg,0,frogs/ab20.jpg,0,31,31,19,,,right,0.735538959503,,,2018_Jul_09_1308,59.94123498,ExpLonely,29,
0,0.5,-300,300,1.jpg,0,3.jpg,0,32,32,42,,,right,0.568773031235,,,2018_Jul_09_1308,59.94123498,ExpLonely,29,
0,0.5,-300,300,frogs/ab57.jpg,0,frogs/ab17.jpg,0,33,33,16,,,right,1.10258793831,,,2018_Jul_09_1308,59.94123498,ExpLonely,29,
0,0.5,-300,300,frogs/ab61.jpg,0,frogs/ab21.jpg,0,34,34,22,,,right,0.503439903259,,,2018_Jul_09_1308,59.94123498,ExpLonely,29,
0,0.5,-300,300,frogs/ab68.jpg,0,frogs/ab28.jpg,0,35,35,29,,,right,0.519221067429,,,2018_Jul_09_1308,59.94123498,ExpLonely,29,
0,0.5,-300,300,frogs/ab74.jpg,0,frogs/ab34.jpg,0,36,36,35,,,left,0.735746860504,,,2018_Jul_09_1308,59.94123498,ExpLonely,29,
0,0.5,-300,300,3.jpg,0,1.jpg,0,37,37,20,,,left,0.568662881851,,,2018_Jul_09_1308,59.94123498,ExpLonely,29,
0,0.5,-300,300,frogs/ab66.jpg,0,frogs/ab26.jpg,0,38,38,27,,,None,,,,2018_Jul_09_1308,59.94123498,ExpLonely,29,
0,0.5,-300,300,frogs/ab49.jpg,0,frogs/ab9.jpg,0,39,39,8,,,right,0.685065031052,,,2018_Jul_09_1308,59.94123498,ExpLonely,29,
0,0.5,-300,300,frogs/ab56.jpg,0,frogs/ab16.jpg,0,40,40,15,,,None,,,,2018_Jul_09_1308,59.94123498,ExpLonely,29,
0,0.5,-300,300,frogs/ab73.jpg,0,frogs/ab33.jpg,0,41,41,34,,,right,0.701632976532,,,2018_Jul_09_1308,59.94123498,ExpLonely,29,
0,0.5,-300,300,frogs/ab44.jpg,0,frogs/ab4.jpg,0,42,42,3,,,left,0.502887964249,,,2018_Jul_09_1308,59.94123498,ExpLonely,29,
0,0.5,-300,300,frogs/ab41.jpg,0,frogs/ab1.jpg,0,43,43,0,,,right,0.568888902664,,,2018_Jul_09_1308,59.94123498,ExpLonely,29,
,,,,,,,,,,,,,,,escape,4.2842438221,2018_Jul_09_1308,59.94123498,ExpLonely,29,
