YLeftPos,time_presentation,XLeftPos,XRightPos,rightimg,YRightPos,leftimg,trials.thisRepN,trials.thisTrialN,trials.thisN,trials.thisIndex,key_resp_4.keys,key_resp_4.rt,key_resp_2.keys,key_resp_2.rt,key_resp_5.keys,key_resp_5.rt,date,frameRate,expName,participant,
,,,,,,,,,,,space,4.0380320549,,,,,2018_Jul_09_1422,59.9653158531,ExpLonely,40,
0,0.5,-300,300,frogs/ab76.jpg,0,frogs/ab36.jpg,0,0,0,37,,,left,0.502986192703,,,2018_Jul_09_1422,59.9653158531,ExpLonely,40,
0,0.5,-300,300,frogs/ab78.jpg,0,frogs/ab38.jpg,0,1,1,39,,,right,0.602514028549,,,2018_Jul_09_1422,59.9653158531,ExpLonely,40,
0,0.5,-300,300,4.jpg,0,2.jpg,0,2,2,21,,,left,0.536039829254,,,2018_Jul_09_1422,59.9653158531,ExpLonely,40,
0,0.5,-300,300,frogs/ab44.jpg,0,frogs/ab4.jpg,0,3,3,3,,,right,0.45169210434,,,2018_Jul_09_1422,59.9653158531,ExpLonely,40,
0,0.5,-300,300,frogs/ab67.jpg,0,frogs/ab27.jpg,0,4,4,28,,,left,0.467461109161,,,2018_Jul_09_1422,59.9653158531,ExpLonely,40,
0,0.5,-300,300,frogs/ab62.jpg,0,frogs/ab22.jpg,0,5,5,23,,,left,0.368134975433,,,2018_Jul_09_1422,59.9653158531,ExpLonely,40,
0,0.5,-300,300,frogs/ab59.jpg,0,frogs/ab19.jpg,0,6,6,18,,,right,0.418943166733,,,2018_Jul_09_1422,59.9653158531,ExpLonely,40,
0,0.5,-300,300,frogs/ab79.jpg,0,frogs/ab39.jpg,0,7,7,40,,,left,0.451943874359,,,2018_Jul_09_1422,59.9653158531,ExpLonely,40,
0,0.5,-300,300,frogs/ab45.jpg,0,frogs/ab5.jpg,0,8,8,4,,,left,0.61933016777,,,2018_Jul_09_1422,59.9653158531,ExpLonely,40,
0,0.5,-300,300,frogs/ab61.jpg,0,frogs/ab21.jpg,0,9,9,22,,,left,0.402672052383,,,2018_Jul_09_1422,59.9653158531,ExpLonely,40,
0,0.5,-300,300,frogs/ab74.jpg,0,frogs/ab34.jpg,0,10,10,35,,,right,0.368607997894,,,2018_Jul_09_1422,59.9653158531,ExpLonely,40,
0,0.5,-300,300,frogs/ab52.jpg,0,frogs/ab12.jpg,0,11,11,11,,,left,0.402194023132,,,2018_Jul_09_1422,59.9653158531,ExpLonely,40,
0,0.5,-300,300,frogs/ab73.jpg,0,frogs/ab33.jpg,0,12,12,34,,,right,0.385454893112,,,2018_Jul_09_1422,59.9653158531,ExpLonely,40,
0,0.5,-300,300,frogs/ab77.jpg,0,frogs/ab37.jpg,0,13,13,38,,,left,0.401751041412,,,2018_Jul_09_1422,59.9653158531,ExpLonely,40,
0,0.5,-300,300,frogs/ab43.jpg,0,frogs/ab3.jpg,0,14,14,2,,,left,0.369709968567,,,2018_Jul_09_1422,59.9653158531,ExpLonely,40,
0,0.5,-300,300,frogs/ab42.jpg,0,frogs/ab2.jpg,0,15,15,1,,,left,0.267588853836,,,2018_Jul_09_1422,59.9653158531,ExpLonely,40,
0,0.5,-300,300,2.jpg,0,4.jpg,0,16,16,43,,,left,0.402076005936,,,2018_Jul_09_1422,59.9653158531,ExpLonely,40,
0,0.5,-300,300,frogs/ab63.jpg,0,frogs/ab23.jpg,0,17,17,24,,,right,0.435823917389,,,2018_Jul_09_1422,59.9653158531,ExpLonely,40,
0,0.5,-300,300,frogs/ab53.jpg,0,frogs/ab13.jpg,0,18,18,12,,,left,0.368373155594,,,2018_Jul_09_1422,59.9653158531,ExpLonely,40,
0,0.5,-300,300,frogs/ab60.jpg,0,frogs/ab20.jpg,0,19,19,19,,,left,0.502017021179,,,2018_Jul_09_1422,59.9653158531,ExpLonely,40,
0,0.5,-300,300,frogs/ab72.jpg,0,frogs/ab32.jpg,0,20,20,33,,,right,0.402751922607,,,2018_Jul_09_1422,59.9653158531,ExpLonely,40,
0,0.5,-300,300,frogs/ab56.jpg,0,frogs/ab16.jpg,0,21,21,15,,,left,0.299180984497,,,2018_Jul_09_1422,59.9653158531,ExpLonely,40,
0,0.5,-300,300,frogs/ab68.jpg,0,frogs/ab28.jpg,0,22,22,29,,,right,0.451998949051,,,2018_Jul_09_1422,59.9653158531,ExpLonely,40,
0,0.5,-300,300,frogs/ab55.jpg,0,frogs/ab15.jpg,0,23,23,14,,,left,0.369304895401,,,2018_Jul_09_1422,59.9653158531,ExpLonely,40,
0,0.5,-300,300,frogs/ab71.jpg,0,frogs/ab31.jpg,0,24,24,32,,,left,0.419541120529,,,2018_Jul_09_1422,59.9653158531,ExpLonely,40,
0,0.5,-300,300,frogs/ab51.jpg,0,frogs/ab11.jpg,0,25,25,10,,,right,0.435678005219,,,2018_Jul_09_1422,59.9653158531,ExpLonely,40,
0,0.5,-300,300,frogs/ab47.jpg,0,frogs/ab7.jpg,0,26,26,6,,,left,0.201722145081,,,2018_Jul_09_1422,59.9653158531,ExpLonely,40,
0,0.5,-300,300,frogs/ab46.jpg,0,frogs/ab6.jpg,0,27,27,5,,,right,0.451657056808,,,2018_Jul_09_1422,59.9653158531,ExpLonely,40,
0,0.5,-300,300,frogs/ab70.jpg,0,frogs/ab30.jpg,0,28,28,31,,,left,0.385072946548,,,2018_Jul_09_1422,59.9653158531,ExpLonely,40,
0,0.5,-300,300,frogs/ab49.jpg,0,frogs/ab9.jpg,0,29,29,8,,,right,0.302114009857,,,2018_Jul_09_1422,59.9653158531,ExpLonely,40,
0,0.5,-300,300,frogs/ab64.jpg,0,frogs/ab24.jpg,0,30,30,25,,,left,0.419096946716,,,2018_Jul_09_1422,59.9653158531,ExpLonely,40,
0,0.5,-300,300,frogs/ab69.jpg,0,frogs/ab29.jpg,0,31,31,30,,,right,0.417917013168,,,2018_Jul_09_1422,59.9653158531,ExpLonely,40,
0,0.5,-300,300,frogs/ab50.jpg,0,frogs/ab10.jpg,0,32,32,9,,,right,0.435552835464,,,2018_Jul_09_1422,59.9653158531,ExpLonely,40,
0,0.5,-300,300,frogs/ab65.jpg,0,frogs/ab25.jpg,0,33,33,26,,,left,0.384147167206,,,2018_Jul_09_1422,59.9653158531,ExpLonely,40,
0,0.5,-300,300,frogs/ab75.jpg,0,frogs/ab35.jpg,0,34,34,36,,,right,0.419031143188,,,2018_Jul_09_1422,59.9653158531,ExpLonely,40,
0,0.5,-300,300,frogs/ab80.jpg,0,frogs/ab40.jpg,0,35,35,41,,,left,0.418589115143,,,2018_Jul_09_1422,59.9653158531,ExpLonely,40,
0,0.5,-300,300,3.jpg,0,1.jpg,0,36,36,20,,,right,0.4181599617,,,2018_Jul_09_1422,59.9653158531,ExpLonely,40,
0,0.5,-300,300,frogs/ab54.jpg,0,frogs/ab14.jpg,0,37,37,13,,,left,0.43577504158,,,2018_Jul_09_1422,59.9653158531,ExpLonely,40,
0,0.5,-300,300,frogs/ab48.jpg,0,frogs/ab8.jpg,0,38,38,7,,,left,0.468225955963,,,2018_Jul_09_1422,59.9653158531,ExpLonely,40,
0,0.5,-300,300,frogs/ab41.jpg,0,frogs/ab1.jpg,0,39,39,0,,,right,0.436253070831,,,2018_Jul_09_1422,59.9653158531,ExpLonely,40,
0,0.5,-300,300,frogs/ab58.jpg,0,frogs/ab18.jpg,0,40,40,17,,,left,0.385414838791,,,2018_Jul_09_1422,59.9653158531,ExpLonely,40,
0,0.5,-300,300,frogs/ab57.jpg,0,frogs/ab17.jpg,0,41,41,16,,,left,0.385469913483,,,2018_Jul_09_1422,59.9653158531,ExpLonely,40,
0,0.5,-300,300,1.jpg,0,3.jpg,0,42,42,42,,,left,0.402398824692,,,2018_Jul_09_1422,59.9653158531,ExpLonely,40,
0,0.5,-300,300,frogs/ab66.jpg,0,frogs/ab26.jpg,0,43,43,27,,,right,0.468924045563,,,2018_Jul_09_1422,59.9653158531,ExpLonely,40,
,,,,,,,,,,,,,,,escape,3.71836304665,2018_Jul_09_1422,59.9653158531,ExpLonely,40,
