YLeftPos,time_presentation,XLeftPos,XRightPos,rightimg,YRightPos,leftimg,trials.thisRepN,trials.thisTrialN,trials.thisN,trials.thisIndex,key_resp_4.keys,key_resp_4.rt,key_resp_2.keys,key_resp_2.rt,key_resp_5.keys,key_resp_5.rt,date,frameRate,expName,participant,
,,,,,,,,,,,space,17.9088888168,,,,,2018_Jul_09_1436,59.9757769189,ExpLonely,47,
0,0.5,-300,300,frogs/ab74.jpg,0,frogs/ab34.jpg,0,0,0,35,,,right,0.919705867767,,,2018_Jul_09_1436,59.9757769189,ExpLonely,47,
0,0.5,-300,300,frogs/ab62.jpg,0,frogs/ab22.jpg,0,1,1,23,,,right,0.919214010239,,,2018_Jul_09_1436,59.9757769189,ExpLonely,47,
0,0.5,-300,300,4.jpg,0,2.jpg,0,2,2,21,,,left,0.869005918503,,,2018_Jul_09_1436,59.9757769189,ExpLonely,47,
0,0.5,-300,300,frogs/ab54.jpg,0,frogs/ab14.jpg,0,3,3,13,,,left,1.05219602585,,,2018_Jul_09_1436,59.9757769189,ExpLonely,47,
0,0.5,-300,300,frogs/ab65.jpg,0,frogs/ab25.jpg,0,4,4,26,,,left,0.884000062943,,,2018_Jul_09_1436,59.9757769189,ExpLonely,47,
0,0.5,-300,300,frogs/ab53.jpg,0,frogs/ab13.jpg,0,5,5,12,,,left,1.78446912766,,,2018_Jul_09_1436,59.9757769189,ExpLonely,47,
0,0.5,-300,300,frogs/ab70.jpg,0,frogs/ab30.jpg,0,6,6,31,,,right,1.05278015137,,,2018_Jul_09_1436,59.9757769189,ExpLonely,47,
0,0.5,-300,300,frogs/ab51.jpg,0,frogs/ab11.jpg,0,7,7,10,,,right,1.03513789177,,,2018_Jul_09_1436,59.9757769189,ExpLonely,47,
0,0.5,-300,300,frogs/ab71.jpg,0,frogs/ab31.jpg,0,8,8,32,,,right,0.984909057617,,,2018_Jul_09_1436,59.9757769189,ExpLonely,47,
0,0.5,-300,300,frogs/ab45.jpg,0,frogs/ab5.jpg,0,9,9,4,,,right,1.03452992439,,,2018_Jul_09_1436,59.9757769189,ExpLonely,47,
0,0.5,-300,300,frogs/ab68.jpg,0,frogs/ab28.jpg,0,10,10,29,,,right,1.00168514252,,,2018_Jul_09_1436,59.9757769189,ExpLonely,47,
0,0.5,-300,300,2.jpg,0,4.jpg,0,11,11,43,,,right,1.56900906563,,,2018_Jul_09_1436,59.9757769189,ExpLonely,47,
0,0.5,-300,300,frogs/ab61.jpg,0,frogs/ab21.jpg,0,12,12,22,,,right,1.73558807373,,,2018_Jul_09_1436,59.9757769189,ExpLonely,47,
0,0.5,-300,300,frogs/ab63.jpg,0,frogs/ab23.jpg,0,13,13,24,,,left,0.835520029068,,,2018_Jul_09_1436,59.9757769189,ExpLonely,47,
0,0.5,-300,300,frogs/ab72.jpg,0,frogs/ab32.jpg,0,14,14,33,,,right,1.10259318352,,,2018_Jul_09_1436,59.9757769189,ExpLonely,47,
0,0.5,-300,300,frogs/ab57.jpg,0,frogs/ab17.jpg,0,15,15,16,,,left,1.0023059845,,,2018_Jul_09_1436,59.9757769189,ExpLonely,47,
0,0.5,-300,300,frogs/ab44.jpg,0,frogs/ab4.jpg,0,16,16,3,,,right,1.13510012627,,,2018_Jul_09_1436,59.9757769189,ExpLonely,47,
0,0.5,-300,300,frogs/ab69.jpg,0,frogs/ab29.jpg,0,17,17,30,,,left,1.03523111343,,,2018_Jul_09_1436,59.9757769189,ExpLonely,47,
0,0.5,-300,300,frogs/ab47.jpg,0,frogs/ab7.jpg,0,18,18,6,,,right,0.916115045547,,,2018_Jul_09_1436,59.9757769189,ExpLonely,47,
0,0.5,-300,300,frogs/ab64.jpg,0,frogs/ab24.jpg,0,19,19,25,,,left,1.13352799416,,,2018_Jul_09_1436,59.9757769189,ExpLonely,47,
0,0.5,-300,300,frogs/ab46.jpg,0,frogs/ab6.jpg,0,20,20,5,,,right,2.15303707123,,,2018_Jul_09_1436,59.9757769189,ExpLonely,47,
0,0.5,-300,300,frogs/ab48.jpg,0,frogs/ab8.jpg,0,21,21,7,,,left,1.10290789604,,,2018_Jul_09_1436,59.9757769189,ExpLonely,47,
0,0.5,-300,300,frogs/ab75.jpg,0,frogs/ab35.jpg,0,22,22,36,,,left,1.53574204445,,,2018_Jul_09_1436,59.9757769189,ExpLonely,47,
0,0.5,-300,300,3.jpg,0,1.jpg,0,23,23,20,,,left,1.05167984962,,,2018_Jul_09_1436,59.9757769189,ExpLonely,47,
0,0.5,-300,300,frogs/ab56.jpg,0,frogs/ab16.jpg,0,24,24,15,,,left,1.75124502182,,,2018_Jul_09_1436,59.9757769189,ExpLonely,47,
0,0.5,-300,300,frogs/ab78.jpg,0,frogs/ab38.jpg,0,25,25,39,,,left,1.40204000473,,,2018_Jul_09_1436,59.9757769189,ExpLonely,47,
0,0.5,-300,300,frogs/ab58.jpg,0,frogs/ab18.jpg,0,26,26,17,,,right,1.11783409119,,,2018_Jul_09_1436,59.9757769189,ExpLonely,47,
0,0.5,-300,300,frogs/ab49.jpg,0,frogs/ab9.jpg,0,27,27,8,,,right,1.16896796227,,,2018_Jul_09_1436,59.9757769189,ExpLonely,47,
0,0.5,-300,300,frogs/ab41.jpg,0,frogs/ab1.jpg,0,28,28,0,,,left,1.7840218544,,,2018_Jul_09_1436,59.9757769189,ExpLonely,47,
0,0.5,-300,300,frogs/ab60.jpg,0,frogs/ab20.jpg,0,29,29,19,,,left,1.35198521614,,,2018_Jul_09_1436,59.9757769189,ExpLonely,47,
0,0.5,-300,300,frogs/ab67.jpg,0,frogs/ab27.jpg,0,30,30,28,,,right,1.36680483818,,,2018_Jul_09_1436,59.9757769189,ExpLonely,47,
0,0.5,-300,300,frogs/ab52.jpg,0,frogs/ab12.jpg,0,31,31,11,,,left,1.35197210312,,,2018_Jul_09_1436,59.9757769189,ExpLonely,47,
0,0.5,-300,300,frogs/ab50.jpg,0,frogs/ab10.jpg,0,32,32,9,,,right,1.61911797523,,,2018_Jul_09_1436,59.9757769189,ExpLonely,47,
0,0.5,-300,300,frogs/ab77.jpg,0,frogs/ab37.jpg,0,33,33,38,,,right,1.30209803581,,,2018_Jul_09_1436,59.9757769189,ExpLonely,47,
0,0.5,-300,300,frogs/ab43.jpg,0,frogs/ab3.jpg,0,34,34,2,,,left,1.40221381187,,,2018_Jul_09_1436,59.9757769189,ExpLonely,47,
0,0.5,-300,300,1.jpg,0,3.jpg,0,35,35,42,,,right,1.76936197281,,,2018_Jul_09_1436,59.9757769189,ExpLonely,47,
0,0.5,-300,300,frogs/ab79.jpg,0,frogs/ab39.jpg,0,36,36,40,,,left,1.36671185493,,,2018_Jul_09_1436,59.9757769189,ExpLonely,47,
0,0.5,-300,300,frogs/ab76.jpg,0,frogs/ab36.jpg,0,37,37,37,,,left,1.51787185669,,,2018_Jul_09_1436,59.9757769189,ExpLonely,47,
0,0.5,-300,300,frogs/ab59.jpg,0,frogs/ab19.jpg,0,38,38,18,,,right,1.53532505035,,,2018_Jul_09_1436,59.9757769189,ExpLonely,47,
0,0.5,-300,300,frogs/ab42.jpg,0,frogs/ab2.jpg,0,39,39,1,,,right,1.98492717743,,,2018_Jul_09_1436,59.9757769189,ExpLonely,47,
0,0.5,-300,300,frogs/ab73.jpg,0,frogs/ab33.jpg,0,40,40,34,,,left,1.30050206184,,,2018_Jul_09_1436,59.9757769189,ExpLonely,47,
0,0.5,-300,300,frogs/ab55.jpg,0,frogs/ab15.jpg,0,41,41,14,,,left,1.31950998306,,,2018_Jul_09_1436,59.9757769189,ExpLonely,47,
0,0.5,-300,300,frogs/ab80.jpg,0,frogs/ab40.jpg,0,42,42,41,,,right,1.4023900032,,,2018_Jul_09_1436,59.9757769189,ExpLonely,47,
0,0.5,-300,300,frogs/ab66.jpg,0,frogs/ab26.jpg,0,43,43,27,,,left,2.2687060833,,,2018_Jul_09_1436,59.9757769189,ExpLonely,47,
,,,,,,,,,,,,,,,escape,11.468832016,2018_Jul_09_1436,59.9757769189,ExpLonely,47,
