pix,source,image1,x,y,size,answer,trials_2.thisRepN,trials_2.thisTrialN,trials_2.thisN,trials_2.thisIndex,trials.thisRepN,trials.thisTrialN,trials.thisN,trials.thisIndex,key_resp_3.keys,key_resp_3.rt,key_resp_2.keys,key_resp_2.corr,key_resp_2.rt,date,frameRate,expName,session,participant,
logos/3.jpg,properties3.xlsx,frogs/ab44.jpg,0,0,400,l,0,0,0,2,0,0,0,43,space,17.269259892,['l'],0,[0.23421061763747275],2018_Jul_09_1143,60.051961806,go-nogo,001,10,
logos/3.jpg,properties3.xlsx,frogs/ab10.jpg,0,0,400,l,0,0,0,2,0,1,1,9,,,['l'],0,[0.21671385603985982],2018_Jul_09_1143,60.051961806,go-nogo,001,10,
logos/3.jpg,properties3.xlsx,frogs/ab30.jpg,0,0,400,l,0,0,0,2,0,2,2,29,,,['l'],0,[2.616482659398571],2018_Jul_09_1143,60.051961806,go-nogo,001,10,
logos/3.jpg,properties3.xlsx,frogs/ab8.jpg,0,0,400,l,0,0,0,2,0,3,3,7,,,['a'],0,[0.20019160194169672],2018_Jul_09_1143,60.051961806,go-nogo,001,10,
logos/3.jpg,properties3.xlsx,logos/3.jpg,0,0,400,a,0,0,0,2,0,4,4,87,,,['a'],0,[3.3657679921216186],2018_Jul_09_1143,60.051961806,go-nogo,001,10,
logos/3.jpg,properties3.xlsx,frogs/ab75.jpg,0,0,400,l,0,0,0,2,0,5,5,73,,,['l'],0,[0.11770946933393134],2018_Jul_09_1143,60.051961806,go-nogo,001,10,
logos/3.jpg,properties3.xlsx,frogs/ab22.jpg,0,0,400,l,0,0,0,2,0,6,6,21,,,['l'],0,[0.40068585302924475],2018_Jul_09_1143,60.051961806,go-nogo,001,10,
logos/3.jpg,properties3.xlsx,frogs/ab45.jpg,0,0,400,l,0,0,0,2,0,7,7,44,,,['l'],0,[0.167584569671817],2018_Jul_09_1143,60.051961806,go-nogo,001,10,
logos/3.jpg,properties3.xlsx,logos/3.jpg,0,0,400,a,0,0,0,2,0,8,8,83,,,['a'],0,[0.11768102486530552],2018_Jul_09_1143,60.051961806,go-nogo,001,10,
logos/3.jpg,properties3.xlsx,frogs/ab13.jpg,0,0,400,l,0,0,0,2,0,9,9,12,,,['l'],0,[0.3509006372132717],2018_Jul_09_1143,60.051961806,go-nogo,001,10,
logos/3.jpg,properties3.xlsx,frogs/ab1.jpg,0,0,400,l,0,0,0,2,0,10,10,0,,,['a'],0,[2.4331091340309285],2018_Jul_09_1143,60.051961806,go-nogo,001,10,
logos/3.jpg,properties3.xlsx,frogs/ab53.jpg,0,0,400,l,0,0,0,2,0,11,11,52,,,['a'],0,[1.8669248286651055],2018_Jul_09_1143,60.051961806,go-nogo,001,10,
logos/3.jpg,properties3.xlsx,frogs/ab17.jpg,0,0,400,l,0,0,0,2,0,12,12,16,,,['a'],0,[1.367022393192201],2018_Jul_09_1143,60.051961806,go-nogo,001,10,
logos/3.jpg,properties3.xlsx,frogs/ab38.jpg,0,0,400,l,0,0,0,2,0,13,13,37,,,['l'],0,[4.431788172903907],2018_Jul_09_1143,60.051961806,go-nogo,001,10,
logos/3.jpg,properties3.xlsx,frogs/ab27.jpg,0,0,400,l,0,0,0,2,0,14,14,26,,,['l'],0,[0.08427868525177473],2018_Jul_09_1143,60.051961806,go-nogo,001,10,
logos/3.jpg,properties3.xlsx,frogs/ab28.jpg,0,0,400,l,0,0,0,2,0,15,15,27,,,['a'],0,[1.0172162991357254],2018_Jul_09_1143,60.051961806,go-nogo,001,10,
logos/3.jpg,properties3.xlsx,frogs/ab34.jpg,0,0,400,l,0,0,0,2,0,16,16,33,,,['l'],0,[0.15099006662239844],2018_Jul_09_1143,60.051961806,go-nogo,001,10,
logos/3.jpg,properties3.xlsx,frogs/ab63.jpg,0,0,400,l,0,0,0,2,0,17,17,61,,,['l'],0,[3.865842232185969],2018_Jul_09_1143,60.051961806,go-nogo,001,10,
logos/3.jpg,properties3.xlsx,frogs/ab18.jpg,0,0,400,l,0,0,0,2,0,18,18,17,,,['l'],0,[0.051053839121777855],2018_Jul_09_1143,60.051961806,go-nogo,001,10,
logos/3.jpg,properties3.xlsx,frogs/ab51.jpg,0,0,400,l,0,0,0,2,0,19,19,50,,,['l'],0,[1.0336822331864823],2018_Jul_09_1143,60.051961806,go-nogo,001,10,
logos/3.jpg,properties3.xlsx,frogs/ab7.jpg,0,0,400,l,0,0,0,2,0,20,20,6,,,['l'],0,[0.10112293073598266],2018_Jul_09_1143,60.051961806,go-nogo,001,10,
logos/3.jpg,properties3.xlsx,logos/3.jpg,0,0,400,a,0,0,0,2,0,21,21,81,,,['a'],0,[0.08439303201521398],2018_Jul_09_1143,60.051961806,go-nogo,001,10,
logos/3.jpg,properties3.xlsx,frogs/ab5.jpg,0,0,400,l,0,0,0,2,0,22,22,4,,,['l'],0,[1.5834751290103668],2018_Jul_09_1143,60.051961806,go-nogo,001,10,
logos/3.jpg,properties3.xlsx,frogs/ab78.jpg,0,0,400,l,0,0,0,2,0,23,23,76,,,['l'],0,[0.017823872986809874],2018_Jul_09_1143,60.051961806,go-nogo,001,10,
logos/3.jpg,properties3.xlsx,frogs/ab15.jpg,0,0,400,l,0,0,0,2,0,24,24,14,,,['a'],0,[0.00038172477070474997],2018_Jul_09_1143,60.051961806,go-nogo,001,10,
logos/3.jpg,properties3.xlsx,frogs/ab60.jpg,0,0,400,l,0,0,0,2,0,25,25,58,,,['l'],0,[5.6979959734007934],2018_Jul_09_1143,60.051961806,go-nogo,001,10,
logos/3.jpg,properties3.xlsx,frogs/ab58.jpg,0,0,400,l,0,0,0,2,0,26,26,57,,,['l'],0,[0.0679174268443603],2018_Jul_09_1143,60.051961806,go-nogo,001,10,
logos/3.jpg,properties3.xlsx,frogs/ab37.jpg,0,0,400,l,0,0,0,2,0,27,27,36,,,['l'],0,[1.2837108198773421],2018_Jul_09_1143,60.051961806,go-nogo,001,10,
logos/3.jpg,properties3.xlsx,frogs/ab56.jpg,0,0,400,l,0,0,0,2,0,28,28,55,,,['l'],0,[0.1012907531012388],2018_Jul_09_1143,60.051961806,go-nogo,001,10,
logos/3.jpg,properties3.xlsx,frogs/ab79.jpg,0,0,400,l,0,0,0,2,0,29,29,77,,,['a'],0,[0.06673129249975318],2018_Jul_09_1143,60.051961806,go-nogo,001,10,
logos/3.jpg,properties3.xlsx,frogs/ab40.jpg,0,0,400,l,0,0,0,2,0,30,30,39,,,['l'],0,[2.20013414411369],2018_Jul_09_1143,60.051961806,go-nogo,001,10,
logos/3.jpg,properties3.xlsx,logos/3.jpg,0,0,400,a,0,0,0,2,0,31,31,86,,,['l'],0,[3.315690936055944],2018_Jul_09_1143,60.051961806,go-nogo,001,10,
logos/3.jpg,properties3.xlsx,frogs/ab31.jpg,0,0,400,l,0,0,0,2,0,32,32,30,,,['l'],0,[0.10230166951987485],2018_Jul_09_1143,60.051961806,go-nogo,001,10,
logos/3.jpg,properties3.xlsx,frogs/ab6.jpg,0,0,400,l,0,0,0,2,0,33,33,5,,,['a'],0,[0.25085575184129993],2018_Jul_09_1143,60.051961806,go-nogo,001,10,
logos/3.jpg,properties3.xlsx,frogs/ab3.jpg,0,0,400,l,0,0,0,2,0,34,34,2,,,['l'],0,[0.3676066425796307],2018_Jul_09_1143,60.051961806,go-nogo,001,10,
logos/3.jpg,properties3.xlsx,frogs/ab65.jpg,0,0,400,l,0,0,0,2,0,35,35,63,,,['l'],0,[4.565012962144465],2018_Jul_09_1143,60.051961806,go-nogo,001,10,
logos/3.jpg,properties3.xlsx,frogs/ab67.jpg,0,0,400,l,0,0,0,2,0,36,36,65,,,['l'],0,[2.549680255727253],2018_Jul_09_1143,60.051961806,go-nogo,001,10,
logos/3.jpg,properties3.xlsx,frogs/ab43.jpg,0,0,400,l,0,0,0,2,0,37,37,42,,,['a'],0,[2.9161695995762784],2018_Jul_09_1143,60.051961806,go-nogo,001,10,
logos/3.jpg,properties3.xlsx,frogs/ab16.jpg,0,0,400,l,0,0,0,2,0,38,38,15,,,['l'],0,[1.1171172554959412],2018_Jul_09_1143,60.051961806,go-nogo,001,10,
logos/3.jpg,properties3.xlsx,frogs/ab54.jpg,0,0,400,l,0,0,0,2,0,39,39,53,,,['a'],0,[1.032995583711454],2018_Jul_09_1143,60.051961806,go-nogo,001,10,
logos/3.jpg,properties3.xlsx,frogs/ab55.jpg,0,0,400,l,0,0,0,2,0,40,40,54,,,['l'],0,[1.2337270616699243],2018_Jul_09_1143,60.051961806,go-nogo,001,10,
logos/3.jpg,properties3.xlsx,frogs/ab42.jpg,0,0,400,l,0,0,0,2,0,41,41,41,,,['l'],0,[3.082744390608241],2018_Jul_09_1143,60.051961806,go-nogo,001,10,
logos/3.jpg,properties3.xlsx,frogs/ab11.jpg,0,0,400,l,0,0,0,2,0,42,42,10,,,['l'],0,[1.0505668698169757],2018_Jul_09_1143,60.051961806,go-nogo,001,10,
logos/3.jpg,properties3.xlsx,logos/3.jpg,0,0,400,a,0,0,0,2,0,43,43,89,,,['l'],0,[5.01496918610701],2018_Jul_09_1143,60.051961806,go-nogo,001,10,
logos/3.jpg,properties3.xlsx,frogs/ab57.jpg,0,0,400,l,0,0,0,2,0,44,44,56,,,['l'],0,[2.6501518081295217],2018_Jul_09_1143,60.051961806,go-nogo,001,10,
logos/3.jpg,properties3.xlsx,frogs/ab47.jpg,0,0,400,l,0,0,0,2,0,45,45,46,,,['l'],0,[3.515668066703256],2018_Jul_09_1143,60.051961806,go-nogo,001,10,
logos/3.jpg,properties3.xlsx,frogs/ab23.jpg,0,0,400,l,0,0,0,2,0,46,46,22,,,['l'],0,[2.6661501151147604],2018_Jul_09_1143,60.051961806,go-nogo,001,10,
logos/3.jpg,properties3.xlsx,frogs/ab25.jpg,0,0,400,l,0,0,0,2,0,47,47,24,,,['l'],0,[0.6675666496566919],2018_Jul_09_1143,60.051961806,go-nogo,001,10,
logos/3.jpg,properties3.xlsx,frogs/ab50.jpg,0,0,400,l,0,0,0,2,0,48,48,49,,,['l'],0,[1.0506408254359485],2018_Jul_09_1143,60.051961806,go-nogo,001,10,
logos/3.jpg,properties3.xlsx,frogs/ab49.jpg,0,0,400,l,0,0,0,2,0,49,49,48,,,['l'],0,[2.116292934792],2018_Jul_09_1143,60.051961806,go-nogo,001,10,
logos/3.jpg,properties3.xlsx,frogs/ab36.jpg,0,0,400,l,0,0,0,2,0,50,50,35,,,['l'],0,[2.666514204314808],2018_Jul_09_1143,60.051961806,go-nogo,001,10,
logos/3.jpg,properties3.xlsx,frogs/ab4.jpg,0,0,400,l,0,0,0,2,0,51,51,3,,,['l'],0,[1.9332493652618723],2018_Jul_09_1143,60.051961806,go-nogo,001,10,
logos/3.jpg,properties3.xlsx,frogs/ab12.jpg,0,0,400,l,0,0,0,2,0,52,52,11,,,['l'],0,[1.2668648677254168],2018_Jul_09_1143,60.051961806,go-nogo,001,10,
logos/3.jpg,properties3.xlsx,frogs/ab77.jpg,0,0,400,l,0,0,0,2,0,53,53,75,,,['l'],0,[1.1673877339480896],2018_Jul_09_1143,60.051961806,go-nogo,001,10,
logos/3.jpg,properties3.xlsx,frogs/ab70.jpg,0,0,400,l,0,0,0,2,0,54,54,68,,,['l'],0,[1.633460024996566],2018_Jul_09_1143,60.051961806,go-nogo,001,10,
logos/3.jpg,properties3.xlsx,frogs/ab33.jpg,0,0,400,l,0,0,0,2,0,55,55,32,,,['l'],0,[0.5340494512774967],2018_Jul_09_1143,60.051961806,go-nogo,001,10,
logos/3.jpg,properties3.xlsx,frogs/ab21.jpg,0,0,400,l,0,0,0,2,0,56,56,20,,,['l'],0,[0.35090917055367754],2018_Jul_09_1143,60.051961806,go-nogo,001,10,
logos/3.jpg,properties3.xlsx,frogs/ab73.jpg,0,0,400,l,0,0,0,2,0,57,57,71,,,['l'],0,[1.183735907899063],2018_Jul_09_1143,60.051961806,go-nogo,001,10,
logos/3.jpg,properties3.xlsx,logos/3.jpg,0,0,400,a,0,0,0,2,0,58,58,82,,,['l'],0,[0.6342940168196947],2018_Jul_09_1143,60.051961806,go-nogo,001,10,
logos/3.jpg,properties3.xlsx,frogs/ab66.jpg,0,0,400,l,0,0,0,2,0,59,59,64,,,['l'],0,[0.9997405864451139],2018_Jul_09_1143,60.051961806,go-nogo,001,10,
logos/3.jpg,properties3.xlsx,frogs/ab74.jpg,0,0,400,l,0,0,0,2,0,60,60,72,,,['a'],0,[3.5489867795804457],2018_Jul_09_1143,60.051961806,go-nogo,001,10,
logos/3.jpg,properties3.xlsx,frogs/ab2.jpg,0,0,400,l,0,0,0,2,0,61,61,1,,,['l'],0,[0.3007115099399016],2018_Jul_09_1143,60.051961806,go-nogo,001,10,
logos/3.jpg,properties3.xlsx,frogs/ab14.jpg,0,0,400,l,0,0,0,2,0,62,62,13,,,['a'],0,[2.549904967029761],2018_Jul_09_1143,60.051961806,go-nogo,001,10,
logos/3.jpg,properties3.xlsx,frogs/ab76.jpg,0,0,400,l,0,0,0,2,0,63,63,74,,,['a'],0,[0.8166839324594548],2018_Jul_09_1143,60.051961806,go-nogo,001,10,
logos/3.jpg,properties3.xlsx,frogs/ab32.jpg,0,0,400,l,0,0,0,2,0,64,64,31,,,['a'],0,[1.3003531096346705],2018_Jul_09_1143,60.051961806,go-nogo,001,10,
logos/3.jpg,properties3.xlsx,frogs/ab39.jpg,0,0,400,l,0,0,0,2,0,65,65,38,,,['l'],0,[2.3498339696361654],2018_Jul_09_1143,60.051961806,go-nogo,001,10,
logos/3.jpg,properties3.xlsx,frogs/ab62.jpg,0,0,400,l,0,0,0,2,0,66,66,60,,,['l'],0,[5.315690367167008],2018_Jul_09_1143,60.051961806,go-nogo,001,10,
logos/3.jpg,properties3.xlsx,logos/3.jpg,0,0,400,a,0,0,0,2,0,67,67,85,,,['a'],0,[0.12074278747877543],2018_Jul_09_1143,60.051961806,go-nogo,001,10,
logos/3.jpg,properties3.xlsx,frogs/ab68.jpg,0,0,400,l,0,0,0,2,0,68,68,66,,,['l'],0,[1.7502592713317426],2018_Jul_09_1143,60.051961806,go-nogo,001,10,
logos/3.jpg,properties3.xlsx,frogs/ab26.jpg,0,0,400,l,0,0,0,2,0,69,69,25,,,['l'],0,[3.0999163163724006],2018_Jul_09_1143,60.051961806,go-nogo,001,10,
logos/3.jpg,properties3.xlsx,frogs/ab81.jpg,0,0,400,l,0,0,0,2,0,70,70,79,,,['a'],0,[0.08435036531227524],2018_Jul_09_1143,60.051961806,go-nogo,001,10,
logos/3.jpg,properties3.xlsx,logos/3.jpg,0,0,400,a,0,0,0,2,0,71,71,80,,,['l'],0,[1.5003746136526388],2018_Jul_09_1143,60.051961806,go-nogo,001,10,
logos/3.jpg,properties3.xlsx,frogs/ab9.jpg,0,0,400,l,0,0,0,2,0,72,72,8,,,['l'],0,[1.7506307560943242],2018_Jul_09_1143,60.051961806,go-nogo,001,10,
logos/3.jpg,properties3.xlsx,frogs/ab64.jpg,0,0,400,l,0,0,0,2,0,73,73,62,,,['l'],0,[1.216750264960865],2018_Jul_09_1143,60.051961806,go-nogo,001,10,
logos/3.jpg,properties3.xlsx,frogs/ab52.jpg,0,0,400,l,0,0,0,2,0,74,74,51,,,['a'],0,[0.800764132207405],2018_Jul_09_1143,60.051961806,go-nogo,001,10,
logos/3.jpg,properties3.xlsx,frogs/ab20.jpg,0,0,400,l,0,0,0,2,0,75,75,19,,,['l'],0,[0.41756935188186617],2018_Jul_09_1143,60.051961806,go-nogo,001,10,
logos/3.jpg,properties3.xlsx,frogs/ab29.jpg,0,0,400,l,0,0,0,2,0,76,76,28,,,['a'],0,[6.114465662121802],2018_Jul_09_1143,60.051961806,go-nogo,001,10,
logos/3.jpg,properties3.xlsx,frogs/ab61.jpg,0,0,400,l,0,0,0,2,0,77,77,59,,,['l'],0,[2.5994461293048516],2018_Jul_09_1143,60.051961806,go-nogo,001,10,
logos/3.jpg,properties3.xlsx,frogs/ab80.jpg,0,0,400,l,0,0,0,2,0,78,78,78,,,['a'],0,[1.166162346236888],2018_Jul_09_1143,60.051961806,go-nogo,001,10,
logos/3.jpg,properties3.xlsx,frogs/ab19.jpg,0,0,400,l,0,0,0,2,0,79,79,18,,,['a'],0,[2.900409088349079],2018_Jul_09_1143,60.051961806,go-nogo,001,10,
logos/3.jpg,properties3.xlsx,frogs/ab72.jpg,0,0,400,l,0,0,0,2,0,80,80,70,,,['a'],0,[1.0341180024470304],2018_Jul_09_1143,60.051961806,go-nogo,001,10,
logos/3.jpg,properties3.xlsx,frogs/ab71.jpg,0,0,400,l,0,0,0,2,0,81,81,69,,,['l'],0,[1.4340409748265301],2018_Jul_09_1143,60.051961806,go-nogo,001,10,
logos/3.jpg,properties3.xlsx,logos/3.jpg,0,0,400,a,0,0,0,2,0,82,82,88,,,['a'],0,[0.15100315107792994],2018_Jul_09_1143,60.051961806,go-nogo,001,10,
logos/3.jpg,properties3.xlsx,logos/3.jpg,0,0,400,a,0,0,0,2,0,83,83,84,,,['a'],0,[0.5339857356684661],2018_Jul_09_1143,60.051961806,go-nogo,001,10,
logos/3.jpg,properties3.xlsx,frogs/ab24.jpg,0,0,400,l,0,0,0,2,0,84,84,23,,,['l'],0,[2.466344789058894],2018_Jul_09_1143,60.051961806,go-nogo,001,10,
logos/3.jpg,properties3.xlsx,frogs/ab48.jpg,0,0,400,l,0,0,0,2,0,85,85,47,,,['a'],0,[0.7680888332133691],2018_Jul_09_1143,60.051961806,go-nogo,001,10,
logos/3.jpg,properties3.xlsx,frogs/ab46.jpg,0,0,400,l,0,0,0,2,0,86,86,45,,,['a'],0,[1.3340359117109983],2018_Jul_09_1143,60.051961806,go-nogo,001,10,
logos/3.jpg,properties3.xlsx,frogs/ab69.jpg,0,0,400,l,0,0,0,2,0,87,87,67,,,['a'],0,[5.032023920660322],2018_Jul_09_1143,60.051961806,go-nogo,001,10,
logos/3.jpg,properties3.xlsx,frogs/ab41.jpg,0,0,400,l,0,0,0,2,0,88,88,40,,,['l'],0,[1.133996203231618],2018_Jul_09_1143,60.051961806,go-nogo,001,10,
logos/3.jpg,properties3.xlsx,frogs/ab35.jpg,0,0,400,l,0,0,0,2,0,89,89,34,,,['a'],0,[0.2838769355748809],2018_Jul_09_1143,60.051961806,go-nogo,001,10,
logos/3.jpg,properties3.xlsx,,,,,,0,0,0,2,,,,,,,,,,2018_Jul_09_1143,60.051961806,go-nogo,001,10,
logos/1.jpg,properties1.xlsx,frogs/ab31.jpg,0,0,400,l,0,1,1,0,0,0,0,30,space,11.7318261178,['l'],0,[0.9840676841822642],2018_Jul_09_1143,60.051961806,go-nogo,001,10,
logos/1.jpg,properties1.xlsx,frogs/ab52.jpg,0,0,400,l,0,1,1,0,0,1,1,51,,,['a'],0,[2.000202524616725],2018_Jul_09_1143,60.051961806,go-nogo,001,10,
logos/1.jpg,properties1.xlsx,frogs/ab28.jpg,0,0,400,l,0,1,1,0,0,2,2,27,,,['a'],0,[13.00988786621565],2018_Jul_09_1143,60.051961806,go-nogo,001,10,
logos/1.jpg,properties1.xlsx,frogs/ab34.jpg,0,0,400,l,0,1,1,0,0,3,3,33,,,['l'],0,[0.13420441674406902],2018_Jul_09_1143,60.051961806,go-nogo,001,10,
logos/1.jpg,properties1.xlsx,frogs/ab16.jpg,0,0,400,l,0,1,1,0,0,4,4,15,,,['a'],0,[0.36750822471822175],2018_Jul_09_1143,60.051961806,go-nogo,001,10,
logos/1.jpg,properties1.xlsx,frogs/ab54.jpg,0,0,400,l,0,1,1,0,0,5,5,53,,,['l'],0,[1.7335777282087292],2018_Jul_09_1143,60.051961806,go-nogo,001,10,
logos/1.jpg,properties1.xlsx,frogs/ab23.jpg,0,0,400,l,0,1,1,0,0,6,6,22,,,['a'],0,[2.5994609204281005],2018_Jul_09_1143,60.051961806,go-nogo,001,10,
logos/1.jpg,properties1.xlsx,frogs/ab81.jpg,0,0,400,l,0,1,1,0,0,7,7,79,,,['l'],0,[1.9501015751984596],2018_Jul_09_1143,60.051961806,go-nogo,001,10,
logos/1.jpg,properties1.xlsx,frogs/ab40.jpg,0,0,400,l,0,1,1,0,0,8,8,39,,,['l'],0,[0.717396807734076],2018_Jul_09_1143,60.051961806,go-nogo,001,10,
logos/1.jpg,properties1.xlsx,frogs/ab26.jpg,0,0,400,l,0,1,1,0,0,9,9,25,,,['l'],0,[0.13450820366870175],2018_Jul_09_1143,60.051961806,go-nogo,001,10,
logos/1.jpg,properties1.xlsx,logos/1.jpg,0,0,400,a,0,1,1,0,0,10,10,87,,,['a'],0,[0.4342702372441636],2018_Jul_09_1143,60.051961806,go-nogo,001,10,
logos/1.jpg,properties1.xlsx,frogs/ab71.jpg,0,0,400,l,0,1,1,0,0,11,11,69,,,['l'],0,[1.850140316564648],2018_Jul_09_1143,60.051961806,go-nogo,001,10,
logos/1.jpg,properties1.xlsx,frogs/ab22.jpg,0,0,400,l,0,1,1,0,0,12,12,21,,,['a'],0,[4.549024326278413],2018_Jul_09_1143,60.051961806,go-nogo,001,10,
logos/1.jpg,properties1.xlsx,frogs/ab38.jpg,0,0,400,l,0,1,1,0,0,13,13,37,,,['a'],0,[14.876322881129454],2018_Jul_09_1143,60.051961806,go-nogo,001,10,
logos/1.jpg,properties1.xlsx,frogs/ab79.jpg,0,0,400,l,0,1,1,0,0,14,14,77,,,['a'],0,[0.6502951682514322],2018_Jul_09_1143,60.051961806,go-nogo,001,10,
logos/1.jpg,properties1.xlsx,frogs/ab72.jpg,0,0,400,l,0,1,1,0,0,15,15,70,,,['a'],0,[0.8673861979477806],2018_Jul_09_1143,60.051961806,go-nogo,001,10,
logos/1.jpg,properties1.xlsx,logos/1.jpg,0,0,400,a,0,1,1,0,0,16,16,82,,,['a'],0,[2.083747342575407],2018_Jul_09_1143,60.051961806,go-nogo,001,10,
logos/1.jpg,properties1.xlsx,frogs/ab18.jpg,0,0,400,l,0,1,1,0,0,17,17,17,,,['a'],0,[2.3331484442869623],2018_Jul_09_1143,60.051961806,go-nogo,001,10,
logos/1.jpg,properties1.xlsx,frogs/ab58.jpg,0,0,400,l,0,1,1,0,0,18,18,57,,,['l'],0,[0.06787362236354966],2018_Jul_09_1143,60.051961806,go-nogo,001,10,
logos/1.jpg,properties1.xlsx,frogs/ab51.jpg,0,0,400,l,0,1,1,0,0,19,19,50,,,['a'],0,[2.266393258433709],2018_Jul_09_1143,60.051961806,go-nogo,001,10,
logos/1.jpg,properties1.xlsx,frogs/ab19.jpg,0,0,400,l,0,1,1,0,0,20,20,18,,,['a'],0,[0.9339348769572098],2018_Jul_09_1143,60.051961806,go-nogo,001,10,
logos/1.jpg,properties1.xlsx,frogs/ab32.jpg,0,0,400,l,0,1,1,0,0,21,21,31,,,['l'],0,[0.01768335731139814],2018_Jul_09_1143,60.051961806,go-nogo,001,10,
logos/1.jpg,properties1.xlsx,frogs/ab37.jpg,0,0,400,l,0,1,1,0,0,22,22,36,,,['l'],0,[1.5502371984248384],2018_Jul_09_1143,60.051961806,go-nogo,001,10,
logos/1.jpg,properties1.xlsx,frogs/ab80.jpg,0,0,400,l,0,1,1,0,0,23,23,78,,,['l'],0,[5.131803134693655],2018_Jul_09_1143,60.051961806,go-nogo,001,10,
logos/1.jpg,properties1.xlsx,frogs/ab9.jpg,0,0,400,l,0,1,1,0,0,24,24,8,,,['l'],0,[0.2341133375548452],2018_Jul_09_1143,60.051961806,go-nogo,001,10,
logos/1.jpg,properties1.xlsx,logos/1.jpg,0,0,400,a,0,1,1,0,0,25,25,89,,,['a'],0,[0.31762459103993024],2018_Jul_09_1143,60.051961806,go-nogo,001,10,
logos/1.jpg,properties1.xlsx,logos/1.jpg,0,0,400,a,0,1,1,0,0,26,26,83,,,['l'],0,[3.033508721927319],2018_Jul_09_1143,60.051961806,go-nogo,001,10,
logos/1.jpg,properties1.xlsx,frogs/ab10.jpg,0,0,400,l,0,1,1,0,0,27,27,9,,,['l'],0,[1.2672118902428338],2018_Jul_09_1143,60.051961806,go-nogo,001,10,
logos/1.jpg,properties1.xlsx,frogs/ab33.jpg,0,0,400,l,0,1,1,0,0,28,28,32,,,['l'],0,[1.017228814702321],2018_Jul_09_1143,60.051961806,go-nogo,001,10,
logos/1.jpg,properties1.xlsx,frogs/ab6.jpg,0,0,400,l,0,1,1,0,0,29,29,5,,,['l'],0,[2.283165823856507],2018_Jul_09_1143,60.051961806,go-nogo,001,10,
logos/1.jpg,properties1.xlsx,frogs/ab75.jpg,0,0,400,l,0,1,1,0,0,30,30,73,,,['l'],0,[1.2005061977652076],2018_Jul_09_1143,60.051961806,go-nogo,001,10,
logos/1.jpg,properties1.xlsx,frogs/ab5.jpg,0,0,400,l,0,1,1,0,0,31,31,4,,,['l'],0,[1.0841489784734222],2018_Jul_09_1143,60.051961806,go-nogo,001,10,
logos/1.jpg,properties1.xlsx,frogs/ab1.jpg,0,0,400,l,0,1,1,0,0,32,32,0,,,['l'],0,[0.20096813593772822],2018_Jul_09_1143,60.051961806,go-nogo,001,10,
logos/1.jpg,properties1.xlsx,frogs/ab8.jpg,0,0,400,l,0,1,1,0,0,33,33,7,,,['l'],0,[1.3326330305135343],2018_Jul_09_1143,60.051961806,go-nogo,001,10,
logos/1.jpg,properties1.xlsx,frogs/ab78.jpg,0,0,400,l,0,1,1,0,0,34,34,76,,,['l'],0,[0.9671864608881151],2018_Jul_09_1143,60.051961806,go-nogo,001,10,
logos/1.jpg,properties1.xlsx,frogs/ab41.jpg,0,0,400,l,0,1,1,0,0,35,35,40,,,['l'],0,[0.04533820757751528],2018_Jul_09_1143,60.051961806,go-nogo,001,10,
logos/1.jpg,properties1.xlsx,frogs/ab66.jpg,0,0,400,l,0,1,1,0,0,36,36,64,,,['l'],0,[0.8012272081587071],2018_Jul_09_1143,60.051961806,go-nogo,001,10,
logos/1.jpg,properties1.xlsx,logos/1.jpg,0,0,400,a,0,1,1,0,0,37,37,86,,,['a'],0,[0.0011548454303920153],2018_Jul_09_1143,60.051961806,go-nogo,001,10,
logos/1.jpg,properties1.xlsx,frogs/ab68.jpg,0,0,400,l,0,1,1,0,0,38,38,66,,,['l'],0,[0.7013581096034613],2018_Jul_09_1143,60.051961806,go-nogo,001,10,
logos/1.jpg,properties1.xlsx,frogs/ab4.jpg,0,0,400,l,0,1,1,0,0,39,39,3,,,['l'],0,[0.9338319079815847],2018_Jul_09_1143,60.051961806,go-nogo,001,10,
logos/1.jpg,properties1.xlsx,frogs/ab47.jpg,0,0,400,l,0,1,1,0,0,40,40,46,,,['l'],0,[8.380505640254341],2018_Jul_09_1143,60.051961806,go-nogo,001,10,
logos/1.jpg,properties1.xlsx,logos/1.jpg,0,0,400,a,0,1,1,0,0,41,41,80,,,['l'],0,[2.0858840910659637],2018_Jul_09_1143,60.051961806,go-nogo,001,10,
logos/1.jpg,properties1.xlsx,frogs/ab14.jpg,0,0,400,l,0,1,1,0,0,42,42,13,,,['l'],0,[0.7506148271913844],2018_Jul_09_1143,60.051961806,go-nogo,001,10,
logos/1.jpg,properties1.xlsx,frogs/ab36.jpg,0,0,400,l,0,1,1,0,0,43,43,35,,,['a'],0,[0.08361251579390228],2018_Jul_09_1143,60.051961806,go-nogo,001,10,
logos/1.jpg,properties1.xlsx,frogs/ab48.jpg,0,0,400,l,0,1,1,0,0,44,44,47,,,['l'],0,[0.634080683305001],2018_Jul_09_1143,60.051961806,go-nogo,001,10,
logos/1.jpg,properties1.xlsx,frogs/ab69.jpg,0,0,400,l,0,1,1,0,0,45,45,67,,,['l'],0,[5.414736282797094],2018_Jul_09_1143,60.051961806,go-nogo,001,10,
logos/1.jpg,properties1.xlsx,frogs/ab2.jpg,0,0,400,l,0,1,1,0,0,46,46,1,,,['a'],0,[0.1174045446296077],2018_Jul_09_1143,60.051961806,go-nogo,001,10,
logos/1.jpg,properties1.xlsx,frogs/ab27.jpg,0,0,400,l,0,1,1,0,0,47,47,26,,,['l'],0,[0.4179408366426287],2018_Jul_09_1143,60.051961806,go-nogo,001,10,
logos/1.jpg,properties1.xlsx,logos/1.jpg,0,0,400,a,0,1,1,0,0,48,48,84,,,['a'],0,[0.1345975193016784],2018_Jul_09_1143,60.051961806,go-nogo,001,10,
logos/1.jpg,properties1.xlsx,frogs/ab24.jpg,0,0,400,l,0,1,1,0,0,49,49,23,,,['l'],0,[0.6008217038115617],2018_Jul_09_1143,60.051961806,go-nogo,001,10,
logos/1.jpg,properties1.xlsx,frogs/ab7.jpg,0,0,400,l,0,1,1,0,0,50,50,6,,,['l'],0,[0.783478428568742],2018_Jul_09_1143,60.051961806,go-nogo,001,10,
logos/1.jpg,properties1.xlsx,logos/1.jpg,0,0,400,a,0,1,1,0,0,51,51,88,,,['a'],0,[0.0011190053992322646],2018_Jul_09_1143,60.051961806,go-nogo,001,10,
logos/1.jpg,properties1.xlsx,frogs/ab74.jpg,0,0,400,l,0,1,1,0,0,52,52,72,,,['l'],0,[2.1001956410555067],2018_Jul_09_1143,60.051961806,go-nogo,001,10,
logos/1.jpg,properties1.xlsx,frogs/ab46.jpg,0,0,400,l,0,1,1,0,0,53,53,45,,,['a'],0,[1.6167562951877699],2018_Jul_09_1143,60.051961806,go-nogo,001,10,
logos/1.jpg,properties1.xlsx,frogs/ab12.jpg,0,0,400,l,0,1,1,0,0,54,54,11,,,['l'],0,[0.0015348635315604042],2018_Jul_09_1143,60.051961806,go-nogo,001,10,
logos/1.jpg,properties1.xlsx,frogs/ab44.jpg,0,0,400,l,0,1,1,0,0,55,55,43,,,['a'],0,[0.9670482207702662],2018_Jul_09_1143,60.051961806,go-nogo,001,10,
logos/1.jpg,properties1.xlsx,frogs/ab3.jpg,0,0,400,l,0,1,1,0,0,56,56,2,,,['a'],0,[0.01779656629787496],2018_Jul_09_1143,60.051961806,go-nogo,001,10,
logos/1.jpg,properties1.xlsx,frogs/ab55.jpg,0,0,400,l,0,1,1,0,0,57,57,54,,,['a'],0,[0.8505618635908831],2018_Jul_09_1143,60.051961806,go-nogo,001,10,
logos/1.jpg,properties1.xlsx,frogs/ab73.jpg,0,0,400,l,0,1,1,0,0,58,58,71,,,['a'],0,[0.7337751328213926],2018_Jul_09_1143,60.051961806,go-nogo,001,10,
logos/1.jpg,properties1.xlsx,frogs/ab53.jpg,0,0,400,l,0,1,1,0,0,59,59,52,,,['a'],0,[0.1508142798056724],2018_Jul_09_1143,60.051961806,go-nogo,001,10,
logos/1.jpg,properties1.xlsx,frogs/ab67.jpg,0,0,400,l,0,1,1,0,0,60,60,65,,,['l'],0,[0.9826301007333313],2018_Jul_09_1143,60.051961806,go-nogo,001,10,
logos/1.jpg,properties1.xlsx,frogs/ab25.jpg,0,0,400,l,0,1,1,0,0,61,61,24,,,['l'],0,[0.8008739278566281],2018_Jul_09_1143,60.051961806,go-nogo,001,10,
logos/1.jpg,properties1.xlsx,frogs/ab20.jpg,0,0,400,l,0,1,1,0,0,62,62,19,,,['l'],0,[0.017592903901459067],2018_Jul_09_1143,60.051961806,go-nogo,001,10,
logos/1.jpg,properties1.xlsx,frogs/ab56.jpg,0,0,400,l,0,1,1,0,0,63,63,55,,,['a'],0,[0.41786972547106416],2018_Jul_09_1143,60.051961806,go-nogo,001,10,
logos/1.jpg,properties1.xlsx,frogs/ab76.jpg,0,0,400,l,0,1,1,0,0,64,64,74,,,['l'],0,[3.049614549004218],2018_Jul_09_1143,60.051961806,go-nogo,001,10,
logos/1.jpg,properties1.xlsx,frogs/ab64.jpg,0,0,400,l,0,1,1,0,0,65,65,62,,,['l'],0,[0.08423658743686246],2018_Jul_09_1143,60.051961806,go-nogo,001,10,
logos/1.jpg,properties1.xlsx,frogs/ab29.jpg,0,0,400,l,0,1,1,0,0,66,66,28,,,['l'],0,[0.6170691843435634],2018_Jul_09_1143,60.051961806,go-nogo,001,10,
logos/1.jpg,properties1.xlsx,frogs/ab15.jpg,0,0,400,l,0,1,1,0,0,67,67,14,,,['l'],0,[3.9650497123975583],2018_Jul_09_1143,60.051961806,go-nogo,001,10,
logos/1.jpg,properties1.xlsx,frogs/ab70.jpg,0,0,400,l,0,1,1,0,0,68,68,68,,,['l'],0,[0.13456964372198854],2018_Jul_09_1143,60.051961806,go-nogo,001,10,
logos/1.jpg,properties1.xlsx,frogs/ab63.jpg,0,0,400,l,0,1,1,0,0,69,69,61,,,['l'],0,[1.5667025635857499],2018_Jul_09_1143,60.051961806,go-nogo,001,10,
logos/1.jpg,properties1.xlsx,frogs/ab43.jpg,0,0,400,l,0,1,1,0,0,70,70,42,,,['l'],0,[1.2337913461678909],2018_Jul_09_1143,60.051961806,go-nogo,001,10,
logos/1.jpg,properties1.xlsx,logos/1.jpg,0,0,400,a,0,1,1,0,0,71,71,85,,,['a'],0,[0.017592903901459067],2018_Jul_09_1143,60.051961806,go-nogo,001,10,
logos/1.jpg,properties1.xlsx,frogs/ab45.jpg,0,0,400,l,0,1,1,0,0,72,72,44,,,['a'],0,[0.08420643630051927],2018_Jul_09_1143,60.051961806,go-nogo,001,10,
logos/1.jpg,properties1.xlsx,frogs/ab61.jpg,0,0,400,l,0,1,1,0,0,73,73,59,,,['l'],0,[0.18440207735693548],2018_Jul_09_1143,60.051961806,go-nogo,001,10,
logos/1.jpg,properties1.xlsx,frogs/ab11.jpg,0,0,400,l,0,1,1,0,0,74,74,10,,,['a'],0,[2.0332743395047146],2018_Jul_09_1143,60.051961806,go-nogo,001,10,
logos/1.jpg,properties1.xlsx,frogs/ab49.jpg,0,0,400,l,0,1,1,0,0,75,75,48,,,['a'],0,[0.7682395888978135],2018_Jul_09_1143,60.051961806,go-nogo,001,10,
logos/1.jpg,properties1.xlsx,logos/1.jpg,0,0,400,a,0,1,1,0,0,76,76,81,,,['a'],0,[1.76773157068601],2018_Jul_09_1143,60.051961806,go-nogo,001,10,
logos/1.jpg,properties1.xlsx,frogs/ab35.jpg,0,0,400,l,0,1,1,0,0,77,77,34,,,['a'],0,[0.7340755064115001],2018_Jul_09_1143,60.051961806,go-nogo,001,10,
logos/1.jpg,properties1.xlsx,frogs/ab42.jpg,0,0,400,l,0,1,1,0,0,78,78,41,,,['a'],0,[0.10117583744704461],2018_Jul_09_1143,60.051961806,go-nogo,001,10,
logos/1.jpg,properties1.xlsx,frogs/ab60.jpg,0,0,400,l,0,1,1,0,0,79,79,58,,,['l'],0,[0.5177456506989984],2018_Jul_09_1143,60.051961806,go-nogo,001,10,
logos/1.jpg,properties1.xlsx,frogs/ab21.jpg,0,0,400,l,0,1,1,0,0,80,80,20,,,['l'],0,[0.5177484951454971],2018_Jul_09_1143,60.051961806,go-nogo,001,10,
logos/1.jpg,properties1.xlsx,frogs/ab77.jpg,0,0,400,l,0,1,1,0,0,81,81,75,,,['l'],0,[1.1840271792589192],2018_Jul_09_1143,60.051961806,go-nogo,001,10,
logos/1.jpg,properties1.xlsx,frogs/ab13.jpg,0,0,400,l,0,1,1,0,0,82,82,12,,,['l'],0,[0.8662467125304829],2018_Jul_09_1143,60.051961806,go-nogo,001,10,
logos/1.jpg,properties1.xlsx,frogs/ab57.jpg,0,0,400,l,0,1,1,0,0,83,83,56,,,['l'],0,[1.0337567576943911],2018_Jul_09_1143,60.051961806,go-nogo,001,10,
logos/1.jpg,properties1.xlsx,frogs/ab39.jpg,0,0,400,l,0,1,1,0,0,84,84,38,,,['l'],0,[0.4178492454539082],2018_Jul_09_1143,60.051961806,go-nogo,001,10,
logos/1.jpg,properties1.xlsx,frogs/ab30.jpg,0,0,400,l,0,1,1,0,0,85,85,29,,,['a'],0,[0.04066990137107496],2018_Jul_09_1143,60.051961806,go-nogo,001,10,
logos/1.jpg,properties1.xlsx,frogs/ab62.jpg,0,0,400,l,0,1,1,0,0,86,86,60,,,['l'],0,[4.281947262817084],2018_Jul_09_1143,60.051961806,go-nogo,001,10,
logos/1.jpg,properties1.xlsx,frogs/ab65.jpg,0,0,400,l,0,1,1,0,0,87,87,63,,,['l'],0,[0.5842118407499584],2018_Jul_09_1143,60.051961806,go-nogo,001,10,
logos/1.jpg,properties1.xlsx,frogs/ab17.jpg,0,0,400,l,0,1,1,0,0,88,88,16,,,['a'],0,[0.05094176791499194],2018_Jul_09_1143,60.051961806,go-nogo,001,10,
logos/1.jpg,properties1.xlsx,frogs/ab50.jpg,0,0,400,l,0,1,1,0,0,89,89,49,,,['l'],0,[0.3671902155583666],2018_Jul_09_1143,60.051961806,go-nogo,001,10,
logos/1.jpg,properties1.xlsx,,,,,,0,1,1,0,,,,,,,,,,2018_Jul_09_1143,60.051961806,go-nogo,001,10,
logos/2.jpg,properties2.xlsx,frogs/ab32.jpg,0,0,400,l,0,2,2,1,0,0,0,31,space,17.7787697312,['l'],0,[0.10069512592690444],2018_Jul_09_1143,60.051961806,go-nogo,001,10,
logos/2.jpg,properties2.xlsx,frogs/ab18.jpg,0,0,400,l,0,2,2,1,0,1,1,17,,,['l'],0,[1.6002778455704174],2018_Jul_09_1143,60.051961806,go-nogo,001,10,
logos/2.jpg,properties2.xlsx,frogs/ab58.jpg,0,0,400,l,0,2,2,1,0,2,2,57,,,['l'],0,[0.06760567546825769],2018_Jul_09_1143,60.051961806,go-nogo,001,10,
logos/2.jpg,properties2.xlsx,logos/2.jpg,0,0,400,a,0,2,2,1,0,3,3,87,,,['a'],0,[0.18432641507024528],2018_Jul_09_1143,60.051961806,go-nogo,001,10,
logos/2.jpg,properties2.xlsx,frogs/ab71.jpg,0,0,400,l,0,2,2,1,0,4,4,69,,,['l'],0,[5.498445509784688],2018_Jul_09_1143,60.051961806,go-nogo,001,10,
logos/2.jpg,properties2.xlsx,frogs/ab6.jpg,0,0,400,l,0,2,2,1,0,5,5,5,,,['a'],0,[0.15245723231964803],2018_Jul_09_1143,60.051961806,go-nogo,001,10,
logos/2.jpg,properties2.xlsx,frogs/ab67.jpg,0,0,400,l,0,2,2,1,0,6,6,65,,,['l'],0,[0.4673813054987477],2018_Jul_09_1143,60.051961806,go-nogo,001,10,
logos/2.jpg,properties2.xlsx,frogs/ab80.jpg,0,0,400,l,0,2,2,1,0,7,7,78,,,['a'],0,[0.08437425866668491],2018_Jul_09_1143,60.051961806,go-nogo,001,10,
logos/2.jpg,properties2.xlsx,frogs/ab61.jpg,0,0,400,l,0,2,2,1,0,8,8,59,,,['l'],0,[0.15119600457637716],2018_Jul_09_1143,60.051961806,go-nogo,001,10,
logos/2.jpg,properties2.xlsx,frogs/ab77.jpg,0,0,400,l,0,2,2,1,0,9,9,75,,,['l'],0,[3.5328963125157316],2018_Jul_09_1143,60.051961806,go-nogo,001,10,
logos/2.jpg,properties2.xlsx,frogs/ab36.jpg,0,0,400,l,0,2,2,1,0,10,10,35,,,['l'],0,[3.5826508083064255],2018_Jul_09_1143,60.051961806,go-nogo,001,10,
logos/2.jpg,properties2.xlsx,frogs/ab79.jpg,0,0,400,l,0,2,2,1,0,11,11,77,,,['l'],0,[0.01765889506896201],2018_Jul_09_1143,60.051961806,go-nogo,001,10,
logos/2.jpg,properties2.xlsx,frogs/ab42.jpg,0,0,400,l,0,2,2,1,0,12,12,41,,,['a'],0,[1.7502962491416838],2018_Jul_09_1143,60.051961806,go-nogo,001,10,
logos/2.jpg,properties2.xlsx,frogs/ab65.jpg,0,0,400,l,0,2,2,1,0,13,13,63,,,['a'],0,[2.433691676750641],2018_Jul_09_1143,60.051961806,go-nogo,001,10,
logos/2.jpg,properties2.xlsx,frogs/ab81.jpg,0,0,400,l,0,2,2,1,0,14,14,79,,,['a'],0,[1.2341867242839726],2018_Jul_09_1143,60.051961806,go-nogo,001,10,
logos/2.jpg,properties2.xlsx,frogs/ab23.jpg,0,0,400,l,0,2,2,1,0,15,15,22,,,['l'],0,[0.001229938827236765],2018_Jul_09_1143,60.051961806,go-nogo,001,10,
logos/2.jpg,properties2.xlsx,frogs/ab34.jpg,0,0,400,l,0,2,2,1,0,16,16,33,,,['l'],0,[0.11767704263911583],2018_Jul_09_1143,60.051961806,go-nogo,001,10,
logos/2.jpg,properties2.xlsx,frogs/ab35.jpg,0,0,400,l,0,2,2,1,0,17,17,34,,,['a'],0,[1.0008425251635344],2018_Jul_09_1143,60.051961806,go-nogo,001,10,
logos/2.jpg,properties2.xlsx,frogs/ab13.jpg,0,0,400,l,0,2,2,1,0,18,18,12,,,['l'],0,[0.1675805874465368],2018_Jul_09_1143,60.051961806,go-nogo,001,10,
logos/2.jpg,properties2.xlsx,frogs/ab66.jpg,0,0,400,l,0,2,2,1,0,19,19,64,,,['a'],0,[2.432975445027296],2018_Jul_09_1143,60.051961806,go-nogo,001,10,
logos/2.jpg,properties2.xlsx,frogs/ab15.jpg,0,0,400,l,0,2,2,1,0,20,20,14,,,['a'],0,[1.4028925749134942],2018_Jul_09_1143,60.051961806,go-nogo,001,10,
logos/2.jpg,properties2.xlsx,frogs/ab8.jpg,0,0,400,l,0,2,2,1,0,21,21,7,,,['l'],0,[0.08450851655834413],2018_Jul_09_1143,60.051961806,go-nogo,001,10,
logos/2.jpg,properties2.xlsx,frogs/ab63.jpg,0,0,400,l,0,2,2,1,0,22,22,61,,,['l'],0,[0.1848037132549507],2018_Jul_09_1143,60.051961806,go-nogo,001,10,
logos/2.jpg,properties2.xlsx,logos/2.jpg,0,0,400,a,0,2,2,1,0,23,23,88,,,['a'],0,[0.21972157416166738],2018_Jul_09_1143,60.051961806,go-nogo,001,10,
logos/2.jpg,properties2.xlsx,frogs/ab11.jpg,0,0,400,l,0,2,2,1,0,24,24,10,,,['l'],0,[0.034696562941462616],2018_Jul_09_1143,60.051961806,go-nogo,001,10,
logos/2.jpg,properties2.xlsx,logos/2.jpg,0,0,400,a,0,2,2,1,0,25,25,84,,,['l'],0,[5.09842127509728],2018_Jul_09_1143,60.051961806,go-nogo,001,10,
logos/2.jpg,properties2.xlsx,frogs/ab28.jpg,0,0,400,l,0,2,2,1,0,26,26,27,,,['a'],0,[0.03415611803484353],2018_Jul_09_1143,60.051961806,go-nogo,001,10,
logos/2.jpg,properties2.xlsx,frogs/ab12.jpg,0,0,400,l,0,2,2,1,0,27,27,11,,,['l'],0,[0.03440870491795067],2018_Jul_09_1143,60.051961806,go-nogo,001,10,
logos/2.jpg,properties2.xlsx,frogs/ab56.jpg,0,0,400,l,0,2,2,1,0,28,28,55,,,['l'],0,[0.20061371785686788],2018_Jul_09_1143,60.051961806,go-nogo,001,10,
logos/2.jpg,properties2.xlsx,logos/2.jpg,0,0,400,a,0,2,2,1,0,29,29,82,,,['l'],0,[0.5841356095734227],2018_Jul_09_1143,60.051961806,go-nogo,001,10,
logos/2.jpg,properties2.xlsx,frogs/ab19.jpg,0,0,400,l,0,2,2,1,0,30,30,18,,,['l'],0,[0.05068178547116986],2018_Jul_09_1143,60.051961806,go-nogo,001,10,
logos/2.jpg,properties2.xlsx,frogs/ab7.jpg,0,0,400,l,0,2,2,1,0,31,31,6,,,['l'],0,[0.017504157159237366],2018_Jul_09_1143,60.051961806,go-nogo,001,10,
logos/2.jpg,properties2.xlsx,frogs/ab40.jpg,0,0,400,l,0,2,2,1,0,32,32,39,,,['a'],0,[0.0349303764742217],2018_Jul_09_1143,60.051961806,go-nogo,001,10,
logos/2.jpg,properties2.xlsx,frogs/ab4.jpg,0,0,400,l,0,2,2,1,0,33,33,3,,,['l'],0,[1.7671006723703613],2018_Jul_09_1143,60.051961806,go-nogo,001,10,
logos/2.jpg,properties2.xlsx,frogs/ab46.jpg,0,0,400,l,0,2,2,1,0,34,34,45,,,['a'],0,[0.08424170744183357],2018_Jul_09_1143,60.051961806,go-nogo,001,10,
logos/2.jpg,properties2.xlsx,frogs/ab64.jpg,0,0,400,l,0,2,2,1,0,35,35,62,,,['l'],0,[0.4837306172285025],2018_Jul_09_1143,60.051961806,go-nogo,001,10,
logos/2.jpg,properties2.xlsx,frogs/ab50.jpg,0,0,400,l,0,2,2,1,0,36,36,49,,,['l'],0,[0.06830825384531636],2018_Jul_09_1143,60.051961806,go-nogo,001,10,
logos/2.jpg,properties2.xlsx,frogs/ab3.jpg,0,0,400,l,0,2,2,1,0,37,37,2,,,['l'],0,[0.184154041588954],2018_Jul_09_1143,60.051961806,go-nogo,001,10,
logos/2.jpg,properties2.xlsx,frogs/ab25.jpg,0,0,400,l,0,2,2,1,0,38,38,24,,,['l'],0,[0.26802369538108906],2018_Jul_09_1143,60.051961806,go-nogo,001,10,
logos/2.jpg,properties2.xlsx,frogs/ab21.jpg,0,0,400,l,0,2,2,1,0,39,39,20,,,['l'],0,[0.31745847534239147],2018_Jul_09_1143,60.051961806,go-nogo,001,10,
logos/2.jpg,properties2.xlsx,frogs/ab14.jpg,0,0,400,l,0,2,2,1,0,40,40,13,,,['l'],0,[0.584007040574761],2018_Jul_09_1143,60.051961806,go-nogo,001,10,
logos/2.jpg,properties2.xlsx,frogs/ab26.jpg,0,0,400,l,0,2,2,1,0,41,41,25,,,['l'],0,[1.150918386561898],2018_Jul_09_1143,60.051961806,go-nogo,001,10,
logos/2.jpg,properties2.xlsx,frogs/ab49.jpg,0,0,400,l,0,2,2,1,0,42,42,48,,,['l'],0,[0.9837815328264696],2018_Jul_09_1143,60.051961806,go-nogo,001,10,
logos/2.jpg,properties2.xlsx,frogs/ab22.jpg,0,0,400,l,0,2,2,1,0,43,43,21,,,['l'],0,[0.9830271855162209],2018_Jul_09_1143,60.051961806,go-nogo,001,10,
logos/2.jpg,properties2.xlsx,frogs/ab47.jpg,0,0,400,l,0,2,2,1,0,44,44,46,,,['l'],0,[0.8675227313970026],2018_Jul_09_1143,60.051961806,go-nogo,001,10,
logos/2.jpg,properties2.xlsx,frogs/ab68.jpg,0,0,400,l,0,2,2,1,0,45,45,66,,,['l'],0,[0.5167216498239213],2018_Jul_09_1143,60.051961806,go-nogo,001,10,
logos/2.jpg,properties2.xlsx,frogs/ab29.jpg,0,0,400,l,0,2,2,1,0,46,46,28,,,['l'],0,[0.46752637228928506],2018_Jul_09_1143,60.051961806,go-nogo,001,10,
logos/2.jpg,properties2.xlsx,frogs/ab17.jpg,0,0,400,l,0,2,2,1,0,47,47,16,,,['l'],0,[1.1503898883329384],2018_Jul_09_1143,60.051961806,go-nogo,001,10,
logos/2.jpg,properties2.xlsx,logos/2.jpg,0,0,400,a,0,2,2,1,0,48,48,80,,,['a'],0,[0.05698678640601429],2018_Jul_09_1143,60.051961806,go-nogo,001,10,
logos/2.jpg,properties2.xlsx,frogs/ab31.jpg,0,0,400,l,0,2,2,1,0,49,49,30,,,['l'],0,[0.41737365393692016],2018_Jul_09_1143,60.051961806,go-nogo,001,10,
logos/2.jpg,properties2.xlsx,frogs/ab55.jpg,0,0,400,l,0,2,2,1,0,50,50,54,,,['l'],0,[0.8345089432259556],2018_Jul_09_1143,60.051961806,go-nogo,001,10,
logos/2.jpg,properties2.xlsx,frogs/ab9.jpg,0,0,400,l,0,2,2,1,0,51,51,8,,,['a'],0,[0.13480459503352904],2018_Jul_09_1143,60.051961806,go-nogo,001,10,
logos/2.jpg,properties2.xlsx,logos/2.jpg,0,0,400,a,0,2,2,1,0,52,52,85,,,['l'],0,[0.6009610817091016],2018_Jul_09_1143,60.051961806,go-nogo,001,10,
logos/2.jpg,properties2.xlsx,frogs/ab53.jpg,0,0,400,l,0,2,2,1,0,53,53,52,,,['a'],0,[0.050916167892864905],2018_Jul_09_1143,60.051961806,go-nogo,001,10,
logos/2.jpg,properties2.xlsx,logos/2.jpg,0,0,400,a,0,2,2,1,0,54,54,81,,,['a'],0,[0.2177321680201203],2018_Jul_09_1143,60.051961806,go-nogo,001,10,
logos/2.jpg,properties2.xlsx,frogs/ab10.jpg,0,0,400,l,0,2,2,1,0,55,55,9,,,['l'],0,[0.41801308559388417],2018_Jul_09_1143,60.051961806,go-nogo,001,10,
logos/2.jpg,properties2.xlsx,frogs/ab39.jpg,0,0,400,l,0,2,2,1,0,56,56,38,,,['a'],0,[0.10124410417301988],2018_Jul_09_1143,60.051961806,go-nogo,001,10,
logos/2.jpg,properties2.xlsx,frogs/ab51.jpg,0,0,400,l,0,2,2,1,0,57,57,50,,,['l'],0,[0.45097681150036806],2018_Jul_09_1143,60.051961806,go-nogo,001,10,
logos/2.jpg,properties2.xlsx,frogs/ab60.jpg,0,0,400,l,0,2,2,1,0,58,58,58,,,['a'],0,[0.001104783164919354],2018_Jul_09_1143,60.051961806,go-nogo,001,10,
logos/2.jpg,properties2.xlsx,frogs/ab37.jpg,0,0,400,l,0,2,2,1,0,59,59,36,,,['l'],0,[0.4673039365443401],2018_Jul_09_1143,60.051961806,go-nogo,001,10,
logos/2.jpg,properties2.xlsx,frogs/ab24.jpg,0,0,400,l,0,2,2,1,0,60,60,23,,,['a'],0,[0.1344188880375441],2018_Jul_09_1143,60.051961806,go-nogo,001,10,
logos/2.jpg,properties2.xlsx,frogs/ab33.jpg,0,0,400,l,0,2,2,1,0,61,61,32,,,['l'],0,[0.4176461519464283],2018_Jul_09_1143,60.051961806,go-nogo,001,10,
logos/2.jpg,properties2.xlsx,frogs/ab70.jpg,0,0,400,l,0,2,2,1,0,62,62,68,,,['l'],0,[0.05154592842973216],2018_Jul_09_1143,60.051961806,go-nogo,001,10,
logos/2.jpg,properties2.xlsx,frogs/ab45.jpg,0,0,400,l,0,2,2,1,0,63,63,44,,,['a'],0,[0.06933396138720127],2018_Jul_09_1143,60.051961806,go-nogo,001,10,
logos/2.jpg,properties2.xlsx,frogs/ab75.jpg,0,0,400,l,0,2,2,1,0,64,64,73,,,['l'],0,[1.3004629052838936],2018_Jul_09_1143,60.051961806,go-nogo,001,10,
logos/2.jpg,properties2.xlsx,frogs/ab73.jpg,0,0,400,l,0,2,2,1,0,65,65,71,,,['a'],0,[1.199477645776824],2018_Jul_09_1143,60.051961806,go-nogo,001,10,
logos/2.jpg,properties2.xlsx,logos/2.jpg,0,0,400,a,0,2,2,1,0,66,66,86,,,['a'],0,[0.31807970253885287],2018_Jul_09_1143,60.051961806,go-nogo,001,10,
logos/2.jpg,properties2.xlsx,frogs/ab57.jpg,0,0,400,l,0,2,2,1,0,67,67,56,,,['a'],0,[0.20069848237380938],2018_Jul_09_1143,60.051961806,go-nogo,001,10,
logos/2.jpg,properties2.xlsx,frogs/ab20.jpg,0,0,400,l,0,2,2,1,0,68,68,19,,,['l'],0,[0.5510819991459357],2018_Jul_09_1143,60.051961806,go-nogo,001,10,
logos/2.jpg,properties2.xlsx,frogs/ab5.jpg,0,0,400,l,0,2,2,1,0,69,69,4,,,['a'],0,[0.15087628874789516],2018_Jul_09_1143,60.051961806,go-nogo,001,10,
logos/2.jpg,properties2.xlsx,frogs/ab43.jpg,0,0,400,l,0,2,2,1,0,70,70,42,,,['l'],0,[1.749068016983074],2018_Jul_09_1143,60.051961806,go-nogo,001,10,
logos/2.jpg,properties2.xlsx,frogs/ab48.jpg,0,0,400,l,0,2,2,1,0,71,71,47,,,['l'],0,[1.1171627666453787],2018_Jul_09_1143,60.051961806,go-nogo,001,10,
logos/2.jpg,properties2.xlsx,frogs/ab1.jpg,0,0,400,l,0,2,2,1,0,72,72,0,,,['l'],0,[0.96730535876668],2018_Jul_09_1143,60.051961806,go-nogo,001,10,
logos/2.jpg,properties2.xlsx,frogs/ab16.jpg,0,0,400,l,0,2,2,1,0,73,73,15,,,['l'],0,[1.1840630192891695],2018_Jul_09_1143,60.051961806,go-nogo,001,10,
logos/2.jpg,properties2.xlsx,logos/2.jpg,0,0,400,a,0,2,2,1,0,74,74,83,,,['a'],0,[0.11767192263596371],2018_Jul_09_1143,60.051961806,go-nogo,001,10,
logos/2.jpg,properties2.xlsx,frogs/ab72.jpg,0,0,400,l,0,2,2,1,0,75,75,70,,,['l'],0,[1.1341475278059079],2018_Jul_09_1143,60.051961806,go-nogo,001,10,
logos/2.jpg,properties2.xlsx,logos/2.jpg,0,0,400,a,0,2,2,1,0,76,76,89,,,['a'],0,[0.050841643384956114],2018_Jul_09_1143,60.051961806,go-nogo,001,10,
logos/2.jpg,properties2.xlsx,frogs/ab62.jpg,0,0,400,l,0,2,2,1,0,77,77,60,,,['l'],0,[0.2676305928225702],2018_Jul_09_1143,60.051961806,go-nogo,001,10,
logos/2.jpg,properties2.xlsx,frogs/ab30.jpg,0,0,400,l,0,2,2,1,0,78,78,29,,,['a'],0,[0.13455769704432896],2018_Jul_09_1143,60.051961806,go-nogo,001,10,
logos/2.jpg,properties2.xlsx,frogs/ab78.jpg,0,0,400,l,0,2,2,1,0,79,79,76,,,['l'],0,[1.2170261763067174],2018_Jul_09_1143,60.051961806,go-nogo,001,10,
logos/2.jpg,properties2.xlsx,frogs/ab38.jpg,0,0,400,l,0,2,2,1,0,80,80,37,,,['l'],0,[3.2484999809421424],2018_Jul_09_1143,60.051961806,go-nogo,001,10,
logos/2.jpg,properties2.xlsx,frogs/ab27.jpg,0,0,400,l,0,2,2,1,0,81,81,26,,,['a'],0,[0.8669134508772913],2018_Jul_09_1143,60.051961806,go-nogo,001,10,
logos/2.jpg,properties2.xlsx,frogs/ab74.jpg,0,0,400,l,0,2,2,1,0,82,82,72,,,['l'],0,[0.033916615609086875],2018_Jul_09_1143,60.051961806,go-nogo,001,10,
logos/2.jpg,properties2.xlsx,frogs/ab52.jpg,0,0,400,l,0,2,2,1,0,83,83,51,,,['a'],0,[0.1342738212470067],2018_Jul_09_1143,60.051961806,go-nogo,001,10,
logos/2.jpg,properties2.xlsx,frogs/ab54.jpg,0,0,400,l,0,2,2,1,0,84,84,53,,,['l'],0,[1.183828067977629],2018_Jul_09_1143,60.051961806,go-nogo,001,10,
logos/2.jpg,properties2.xlsx,frogs/ab69.jpg,0,0,400,l,0,2,2,1,0,85,85,67,,,['l'],0,[0.08516615267581074],2018_Jul_09_1143,60.051961806,go-nogo,001,10,
logos/2.jpg,properties2.xlsx,frogs/ab44.jpg,0,0,400,l,0,2,2,1,0,86,86,43,,,['l'],0,[0.36781087386589206],2018_Jul_09_1143,60.051961806,go-nogo,001,10,
logos/2.jpg,properties2.xlsx,frogs/ab2.jpg,0,0,400,l,0,2,2,1,0,87,87,1,,,['l'],0,[0.18483613994885673],2018_Jul_09_1143,60.051961806,go-nogo,001,10,
logos/2.jpg,properties2.xlsx,frogs/ab41.jpg,0,0,400,l,0,2,2,1,0,88,88,40,,,['l'],0,[3.9822364292858765],2018_Jul_09_1143,60.051961806,go-nogo,001,10,
logos/2.jpg,properties2.xlsx,frogs/ab76.jpg,0,0,400,l,0,2,2,1,0,89,89,74,,,['l'],0,[1.4669546384675414],2018_Jul_09_1143,60.051961806,go-nogo,001,10,
logos/2.jpg,properties2.xlsx,,,,,,0,2,2,1,,,,,,,,,,2018_Jul_09_1143,60.051961806,go-nogo,001,10,
logos/4.jpg,properties4.xlsx,frogs/ab21.jpg,0,0,400,l,0,3,3,3,0,0,0,20,space,39.2060067891,['l'],0,[0.234507577891236],2018_Jul_09_1143,60.051961806,go-nogo,001,10,
logos/4.jpg,properties4.xlsx,logos/4.jpg,0,0,400,a,0,3,3,3,0,1,1,81,,,['a'],0,[0.051003776856305194],2018_Jul_09_1143,60.051961806,go-nogo,001,10,
logos/4.jpg,properties4.xlsx,frogs/ab20.jpg,0,0,400,l,0,3,3,3,0,2,2,19,,,['l'],0,[0.13435289687004115],2018_Jul_09_1143,60.051961806,go-nogo,001,10,
logos/4.jpg,properties4.xlsx,frogs/ab49.jpg,0,0,400,l,0,3,3,3,0,3,3,48,,,['a'],0,[0.16784625878426596],2018_Jul_09_1143,60.051961806,go-nogo,001,10,
logos/4.jpg,properties4.xlsx,frogs/ab54.jpg,0,0,400,l,0,3,3,3,0,4,4,53,,,['l'],0,[0.6829226805384678],2018_Jul_09_1143,60.051961806,go-nogo,001,10,
logos/4.jpg,properties4.xlsx,frogs/ab48.jpg,0,0,400,l,0,3,3,3,0,5,5,47,,,['l'],0,[0.10082540159328346],2018_Jul_09_1143,60.051961806,go-nogo,001,10,
logos/4.jpg,properties4.xlsx,frogs/ab44.jpg,0,0,400,l,0,3,3,3,0,6,6,43,,,['l'],0,[1.8002868340226996],2018_Jul_09_1143,60.051961806,go-nogo,001,10,
logos/4.jpg,properties4.xlsx,frogs/ab75.jpg,0,0,400,l,0,3,3,3,0,7,7,73,,,['a'],0,[0.017909775283442286],2018_Jul_09_1143,60.051961806,go-nogo,001,10,
logos/4.jpg,properties4.xlsx,frogs/ab12.jpg,0,0,400,l,0,3,3,3,0,8,8,11,,,['l'],0,[0.03428241147685185],2018_Jul_09_1143,60.051961806,go-nogo,001,10,
logos/4.jpg,properties4.xlsx,frogs/ab14.jpg,0,0,400,l,0,3,3,3,0,9,9,13,,,['l'],0,[0.9836381727045591],2018_Jul_09_1143,60.051961806,go-nogo,001,10,
logos/4.jpg,properties4.xlsx,frogs/ab77.jpg,0,0,400,l,0,3,3,3,0,10,10,75,,,['l'],0,[0.017642397277086275],2018_Jul_09_1143,60.051961806,go-nogo,001,10,
logos/4.jpg,properties4.xlsx,frogs/ab63.jpg,0,0,400,l,0,3,3,3,0,11,11,61,,,['l'],0,[0.8006509232218377],2018_Jul_09_1143,60.051961806,go-nogo,001,10,
logos/4.jpg,properties4.xlsx,frogs/ab5.jpg,0,0,400,l,0,3,3,3,0,12,12,4,,,['a'],0,[0.0011036453861379414],2018_Jul_09_1143,60.051961806,go-nogo,001,10,
logos/4.jpg,properties4.xlsx,frogs/ab10.jpg,0,0,400,l,0,3,3,3,0,13,13,9,,,['l'],0,[0.0011155920637975214],2018_Jul_09_1143,60.051961806,go-nogo,001,10,
logos/4.jpg,properties4.xlsx,frogs/ab28.jpg,0,0,400,l,0,3,3,3,0,14,14,27,,,['a'],0,[0.2512346321645964],2018_Jul_09_1143,60.051961806,go-nogo,001,10,
logos/4.jpg,properties4.xlsx,frogs/ab57.jpg,0,0,400,l,0,3,3,3,0,15,15,56,,,['l'],0,[1.3502862366885893],2018_Jul_09_1143,60.051961806,go-nogo,001,10,
logos/4.jpg,properties4.xlsx,frogs/ab6.jpg,0,0,400,l,0,3,3,3,0,16,16,5,,,['a'],0,[0.15104468000299676],2018_Jul_09_1143,60.051961806,go-nogo,001,10,
logos/4.jpg,properties4.xlsx,frogs/ab60.jpg,0,0,400,l,0,3,3,3,0,17,17,58,,,['l'],0,[5.1983796892836835],2018_Jul_09_1143,60.051961806,go-nogo,001,10,
logos/4.jpg,properties4.xlsx,frogs/ab1.jpg,0,0,400,l,0,3,3,3,0,18,18,0,,,['l'],0,[1.066147612002169],2018_Jul_09_1143,60.051961806,go-nogo,001,10,
logos/4.jpg,properties4.xlsx,logos/4.jpg,0,0,400,a,0,3,3,3,0,19,19,89,,,['a'],0,[0.03455547837620543],2018_Jul_09_1143,60.051961806,go-nogo,001,10,
logos/4.jpg,properties4.xlsx,frogs/ab66.jpg,0,0,400,l,0,3,3,3,0,20,20,64,,,['l'],0,[0.1011746996691727],2018_Jul_09_1143,60.051961806,go-nogo,001,10,
logos/4.jpg,properties4.xlsx,frogs/ab35.jpg,0,0,400,l,0,3,3,3,0,21,21,34,,,['l'],0,[1.3671947666734923],2018_Jul_09_1143,60.051961806,go-nogo,001,10,
logos/4.jpg,properties4.xlsx,frogs/ab79.jpg,0,0,400,l,0,3,3,3,0,22,22,77,,,['l'],0,[0.06692471488713636],2018_Jul_09_1143,60.051961806,go-nogo,001,10,
logos/4.jpg,properties4.xlsx,frogs/ab8.jpg,0,0,400,l,0,3,3,3,0,23,23,7,,,['l'],0,[0.03436603821501194],2018_Jul_09_1143,60.051961806,go-nogo,001,10,
logos/4.jpg,properties4.xlsx,frogs/ab15.jpg,0,0,400,l,0,3,3,3,0,24,24,14,,,['l'],0,[1.9328494360315744],2018_Jul_09_1143,60.051961806,go-nogo,001,10,
logos/4.jpg,properties4.xlsx,frogs/ab18.jpg,0,0,400,l,0,3,3,3,0,25,25,17,,,['l'],0,[1.8667461974009711],2018_Jul_09_1143,60.051961806,go-nogo,001,10,
logos/4.jpg,properties4.xlsx,logos/4.jpg,0,0,400,a,0,3,3,3,0,26,26,85,,,['a'],0,[0.08442090759490384],2018_Jul_09_1143,60.051961806,go-nogo,001,10,
logos/4.jpg,properties4.xlsx,frogs/ab64.jpg,0,0,400,l,0,3,3,3,0,27,27,62,,,['l'],0,[0.8671899311138986],2018_Jul_09_1143,60.051961806,go-nogo,001,10,
logos/4.jpg,properties4.xlsx,logos/4.jpg,0,0,400,a,0,3,3,3,0,28,28,88,,,['a'],0,[0.1346003637481772],2018_Jul_09_1143,60.051961806,go-nogo,001,10,
logos/4.jpg,properties4.xlsx,frogs/ab58.jpg,0,0,400,l,0,3,3,3,0,29,29,57,,,['l'],0,[0.26763855727404007],2018_Jul_09_1143,60.051961806,go-nogo,001,10,
logos/4.jpg,properties4.xlsx,frogs/ab23.jpg,0,0,400,l,0,3,3,3,0,30,30,22,,,['l'],0,[3.598826608777017],2018_Jul_09_1143,60.051961806,go-nogo,001,10,
logos/4.jpg,properties4.xlsx,frogs/ab81.jpg,0,0,400,l,0,3,3,3,0,31,31,79,,,['a'],0,[0.017732850687025348],2018_Jul_09_1143,60.051961806,go-nogo,001,10,
logos/4.jpg,properties4.xlsx,frogs/ab19.jpg,0,0,400,l,0,3,3,3,0,32,32,18,,,['l'],0,[0.1341042922140332],2018_Jul_09_1143,60.051961806,go-nogo,001,10,
logos/4.jpg,properties4.xlsx,frogs/ab62.jpg,0,0,400,l,0,3,3,3,0,33,33,60,,,['a'],0,[0.43436751732679113],2018_Jul_09_1143,60.051961806,go-nogo,001,10,
logos/4.jpg,properties4.xlsx,logos/4.jpg,0,0,400,a,0,3,3,3,0,34,34,80,,,['a'],0,[0.23448880454179744],2018_Jul_09_1143,60.051961806,go-nogo,001,10,
logos/4.jpg,properties4.xlsx,frogs/ab71.jpg,0,0,400,l,0,3,3,3,0,35,35,69,,,['l'],0,[0.26748495714309684],2018_Jul_09_1143,60.051961806,go-nogo,001,10,
logos/4.jpg,properties4.xlsx,frogs/ab40.jpg,0,0,400,l,0,3,3,3,0,36,36,39,,,['a'],0,[0.06744183532828174],2018_Jul_09_1143,60.051961806,go-nogo,001,10,
logos/4.jpg,properties4.xlsx,frogs/ab52.jpg,0,0,400,l,0,3,3,3,0,37,37,51,,,['l'],0,[0.43445455740129546],2018_Jul_09_1143,60.051961806,go-nogo,001,10,
logos/4.jpg,properties4.xlsx,frogs/ab51.jpg,0,0,400,l,0,3,3,3,0,38,38,50,,,['a'],0,[0.1177987849659985],2018_Jul_09_1143,60.051961806,go-nogo,001,10,
logos/4.jpg,properties4.xlsx,frogs/ab33.jpg,0,0,400,l,0,3,3,3,0,39,39,32,,,['l'],0,[0.4509295936813942],2018_Jul_09_1143,60.051961806,go-nogo,001,10,
logos/4.jpg,properties4.xlsx,frogs/ab55.jpg,0,0,400,l,0,3,3,3,0,40,40,54,,,['l'],0,[0.33417813405412744],2018_Jul_09_1143,60.051961806,go-nogo,001,10,
logos/4.jpg,properties4.xlsx,frogs/ab43.jpg,0,0,400,l,0,3,3,3,0,41,41,42,,,['l'],0,[0.8672974512055589],2018_Jul_09_1143,60.051961806,go-nogo,001,10,
logos/4.jpg,properties4.xlsx,frogs/ab30.jpg,0,0,400,l,0,3,3,3,0,42,42,29,,,['l'],0,[0.6838784146875696],2018_Jul_09_1143,60.051961806,go-nogo,001,10,
logos/4.jpg,properties4.xlsx,frogs/ab37.jpg,0,0,400,l,0,3,3,3,0,43,43,36,,,['l'],0,[0.08425024078223942],2018_Jul_09_1143,60.051961806,go-nogo,001,10,
logos/4.jpg,properties4.xlsx,frogs/ab38.jpg,0,0,400,l,0,3,3,3,0,44,44,37,,,['l'],0,[0.9007185641685282],2018_Jul_09_1143,60.051961806,go-nogo,001,10,
logos/4.jpg,properties4.xlsx,frogs/ab24.jpg,0,0,400,l,0,3,3,3,0,45,45,23,,,['l'],0,[0.05094404347255477],2018_Jul_09_1143,60.051961806,go-nogo,001,10,
logos/4.jpg,properties4.xlsx,logos/4.jpg,0,0,400,a,0,3,3,3,0,46,46,86,,,['l'],0,[4.6317778191169054],2018_Jul_09_1143,60.051961806,go-nogo,001,10,
logos/4.jpg,properties4.xlsx,frogs/ab41.jpg,0,0,400,l,0,3,3,3,0,47,47,40,,,['l'],0,[1.8334144000691595],2018_Jul_09_1143,60.051961806,go-nogo,001,10,
logos/4.jpg,properties4.xlsx,frogs/ab39.jpg,0,0,400,l,0,3,3,3,0,48,48,38,,,['l'],0,[1.3002433139854475],2018_Jul_09_1143,60.051961806,go-nogo,001,10,
logos/4.jpg,properties4.xlsx,frogs/ab26.jpg,0,0,400,l,0,3,3,3,0,49,49,25,,,['a'],0,[0.051867919815776986],2018_Jul_09_1143,60.051961806,go-nogo,001,10,
logos/4.jpg,properties4.xlsx,frogs/ab9.jpg,0,0,400,l,0,3,3,3,0,50,50,8,,,['l'],0,[0.36760209146450507],2018_Jul_09_1143,60.051961806,go-nogo,001,10,
logos/4.jpg,properties4.xlsx,frogs/ab65.jpg,0,0,400,l,0,3,3,3,0,51,51,63,,,['l'],0,[0.5341928114003167],2018_Jul_09_1143,60.051961806,go-nogo,001,10,
logos/4.jpg,properties4.xlsx,frogs/ab80.jpg,0,0,400,l,0,3,3,3,0,52,52,78,,,['a'],0,[0.034337024856540665],2018_Jul_09_1143,60.051961806,go-nogo,001,10,
logos/4.jpg,properties4.xlsx,frogs/ab17.jpg,0,0,400,l,0,3,3,3,0,53,53,16,,,['l'],0,[0.33394204496380553],2018_Jul_09_1143,60.051961806,go-nogo,001,10,
logos/4.jpg,properties4.xlsx,frogs/ab31.jpg,0,0,400,l,0,3,3,3,0,54,54,30,,,['l'],0,[0.6171823933291307],2018_Jul_09_1143,60.051961806,go-nogo,001,10,
logos/4.jpg,properties4.xlsx,frogs/ab3.jpg,0,0,400,l,0,3,3,3,0,55,55,2,,,['l'],0,[0.20090157588037982],2018_Jul_09_1143,60.051961806,go-nogo,001,10,
logos/4.jpg,properties4.xlsx,frogs/ab76.jpg,0,0,400,l,0,3,3,3,0,56,56,74,,,['l'],0,[0.4175295296245167],2018_Jul_09_1143,60.051961806,go-nogo,001,10,
logos/4.jpg,properties4.xlsx,frogs/ab13.jpg,0,0,400,l,0,3,3,3,0,57,57,12,,,['l'],0,[0.35095752615052334],2018_Jul_09_1143,60.051961806,go-nogo,001,10,
logos/4.jpg,properties4.xlsx,frogs/ab72.jpg,0,0,400,l,0,3,3,3,0,58,58,70,,,['l'],0,[0.5173104503273862],2018_Jul_09_1143,60.051961806,go-nogo,001,10,
logos/4.jpg,properties4.xlsx,frogs/ab25.jpg,0,0,400,l,0,3,3,3,0,59,59,24,,,['l'],0,[0.43410867266175046],2018_Jul_09_1143,60.051961806,go-nogo,001,10,
logos/4.jpg,properties4.xlsx,logos/4.jpg,0,0,400,a,0,3,3,3,0,60,60,87,,,['l'],0,[0.7007055934909658],2018_Jul_09_1143,60.051961806,go-nogo,001,10,
logos/4.jpg,properties4.xlsx,frogs/ab67.jpg,0,0,400,l,0,3,3,3,0,61,61,65,,,['l'],0,[0.41742200953376596],2018_Jul_09_1143,60.051961806,go-nogo,001,10,
logos/4.jpg,properties4.xlsx,frogs/ab56.jpg,0,0,400,l,0,3,3,3,0,62,62,55,,,['a'],0,[0.03419138917615783],2018_Jul_09_1143,60.051961806,go-nogo,001,10,
logos/4.jpg,properties4.xlsx,frogs/ab53.jpg,0,0,400,l,0,3,3,3,0,63,63,52,,,['l'],0,[0.5340295401492767],2018_Jul_09_1143,60.051961806,go-nogo,001,10,
logos/4.jpg,properties4.xlsx,frogs/ab45.jpg,0,0,400,l,0,3,3,3,0,64,64,44,,,['a'],0,[0.1684879659987928],2018_Jul_09_1143,60.051961806,go-nogo,001,10,
logos/4.jpg,properties4.xlsx,logos/4.jpg,0,0,400,a,0,3,3,3,0,65,65,84,,,['l'],0,[0.9673349410149967],2018_Jul_09_1143,60.051961806,go-nogo,001,10,
logos/4.jpg,properties4.xlsx,frogs/ab27.jpg,0,0,400,l,0,3,3,3,0,66,66,26,,,['l'],0,[0.03439846490891796],2018_Jul_09_1143,60.051961806,go-nogo,001,10,
logos/4.jpg,properties4.xlsx,frogs/ab11.jpg,0,0,400,l,0,3,3,3,0,67,67,10,,,['l'],0,[0.5842203740903642],2018_Jul_09_1143,60.051961806,go-nogo,001,10,
logos/4.jpg,properties4.xlsx,frogs/ab7.jpg,0,0,400,l,0,3,3,3,0,68,68,6,,,['l'],0,[0.3675469091958803],2018_Jul_09_1143,60.051961806,go-nogo,001,10,
logos/4.jpg,properties4.xlsx,logos/4.jpg,0,0,400,a,0,3,3,3,0,69,69,82,,,['l'],0,[0.6842112149715831],2018_Jul_09_1143,60.051961806,go-nogo,001,10,
logos/4.jpg,properties4.xlsx,frogs/ab22.jpg,0,0,400,l,0,3,3,3,0,70,70,21,,,['a'],0,[0.11675373518573906],2018_Jul_09_1143,60.051961806,go-nogo,001,10,
logos/4.jpg,properties4.xlsx,frogs/ab42.jpg,0,0,400,l,0,3,3,3,0,71,71,41,,,['l'],0,[0.28426946924355434],2018_Jul_09_1143,60.051961806,go-nogo,001,10,
logos/4.jpg,properties4.xlsx,frogs/ab32.jpg,0,0,400,l,0,3,3,3,0,72,72,31,,,['l'],0,[0.8840848077525152],2018_Jul_09_1143,60.051961806,go-nogo,001,10,
logos/4.jpg,properties4.xlsx,frogs/ab69.jpg,0,0,400,l,0,3,3,3,0,73,73,67,,,['l'],0,[0.38387175868138],2018_Jul_09_1143,60.051961806,go-nogo,001,10,
logos/4.jpg,properties4.xlsx,frogs/ab36.jpg,0,0,400,l,0,3,3,3,0,74,74,35,,,['l'],0,[0.5508527367283023],2018_Jul_09_1143,60.051961806,go-nogo,001,10,
logos/4.jpg,properties4.xlsx,frogs/ab34.jpg,0,0,400,l,0,3,3,3,0,75,75,33,,,['l'],0,[0.49999914666659606],2018_Jul_09_1143,60.051961806,go-nogo,001,10,
logos/4.jpg,properties4.xlsx,frogs/ab46.jpg,0,0,400,l,0,3,3,3,0,76,76,45,,,['l'],0,[0.5506530565571666],2018_Jul_09_1143,60.051961806,go-nogo,001,10,
logos/4.jpg,properties4.xlsx,frogs/ab74.jpg,0,0,400,l,0,3,3,3,0,77,77,72,,,['l'],0,[0.5172023613458805],2018_Jul_09_1143,60.051961806,go-nogo,001,10,
logos/4.jpg,properties4.xlsx,logos/4.jpg,0,0,400,a,0,3,3,3,0,78,78,83,,,['l'],0,[4.665219980987786],2018_Jul_09_1143,60.051961806,go-nogo,001,10,
logos/4.jpg,properties4.xlsx,frogs/ab47.jpg,0,0,400,l,0,3,3,3,0,79,79,46,,,['a'],0,[0.18438444178536884],2018_Jul_09_1143,60.051961806,go-nogo,001,10,
logos/4.jpg,properties4.xlsx,frogs/ab78.jpg,0,0,400,l,0,3,3,3,0,80,80,76,,,['l'],0,[0.46731531433124474],2018_Jul_09_1143,60.051961806,go-nogo,001,10,
logos/4.jpg,properties4.xlsx,frogs/ab29.jpg,0,0,400,l,0,3,3,3,0,81,81,28,,,['l'],0,[0.45085279361683206],2018_Jul_09_1143,60.051961806,go-nogo,001,10,
logos/4.jpg,properties4.xlsx,frogs/ab70.jpg,0,0,400,l,0,3,3,3,0,82,82,68,,,['l'],0,[0.5671798617713648],2018_Jul_09_1143,60.051961806,go-nogo,001,10,
logos/4.jpg,properties4.xlsx,frogs/ab61.jpg,0,0,400,l,0,3,3,3,0,83,83,59,,,['l'],0,[0.8840523810586092],2018_Jul_09_1143,60.051961806,go-nogo,001,10,
logos/4.jpg,properties4.xlsx,frogs/ab68.jpg,0,0,400,l,0,3,3,3,0,84,84,66,,,['l'],0,[0.40062043075158726],2018_Jul_09_1143,60.051961806,go-nogo,001,10,
logos/4.jpg,properties4.xlsx,frogs/ab2.jpg,0,0,400,l,0,3,3,3,0,85,85,1,,,['l'],0,[0.45088294475317525],2018_Jul_09_1143,60.051961806,go-nogo,001,10,
logos/4.jpg,properties4.xlsx,frogs/ab50.jpg,0,0,400,l,0,3,3,3,0,86,86,49,,,['l'],0,[8.37979282186734],2018_Jul_09_1143,60.051961806,go-nogo,001,10,
logos/4.jpg,properties4.xlsx,frogs/ab16.jpg,0,0,400,l,0,3,3,3,0,87,87,15,,,['l'],0,[0.43419514384640934],2018_Jul_09_1143,60.051961806,go-nogo,001,10,
logos/4.jpg,properties4.xlsx,frogs/ab73.jpg,0,0,400,l,0,3,3,3,0,88,88,71,,,['l'],0,[0.43402390814480896],2018_Jul_09_1143,60.051961806,go-nogo,001,10,
logos/4.jpg,properties4.xlsx,frogs/ab4.jpg,0,0,400,l,0,3,3,3,0,89,89,3,,,['l'],0,[3.649059540531198],2018_Jul_09_1143,60.051961806,go-nogo,001,10,
logos/4.jpg,properties4.xlsx,,,,,,0,3,3,3,,,,,,,,,,2018_Jul_09_1143,60.051961806,go-nogo,001,10,
