pix,source,image1,x,y,size,answer,trials_2.thisRepN,trials_2.thisTrialN,trials_2.thisN,trials_2.thisIndex,trials.thisRepN,trials.thisTrialN,trials.thisN,trials.thisIndex,key_resp_3.keys,key_resp_3.rt,key_resp_2.keys,key_resp_2.corr,key_resp_2.rt,date,frameRate,expName,session,participant,
logos/3.jpg,properties3.xlsx,frogs/ab81.jpg,0,0,400,l,0,0,0,2,0,0,0,79,space,9.17771926967,['l'],0,[2.350270984272356],2018_Jul_09_0454,60.0069354993,go-nogo,001,11,
logos/3.jpg,properties3.xlsx,frogs/ab24.jpg,0,0,400,l,0,0,0,2,0,1,1,23,,,['l'],0,[1.13411501156952],2018_Jul_09_0454,60.0069354993,go-nogo,001,11,
logos/3.jpg,properties3.xlsx,frogs/ab57.jpg,0,0,400,l,0,0,0,2,0,2,2,56,,,['l'],0,[0.001070995866029989],2018_Jul_09_0454,60.0069354993,go-nogo,001,11,
logos/3.jpg,properties3.xlsx,frogs/ab21.jpg,0,0,400,l,0,0,0,2,0,3,3,20,,,['l'],0,[0.03452890685002785],2018_Jul_09_0454,60.0069354993,go-nogo,001,11,
logos/3.jpg,properties3.xlsx,frogs/ab19.jpg,0,0,400,l,0,0,0,2,0,4,4,18,,,['l'],0,[0.0010129835936822928],2018_Jul_09_0454,60.0069354993,go-nogo,001,11,
logos/3.jpg,properties3.xlsx,frogs/ab37.jpg,0,0,400,l,0,0,0,2,0,5,5,36,,,['l'],0,[0.0346047690618434],2018_Jul_09_0454,60.0069354993,go-nogo,001,11,
logos/3.jpg,properties3.xlsx,frogs/ab72.jpg,0,0,400,l,0,0,0,2,0,6,6,70,,,['l'],0,[2.317105812158843],2018_Jul_09_0454,60.0069354993,go-nogo,001,11,
logos/3.jpg,properties3.xlsx,frogs/ab1.jpg,0,0,400,l,0,0,0,2,0,7,7,0,,,['l'],0,[0.7842523444778635],2018_Jul_09_0454,60.0069354993,go-nogo,001,11,
logos/3.jpg,properties3.xlsx,frogs/ab71.jpg,0,0,400,l,0,0,0,2,0,8,8,69,,,['l'],0,[0.7675202652462758],2018_Jul_09_0454,60.0069354993,go-nogo,001,11,
logos/3.jpg,properties3.xlsx,frogs/ab38.jpg,0,0,400,l,0,0,0,2,0,9,9,37,,,['l'],0,[0.9008891496996512],2018_Jul_09_0454,60.0069354993,go-nogo,001,11,
logos/3.jpg,properties3.xlsx,logos/3.jpg,0,0,400,a,0,0,0,2,0,10,10,89,,,['a'],0,[0.01785707113594981],2018_Jul_09_0454,60.0069354993,go-nogo,001,11,
logos/3.jpg,properties3.xlsx,frogs/ab2.jpg,0,0,400,l,0,0,0,2,0,11,11,1,,,['a'],0,[0.9128570822940674],2018_Jul_09_0454,60.0069354993,go-nogo,001,11,
logos/3.jpg,properties3.xlsx,frogs/ab58.jpg,0,0,400,l,0,0,0,2,0,12,12,57,,,['l'],0,[0.35096534659533063],2018_Jul_09_0454,60.0069354993,go-nogo,001,11,
logos/3.jpg,properties3.xlsx,frogs/ab35.jpg,0,0,400,l,0,0,0,2,0,13,13,34,,,['l'],0,[0.03371182624687208],2018_Jul_09_0454,60.0069354993,go-nogo,001,11,
logos/3.jpg,properties3.xlsx,logos/3.jpg,0,0,400,a,0,0,0,2,0,14,14,81,,,['l'],0,[1.9836387530958746],2018_Jul_09_0454,60.0069354993,go-nogo,001,11,
logos/3.jpg,properties3.xlsx,frogs/ab14.jpg,0,0,400,l,0,0,0,2,0,15,15,13,,,['l'],0,[1.0504300717730075],2018_Jul_09_0454,60.0069354993,go-nogo,001,11,
logos/3.jpg,properties3.xlsx,frogs/ab42.jpg,0,0,400,l,0,0,0,2,0,16,16,41,,,['l'],0,[1.0167423429375049],2018_Jul_09_0454,60.0069354993,go-nogo,001,11,
logos/3.jpg,properties3.xlsx,frogs/ab53.jpg,0,0,400,l,0,0,0,2,0,17,17,52,,,['l'],0,[1.9666795334924245],2018_Jul_09_0454,60.0069354993,go-nogo,001,11,
logos/3.jpg,properties3.xlsx,frogs/ab20.jpg,0,0,400,l,0,0,0,2,0,18,18,19,,,['l'],0,[2.333584422369313],2018_Jul_09_0454,60.0069354993,go-nogo,001,11,
logos/3.jpg,properties3.xlsx,frogs/ab6.jpg,0,0,400,l,0,0,0,2,0,19,19,5,,,['l'],0,[1.6839825873903465],2018_Jul_09_0454,60.0069354993,go-nogo,001,11,
logos/3.jpg,properties3.xlsx,frogs/ab30.jpg,0,0,400,l,0,0,0,2,0,20,20,29,,,['l'],0,[1.183989950484829],2018_Jul_09_0454,60.0069354993,go-nogo,001,11,
logos/3.jpg,properties3.xlsx,logos/3.jpg,0,0,400,a,0,0,0,2,0,21,21,87,,,['l'],0,[1.0675057621847373],2018_Jul_09_0454,60.0069354993,go-nogo,001,11,
logos/3.jpg,properties3.xlsx,frogs/ab16.jpg,0,0,400,l,0,0,0,2,0,22,22,15,,,['l'],0,[0.9007874050876126],2018_Jul_09_0454,60.0069354993,go-nogo,001,11,
logos/3.jpg,properties3.xlsx,frogs/ab70.jpg,0,0,400,l,0,0,0,2,0,23,23,68,,,['l'],0,[1.2173135407356312],2018_Jul_09_0454,60.0069354993,go-nogo,001,11,
logos/3.jpg,properties3.xlsx,logos/3.jpg,0,0,400,a,0,0,0,2,0,24,24,83,,,['a'],0,[0.01770266923267627],2018_Jul_09_0454,60.0069354993,go-nogo,001,11,
logos/3.jpg,properties3.xlsx,frogs/ab7.jpg,0,0,400,l,0,0,0,2,0,25,25,6,,,['l'],0,[0.4343053364646039],2018_Jul_09_0454,60.0069354993,go-nogo,001,11,
logos/3.jpg,properties3.xlsx,logos/3.jpg,0,0,400,a,0,0,0,2,0,26,26,86,,,['a'],0,[0.034346391301369295],2018_Jul_09_0454,60.0069354993,go-nogo,001,11,
logos/3.jpg,properties3.xlsx,frogs/ab49.jpg,0,0,400,l,0,0,0,2,0,27,27,48,,,['l'],0,[0.034336127595452126],2018_Jul_09_0454,60.0069354993,go-nogo,001,11,
logos/3.jpg,properties3.xlsx,frogs/ab5.jpg,0,0,400,l,0,0,0,2,0,28,28,4,,,['a'],0,[0.1176261376531329],2018_Jul_09_0454,60.0069354993,go-nogo,001,11,
logos/3.jpg,properties3.xlsx,frogs/ab68.jpg,0,0,400,l,0,0,0,2,0,29,29,66,,,['l'],0,[2.167208337705233],2018_Jul_09_0454,60.0069354993,go-nogo,001,11,
logos/3.jpg,properties3.xlsx,frogs/ab65.jpg,0,0,400,l,0,0,0,2,0,30,30,63,,,['l'],0,[1.0840026685618795],2018_Jul_09_0454,60.0069354993,go-nogo,001,11,
logos/3.jpg,properties3.xlsx,frogs/ab3.jpg,0,0,400,l,0,0,0,2,0,31,31,2,,,['l'],0,[1.417180112504866],2018_Jul_09_0454,60.0069354993,go-nogo,001,11,
logos/3.jpg,properties3.xlsx,frogs/ab47.jpg,0,0,400,l,0,0,0,2,0,32,32,46,,,['l'],0,[0.03418440317909699],2018_Jul_09_0454,60.0069354993,go-nogo,001,11,
logos/3.jpg,properties3.xlsx,frogs/ab25.jpg,0,0,400,l,0,0,0,2,0,33,33,24,,,['l'],0,[3.7998621092774556],2018_Jul_09_0454,60.0069354993,go-nogo,001,11,
logos/3.jpg,properties3.xlsx,frogs/ab62.jpg,0,0,400,l,0,0,0,2,0,34,34,60,,,['l'],0,[0.03429775024414994],2018_Jul_09_0454,60.0069354993,go-nogo,001,11,
logos/3.jpg,properties3.xlsx,frogs/ab50.jpg,0,0,400,l,0,0,0,2,0,35,35,49,,,['l'],0,[1.1341997987401555],2018_Jul_09_0454,60.0069354993,go-nogo,001,11,
logos/3.jpg,properties3.xlsx,frogs/ab23.jpg,0,0,400,l,0,0,0,2,0,36,36,22,,,['l'],0,[1.350759179891611],2018_Jul_09_0454,60.0069354993,go-nogo,001,11,
logos/3.jpg,properties3.xlsx,frogs/ab34.jpg,0,0,400,l,0,0,0,2,0,37,37,33,,,['l'],0,[1.6655047848980757],2018_Jul_09_0454,60.0069354993,go-nogo,001,11,
logos/3.jpg,properties3.xlsx,frogs/ab15.jpg,0,0,400,l,0,0,0,2,0,38,38,14,,,['l'],0,[1.6674066950581619],2018_Jul_09_0454,60.0069354993,go-nogo,001,11,
logos/3.jpg,properties3.xlsx,frogs/ab69.jpg,0,0,400,l,0,0,0,2,0,39,39,67,,,['l'],0,[1.518107639545633],2018_Jul_09_0454,60.0069354993,go-nogo,001,11,
logos/3.jpg,properties3.xlsx,logos/3.jpg,0,0,400,a,0,0,0,2,0,40,40,80,,,['a'],0,[0.01775220279523637],2018_Jul_09_0454,60.0069354993,go-nogo,001,11,
logos/3.jpg,properties3.xlsx,frogs/ab77.jpg,0,0,400,l,0,0,0,2,0,41,41,75,,,['l'],0,[0.38314966498001013],2018_Jul_09_0454,60.0069354993,go-nogo,001,11,
logos/3.jpg,properties3.xlsx,frogs/ab73.jpg,0,0,400,l,0,0,0,2,0,42,42,71,,,['l'],0,[0.38363919934636215],2018_Jul_09_0454,60.0069354993,go-nogo,001,11,
logos/3.jpg,properties3.xlsx,frogs/ab12.jpg,0,0,400,l,0,0,0,2,0,43,43,11,,,['l'],0,[0.20117988044512458],2018_Jul_09_0454,60.0069354993,go-nogo,001,11,
logos/3.jpg,properties3.xlsx,frogs/ab75.jpg,0,0,400,l,0,0,0,2,0,44,44,73,,,['l'],0,[0.8675209346256452],2018_Jul_09_0454,60.0069354993,go-nogo,001,11,
logos/3.jpg,properties3.xlsx,frogs/ab74.jpg,0,0,400,l,0,0,0,2,0,45,45,72,,,['l'],0,[2.4172582059472916],2018_Jul_09_0454,60.0069354993,go-nogo,001,11,
logos/3.jpg,properties3.xlsx,frogs/ab33.jpg,0,0,400,l,0,0,0,2,0,46,46,32,,,['l'],0,[0.5841555086008157],2018_Jul_09_0454,60.0069354993,go-nogo,001,11,
logos/3.jpg,properties3.xlsx,frogs/ab61.jpg,0,0,400,l,0,0,0,2,0,47,47,59,,,['l'],0,[0.26767265903617954],2018_Jul_09_0454,60.0069354993,go-nogo,001,11,
logos/3.jpg,properties3.xlsx,frogs/ab54.jpg,0,0,400,l,0,0,0,2,0,48,48,53,,,['l'],0,[0.5010011580161517],2018_Jul_09_0454,60.0069354993,go-nogo,001,11,
logos/3.jpg,properties3.xlsx,frogs/ab56.jpg,0,0,400,l,0,0,0,2,0,49,49,55,,,['l'],0,[0.1317414169679978],2018_Jul_09_0454,60.0069354993,go-nogo,001,11,
logos/3.jpg,properties3.xlsx,frogs/ab18.jpg,0,0,400,l,0,0,0,2,0,50,50,17,,,['l'],0,[1.5005361673029256],2018_Jul_09_0454,60.0069354993,go-nogo,001,11,
logos/3.jpg,properties3.xlsx,frogs/ab27.jpg,0,0,400,l,0,0,0,2,0,51,51,26,,,['l'],0,[0.0009656812762841582],2018_Jul_09_0454,60.0069354993,go-nogo,001,11,
logos/3.jpg,properties3.xlsx,logos/3.jpg,0,0,400,a,0,0,0,2,0,52,52,88,,,['a'],0,[0.10120509347325424],2018_Jul_09_0454,60.0069354993,go-nogo,001,11,
logos/3.jpg,properties3.xlsx,frogs/ab10.jpg,0,0,400,l,0,0,0,2,0,53,53,9,,,['l'],0,[0.06779537731927121],2018_Jul_09_0454,60.0069354993,go-nogo,001,11,
logos/3.jpg,properties3.xlsx,frogs/ab17.jpg,0,0,400,l,0,0,0,2,0,54,54,16,,,['l'],0,[0.034373166199657135],2018_Jul_09_0454,60.0069354993,go-nogo,001,11,
logos/3.jpg,properties3.xlsx,frogs/ab29.jpg,0,0,400,l,0,0,0,2,0,55,55,28,,,['l'],0,[0.5509126892939094],2018_Jul_09_0454,60.0069354993,go-nogo,001,11,
logos/3.jpg,properties3.xlsx,frogs/ab26.jpg,0,0,400,l,0,0,0,2,0,56,56,25,,,['l'],0,[0.017106927778513636],2018_Jul_09_0454,60.0069354993,go-nogo,001,11,
logos/3.jpg,properties3.xlsx,frogs/ab39.jpg,0,0,400,l,0,0,0,2,0,57,57,38,,,['l'],0,[0.4343017664796207],2018_Jul_09_0454,60.0069354993,go-nogo,001,11,
logos/3.jpg,properties3.xlsx,frogs/ab40.jpg,0,0,400,l,0,0,0,2,0,58,58,39,,,['l'],0,[0.900683429237688],2018_Jul_09_0454,60.0069354993,go-nogo,001,11,
logos/3.jpg,properties3.xlsx,frogs/ab36.jpg,0,0,400,l,0,0,0,2,0,59,59,35,,,['l'],0,[1.733634848424117],2018_Jul_09_0454,60.0069354993,go-nogo,001,11,
logos/3.jpg,properties3.xlsx,frogs/ab43.jpg,0,0,400,l,0,0,0,2,0,60,60,42,,,['l'],0,[0.017782101429475006],2018_Jul_09_0454,60.0069354993,go-nogo,001,11,
logos/3.jpg,properties3.xlsx,frogs/ab13.jpg,0,0,400,l,0,0,0,2,0,61,61,12,,,['l'],0,[0.18429741555155488],2018_Jul_09_0454,60.0069354993,go-nogo,001,11,
logos/3.jpg,properties3.xlsx,frogs/ab78.jpg,0,0,400,l,0,0,0,2,0,62,62,76,,,['l'],0,[0.9166466226815828],2018_Jul_09_0454,60.0069354993,go-nogo,001,11,
logos/3.jpg,properties3.xlsx,frogs/ab22.jpg,0,0,400,l,0,0,0,2,0,63,63,21,,,['l'],0,[0.1345782172793406],2018_Jul_09_0454,60.0069354993,go-nogo,001,11,
logos/3.jpg,properties3.xlsx,frogs/ab79.jpg,0,0,400,l,0,0,0,2,0,64,64,77,,,['l'],0,[0.7010979938931996],2018_Jul_09_0454,60.0069354993,go-nogo,001,11,
logos/3.jpg,properties3.xlsx,frogs/ab52.jpg,0,0,400,l,0,0,0,2,0,65,65,51,,,['l'],0,[1.1846392417355673],2018_Jul_09_0454,60.0069354993,go-nogo,001,11,
logos/3.jpg,properties3.xlsx,frogs/ab32.jpg,0,0,400,l,0,0,0,2,0,66,66,31,,,['l'],0,[1.617343439371325],2018_Jul_09_0454,60.0069354993,go-nogo,001,11,
logos/3.jpg,properties3.xlsx,logos/3.jpg,0,0,400,a,0,0,0,2,0,67,67,82,,,['l'],0,[0.9009632269080612],2018_Jul_09_0454,60.0069354993,go-nogo,001,11,
logos/3.jpg,properties3.xlsx,frogs/ab45.jpg,0,0,400,l,0,0,0,2,0,68,68,44,,,['l'],0,[0.7002416434406769],2018_Jul_09_0454,60.0069354993,go-nogo,001,11,
logos/3.jpg,properties3.xlsx,frogs/ab48.jpg,0,0,400,l,0,0,0,2,0,69,69,47,,,['l'],0,[0.001000488642603159],2018_Jul_09_0454,60.0069354993,go-nogo,001,11,
logos/3.jpg,properties3.xlsx,logos/3.jpg,0,0,400,a,0,0,0,2,0,70,70,84,,,['l'],0,[0.967487242880452],2018_Jul_09_0454,60.0069354993,go-nogo,001,11,
logos/3.jpg,properties3.xlsx,frogs/ab31.jpg,0,0,400,l,0,0,0,2,0,71,71,30,,,['l'],0,[0.3009248495582142],2018_Jul_09_0454,60.0069354993,go-nogo,001,11,
logos/3.jpg,properties3.xlsx,logos/3.jpg,0,0,400,a,0,0,0,2,0,72,72,85,,,['a'],0,[0.08442392693541478],2018_Jul_09_0454,60.0069354993,go-nogo,001,11,
logos/3.jpg,properties3.xlsx,frogs/ab55.jpg,0,0,400,l,0,0,0,2,0,73,73,54,,,['l'],0,[0.3344001642180956],2018_Jul_09_0454,60.0069354993,go-nogo,001,11,
logos/3.jpg,properties3.xlsx,frogs/ab76.jpg,0,0,400,l,0,0,0,2,0,74,74,74,,,['l'],0,[0.5843036630321876],2018_Jul_09_0454,60.0069354993,go-nogo,001,11,
logos/3.jpg,properties3.xlsx,frogs/ab51.jpg,0,0,400,l,0,0,0,2,0,75,75,50,,,['l'],0,[0.8674986222104053],2018_Jul_09_0454,60.0069354993,go-nogo,001,11,
logos/3.jpg,properties3.xlsx,frogs/ab8.jpg,0,0,400,l,0,0,0,2,0,76,76,7,,,['l'],0,[1.6172416947592865],2018_Jul_09_0454,60.0069354993,go-nogo,001,11,
logos/3.jpg,properties3.xlsx,frogs/ab9.jpg,0,0,400,l,0,0,0,2,0,77,77,8,,,['l'],0,[1.250406420622312],2018_Jul_09_0454,60.0069354993,go-nogo,001,11,
logos/3.jpg,properties3.xlsx,frogs/ab66.jpg,0,0,400,l,0,0,0,2,0,78,78,64,,,['l'],0,[2.0337649297944154],2018_Jul_09_0454,60.0069354993,go-nogo,001,11,
logos/3.jpg,properties3.xlsx,frogs/ab11.jpg,0,0,400,l,0,0,0,2,0,79,79,10,,,['a'],0,[0.017698206749628298],2018_Jul_09_0454,60.0069354993,go-nogo,001,11,
logos/3.jpg,properties3.xlsx,frogs/ab44.jpg,0,0,400,l,0,0,0,2,0,80,80,43,,,['l'],0,[1.817020355614659],2018_Jul_09_0454,60.0069354993,go-nogo,001,11,
logos/3.jpg,properties3.xlsx,frogs/ab60.jpg,0,0,400,l,0,0,0,2,0,81,81,58,,,['l'],0,[2.367037870855711],2018_Jul_09_0454,60.0069354993,go-nogo,001,11,
logos/3.jpg,properties3.xlsx,frogs/ab67.jpg,0,0,400,l,0,0,0,2,0,82,82,65,,,['l'],0,[1.5830425653912243],2018_Jul_09_0454,60.0069354993,go-nogo,001,11,
logos/3.jpg,properties3.xlsx,frogs/ab63.jpg,0,0,400,l,0,0,0,2,0,83,83,61,,,['l'],0,[2.6001726980830426],2018_Jul_09_0454,60.0069354993,go-nogo,001,11,
logos/3.jpg,properties3.xlsx,frogs/ab46.jpg,0,0,400,l,0,0,0,2,0,84,84,45,,,['l'],0,[2.2503283271726104],2018_Jul_09_0454,60.0069354993,go-nogo,001,11,
logos/3.jpg,properties3.xlsx,frogs/ab4.jpg,0,0,400,l,0,0,0,2,0,85,85,3,,,['l'],0,[2.000380649784347],2018_Jul_09_0454,60.0069354993,go-nogo,001,11,
logos/3.jpg,properties3.xlsx,frogs/ab41.jpg,0,0,400,l,0,0,0,2,0,86,86,40,,,['l'],0,[0.050697820741334],2018_Jul_09_0454,60.0069354993,go-nogo,001,11,
logos/3.jpg,properties3.xlsx,frogs/ab28.jpg,0,0,400,l,0,0,0,2,0,87,87,27,,,['l'],0,[1.2672255182624212],2018_Jul_09_0454,60.0069354993,go-nogo,001,11,
logos/3.jpg,properties3.xlsx,frogs/ab80.jpg,0,0,400,l,0,0,0,2,0,88,88,78,,,['l'],0,[1.4839160963965696],2018_Jul_09_0454,60.0069354993,go-nogo,001,11,
logos/3.jpg,properties3.xlsx,frogs/ab64.jpg,0,0,400,l,0,0,0,2,0,89,89,62,,,['l'],0,[0.08423561016388703],2018_Jul_09_0454,60.0069354993,go-nogo,001,11,
logos/3.jpg,properties3.xlsx,,,,,,0,0,0,2,,,,,,,,,,2018_Jul_09_0454,60.0069354993,go-nogo,001,11,
logos/1.jpg,properties1.xlsx,frogs/ab37.jpg,0,0,400,l,0,1,1,0,0,0,0,36,space,3.13158389133,['l'],0,[0.7673435509277624],2018_Jul_09_0454,60.0069354993,go-nogo,001,11,
logos/1.jpg,properties1.xlsx,frogs/ab43.jpg,0,0,400,l,0,1,1,0,0,1,1,42,,,['l'],0,[1.217304169520503],2018_Jul_09_0454,60.0069354993,go-nogo,001,11,
logos/1.jpg,properties1.xlsx,frogs/ab77.jpg,0,0,400,l,0,1,1,0,0,2,2,75,,,['l'],0,[1.1506253054030822],2018_Jul_09_0454,60.0069354993,go-nogo,001,11,
logos/1.jpg,properties1.xlsx,frogs/ab80.jpg,0,0,400,l,0,1,1,0,0,3,3,78,,,['l'],0,[0.48431816609809175],2018_Jul_09_0454,60.0069354993,go-nogo,001,11,
logos/1.jpg,properties1.xlsx,frogs/ab60.jpg,0,0,400,l,0,1,1,0,0,4,4,58,,,['l'],0,[0.35105013376596617],2018_Jul_09_0454,60.0069354993,go-nogo,001,11,
logos/1.jpg,properties1.xlsx,frogs/ab75.jpg,0,0,400,l,0,1,1,0,0,5,5,73,,,['l'],0,[1.1507332974797464],2018_Jul_09_0454,60.0069354993,go-nogo,001,11,
logos/1.jpg,properties1.xlsx,frogs/ab61.jpg,0,0,400,l,0,1,1,0,0,6,6,59,,,['l'],0,[0.8174416139954701],2018_Jul_09_0454,60.0069354993,go-nogo,001,11,
logos/1.jpg,properties1.xlsx,frogs/ab5.jpg,0,0,400,l,0,1,1,0,0,7,7,4,,,['l'],0,[1.0172077798924875],2018_Jul_09_0454,60.0069354993,go-nogo,001,11,
logos/1.jpg,properties1.xlsx,frogs/ab67.jpg,0,0,400,l,0,1,1,0,0,8,8,65,,,['l'],0,[1.0675182571285404],2018_Jul_09_0454,60.0069354993,go-nogo,001,11,
logos/1.jpg,properties1.xlsx,frogs/ab12.jpg,0,0,400,l,0,1,1,0,0,9,9,11,,,['l'],0,[1.617213134872145],2018_Jul_09_0454,60.0069354993,go-nogo,001,11,
logos/1.jpg,properties1.xlsx,frogs/ab68.jpg,0,0,400,l,0,1,1,0,0,10,10,66,,,['l'],0,[0.9676947483312688],2018_Jul_09_0454,60.0069354993,go-nogo,001,11,
logos/1.jpg,properties1.xlsx,logos/1.jpg,0,0,400,a,0,1,1,0,0,11,11,81,,,['a'],0,[0.7532465677941218],2018_Jul_09_0454,60.0069354993,go-nogo,001,11,
logos/1.jpg,properties1.xlsx,frogs/ab36.jpg,0,0,400,l,0,1,1,0,0,12,12,35,,,['l'],0,[0.001091077043383848],2018_Jul_09_0454,60.0069354993,go-nogo,001,11,
logos/1.jpg,properties1.xlsx,frogs/ab51.jpg,0,0,400,l,0,1,1,0,0,13,13,50,,,['l'],0,[0.06785963707079645],2018_Jul_09_0454,60.0069354993,go-nogo,001,11,
logos/1.jpg,properties1.xlsx,frogs/ab48.jpg,0,0,400,l,0,1,1,0,0,14,14,47,,,['l'],0,[0.3179019190938561],2018_Jul_09_0454,60.0069354993,go-nogo,001,11,
logos/1.jpg,properties1.xlsx,frogs/ab18.jpg,0,0,400,l,0,1,1,0,0,15,15,17,,,['l'],0,[0.2511378215494915],2018_Jul_09_0454,60.0069354993,go-nogo,001,11,
logos/1.jpg,properties1.xlsx,frogs/ab69.jpg,0,0,400,l,0,1,1,0,0,16,16,67,,,['l'],0,[0.35098051903332816],2018_Jul_09_0454,60.0069354993,go-nogo,001,11,
logos/1.jpg,properties1.xlsx,frogs/ab7.jpg,0,0,400,l,0,1,1,0,0,17,17,6,,,['l'],0,[0.31791218280704925],2018_Jul_09_0454,60.0069354993,go-nogo,001,11,
logos/1.jpg,properties1.xlsx,frogs/ab29.jpg,0,0,400,l,0,1,1,0,0,18,18,28,,,['l'],0,[0.21796818696020637],2018_Jul_09_0454,60.0069354993,go-nogo,001,11,
logos/1.jpg,properties1.xlsx,frogs/ab57.jpg,0,0,400,l,0,1,1,0,0,19,19,56,,,['l'],0,[0.23461503276485018],2018_Jul_09_0454,60.0069354993,go-nogo,001,11,
logos/1.jpg,properties1.xlsx,frogs/ab54.jpg,0,0,400,l,0,1,1,0,0,20,20,53,,,['l'],0,[0.36793215241777943],2018_Jul_09_0454,60.0069354993,go-nogo,001,11,
logos/1.jpg,properties1.xlsx,frogs/ab3.jpg,0,0,400,l,0,1,1,0,0,21,21,2,,,['l'],0,[0.5676675271824934],2018_Jul_09_0454,60.0069354993,go-nogo,001,11,
logos/1.jpg,properties1.xlsx,frogs/ab22.jpg,0,0,400,l,0,1,1,0,0,22,22,21,,,['l'],0,[0.6011196369363461],2018_Jul_09_0454,60.0069354993,go-nogo,001,11,
logos/1.jpg,properties1.xlsx,frogs/ab50.jpg,0,0,400,l,0,1,1,0,0,23,23,49,,,['l'],0,[0.8340853360568872],2018_Jul_09_0454,60.0069354993,go-nogo,001,11,
logos/1.jpg,properties1.xlsx,frogs/ab16.jpg,0,0,400,l,0,1,1,0,0,24,24,15,,,['l'],0,[1.0672509544165223],2018_Jul_09_0454,60.0069354993,go-nogo,001,11,
logos/1.jpg,properties1.xlsx,frogs/ab14.jpg,0,0,400,l,0,1,1,0,0,25,25,13,,,['l'],0,[1.0507781454361975],2018_Jul_09_0454,60.0069354993,go-nogo,001,11,
logos/1.jpg,properties1.xlsx,frogs/ab72.jpg,0,0,400,l,0,1,1,0,0,26,26,70,,,['l'],0,[0.918136645690538],2018_Jul_09_0454,60.0069354993,go-nogo,001,11,
logos/1.jpg,properties1.xlsx,frogs/ab56.jpg,0,0,400,l,0,1,1,0,0,27,27,55,,,['l'],0,[0.994064451639133],2018_Jul_09_0454,60.0069354993,go-nogo,001,11,
logos/1.jpg,properties1.xlsx,frogs/ab10.jpg,0,0,400,l,0,1,1,0,0,28,28,9,,,['l'],0,[0.0509994845779147],2018_Jul_09_0454,60.0069354993,go-nogo,001,11,
logos/1.jpg,properties1.xlsx,frogs/ab21.jpg,0,0,400,l,0,1,1,0,0,29,29,20,,,['l'],0,[0.5338526175837615],2018_Jul_09_0454,60.0069354993,go-nogo,001,11,
logos/1.jpg,properties1.xlsx,logos/1.jpg,0,0,400,a,0,1,1,0,0,30,30,87,,,['a'],0,[0.43401527508103754],2018_Jul_09_0454,60.0069354993,go-nogo,001,11,
logos/1.jpg,properties1.xlsx,frogs/ab2.jpg,0,0,400,l,0,1,1,0,0,31,31,1,,,['l'],0,[1.1792324975831434],2018_Jul_09_0454,60.0069354993,go-nogo,001,11,
logos/1.jpg,properties1.xlsx,frogs/ab65.jpg,0,0,400,l,0,1,1,0,0,32,32,63,,,['l'],0,[0.6841744741541333],2018_Jul_09_0454,60.0069354993,go-nogo,001,11,
logos/1.jpg,properties1.xlsx,frogs/ab70.jpg,0,0,400,l,0,1,1,0,0,33,33,68,,,['l'],0,[0.9174088147410657],2018_Jul_09_0454,60.0069354993,go-nogo,001,11,
logos/1.jpg,properties1.xlsx,frogs/ab53.jpg,0,0,400,l,0,1,1,0,0,34,34,52,,,['l'],0,[0.5722098884216393],2018_Jul_09_0454,60.0069354993,go-nogo,001,11,
logos/1.jpg,properties1.xlsx,frogs/ab13.jpg,0,0,400,l,0,1,1,0,0,35,35,12,,,['l'],0,[0.9674305693406495],2018_Jul_09_0454,60.0069354993,go-nogo,001,11,
logos/1.jpg,properties1.xlsx,logos/1.jpg,0,0,400,a,0,1,1,0,0,36,36,86,,,['a'],0,[0.4037038607202703],2018_Jul_09_0454,60.0069354993,go-nogo,001,11,
logos/1.jpg,properties1.xlsx,frogs/ab40.jpg,0,0,400,l,0,1,1,0,0,37,37,39,,,['l'],0,[0.017840559950855095],2018_Jul_09_0454,60.0069354993,go-nogo,001,11,
logos/1.jpg,properties1.xlsx,frogs/ab63.jpg,0,0,400,l,0,1,1,0,0,38,38,61,,,['l'],0,[0.16694103497866308],2018_Jul_09_0454,60.0069354993,go-nogo,001,11,
logos/1.jpg,properties1.xlsx,frogs/ab32.jpg,0,0,400,l,0,1,1,0,0,39,39,31,,,['l'],0,[0.4176669693697477],2018_Jul_09_0454,60.0069354993,go-nogo,001,11,
logos/1.jpg,properties1.xlsx,frogs/ab24.jpg,0,0,400,l,0,1,1,0,0,40,40,23,,,['l'],0,[0.9008668372844113],2018_Jul_09_0454,60.0069354993,go-nogo,001,11,
logos/1.jpg,properties1.xlsx,frogs/ab17.jpg,0,0,400,l,0,1,1,0,0,41,41,16,,,['l'],0,[0.3508167459149263],2018_Jul_09_0454,60.0069354993,go-nogo,001,11,
logos/1.jpg,properties1.xlsx,frogs/ab41.jpg,0,0,400,l,0,1,1,0,0,42,42,40,,,['l'],0,[0.500965458151768],2018_Jul_09_0454,60.0069354993,go-nogo,001,11,
logos/1.jpg,properties1.xlsx,frogs/ab64.jpg,0,0,400,l,0,1,1,0,0,43,43,62,,,['l'],0,[0.1677523143516737],2018_Jul_09_0454,60.0069354993,go-nogo,001,11,
logos/1.jpg,properties1.xlsx,frogs/ab79.jpg,0,0,400,l,0,1,1,0,0,44,44,77,,,['l'],0,[0.2345623754663393],2018_Jul_09_0454,60.0069354993,go-nogo,001,11,
logos/1.jpg,properties1.xlsx,frogs/ab11.jpg,0,0,400,l,0,1,1,0,0,45,45,10,,,['l'],0,[0.15105771998787532],2018_Jul_09_0454,60.0069354993,go-nogo,001,11,
logos/1.jpg,properties1.xlsx,frogs/ab8.jpg,0,0,400,l,0,1,1,0,0,46,46,7,,,['l'],0,[0.1677692717858008],2018_Jul_09_0454,60.0069354993,go-nogo,001,11,
logos/1.jpg,properties1.xlsx,frogs/ab78.jpg,0,0,400,l,0,1,1,0,0,47,47,76,,,['l'],0,[0.18465575292066205],2018_Jul_09_0454,60.0069354993,go-nogo,001,11,
logos/1.jpg,properties1.xlsx,frogs/ab45.jpg,0,0,400,l,0,1,1,0,0,48,48,44,,,['l'],0,[0.31777027585485484],2018_Jul_09_0454,60.0069354993,go-nogo,001,11,
logos/1.jpg,properties1.xlsx,frogs/ab66.jpg,0,0,400,l,0,1,1,0,0,49,49,64,,,['l'],0,[0.20100227363582235],2018_Jul_09_0454,60.0069354993,go-nogo,001,11,
logos/1.jpg,properties1.xlsx,frogs/ab49.jpg,0,0,400,l,0,1,1,0,0,50,50,48,,,['l'],0,[0.234576655413548],2018_Jul_09_0454,60.0069354993,go-nogo,001,11,
logos/1.jpg,properties1.xlsx,logos/1.jpg,0,0,400,a,0,1,1,0,0,51,51,85,,,['l'],0,[0.03398448394727893],2018_Jul_09_0454,60.0069354993,go-nogo,001,11,
logos/1.jpg,properties1.xlsx,logos/1.jpg,0,0,400,a,0,1,1,0,0,52,52,83,,,['l'],0,[0.7674158431473188],2018_Jul_09_0454,60.0069354993,go-nogo,001,11,
logos/1.jpg,properties1.xlsx,frogs/ab31.jpg,0,0,400,l,0,1,1,0,0,53,53,30,,,['l'],0,[0.017795488878618926],2018_Jul_09_0454,60.0069354993,go-nogo,001,11,
logos/1.jpg,properties1.xlsx,frogs/ab42.jpg,0,0,400,l,0,1,1,0,0,54,54,41,,,['l'],0,[0.33432296326645883],2018_Jul_09_0454,60.0069354993,go-nogo,001,11,
logos/1.jpg,properties1.xlsx,frogs/ab4.jpg,0,0,400,l,0,1,1,0,0,55,55,3,,,['l'],0,[0.35092964673094684],2018_Jul_09_0454,60.0069354993,go-nogo,001,11,
logos/1.jpg,properties1.xlsx,logos/1.jpg,0,0,400,a,0,1,1,0,0,56,56,88,,,['l'],0,[1.5182526702337782],2018_Jul_09_0454,60.0069354993,go-nogo,001,11,
logos/1.jpg,properties1.xlsx,frogs/ab6.jpg,0,0,400,l,0,1,1,0,0,57,57,5,,,['l'],0,[0.03444456592114875],2018_Jul_09_0454,60.0069354993,go-nogo,001,11,
logos/1.jpg,properties1.xlsx,frogs/ab26.jpg,0,0,400,l,0,1,1,0,0,58,58,25,,,['l'],0,[0.06784580336534418],2018_Jul_09_0454,60.0069354993,go-nogo,001,11,
logos/1.jpg,properties1.xlsx,frogs/ab15.jpg,0,0,400,l,0,1,1,0,0,59,59,14,,,['l'],0,[0.350974717803183],2018_Jul_09_0454,60.0069354993,go-nogo,001,11,
logos/1.jpg,properties1.xlsx,frogs/ab46.jpg,0,0,400,l,0,1,1,0,0,60,60,45,,,['l'],0,[0.950699828863435],2018_Jul_09_0454,60.0069354993,go-nogo,001,11,
logos/1.jpg,properties1.xlsx,logos/1.jpg,0,0,400,a,0,1,1,0,0,61,61,84,,,['l'],0,[0.6347337348051951],2018_Jul_09_0454,60.0069354993,go-nogo,001,11,
logos/1.jpg,properties1.xlsx,logos/1.jpg,0,0,400,a,0,1,1,0,0,62,62,80,,,['l'],0,[1.2005917252245126],2018_Jul_09_0454,60.0069354993,go-nogo,001,11,
logos/1.jpg,properties1.xlsx,frogs/ab62.jpg,0,0,400,l,0,1,1,0,0,63,63,60,,,['l'],0,[0.13461837962677237],2018_Jul_09_0454,60.0069354993,go-nogo,001,11,
logos/1.jpg,properties1.xlsx,frogs/ab20.jpg,0,0,400,l,0,1,1,0,0,64,64,19,,,['l'],0,[0.151226848080114],2018_Jul_09_0454,60.0069354993,go-nogo,001,11,
logos/1.jpg,properties1.xlsx,logos/1.jpg,0,0,400,a,0,1,1,0,0,65,65,89,,,['l'],0,[0.020856752067629714],2018_Jul_09_0454,60.0069354993,go-nogo,001,11,
logos/1.jpg,properties1.xlsx,frogs/ab39.jpg,0,0,400,l,0,1,1,0,0,66,66,38,,,['l'],0,[0.13430243585025892],2018_Jul_09_0454,60.0069354993,go-nogo,001,11,
logos/1.jpg,properties1.xlsx,frogs/ab73.jpg,0,0,400,l,0,1,1,0,0,67,67,71,,,['l'],0,[0.766874990244105],2018_Jul_09_0454,60.0069354993,go-nogo,001,11,
logos/1.jpg,properties1.xlsx,frogs/ab52.jpg,0,0,400,l,0,1,1,0,0,68,68,51,,,['l'],0,[0.950586481798382],2018_Jul_09_0454,60.0069354993,go-nogo,001,11,
logos/1.jpg,properties1.xlsx,frogs/ab71.jpg,0,0,400,l,0,1,1,0,0,69,69,69,,,['l'],0,[0.5510019389475929],2018_Jul_09_0454,60.0069354993,go-nogo,001,11,
logos/1.jpg,properties1.xlsx,frogs/ab23.jpg,0,0,400,l,0,1,1,0,0,70,70,22,,,['l'],0,[0.5009993730200222],2018_Jul_09_0454,60.0069354993,go-nogo,001,11,
logos/1.jpg,properties1.xlsx,frogs/ab58.jpg,0,0,400,l,0,1,1,0,0,71,71,57,,,['l'],0,[0.4174942712925258],2018_Jul_09_0454,60.0069354993,go-nogo,001,11,
logos/1.jpg,properties1.xlsx,frogs/ab19.jpg,0,0,400,l,0,1,1,0,0,72,72,18,,,['l'],0,[0.9009221720698406],2018_Jul_09_0454,60.0069354993,go-nogo,001,11,
logos/1.jpg,properties1.xlsx,frogs/ab81.jpg,0,0,400,l,0,1,1,0,0,73,73,79,,,['l'],0,[1.1007552752125775],2018_Jul_09_0454,60.0069354993,go-nogo,001,11,
logos/1.jpg,properties1.xlsx,frogs/ab33.jpg,0,0,400,l,0,1,1,0,0,74,74,32,,,['l'],0,[0.93469379558519],2018_Jul_09_0454,60.0069354993,go-nogo,001,11,
logos/1.jpg,properties1.xlsx,frogs/ab47.jpg,0,0,400,l,0,1,1,0,0,75,75,46,,,['l'],0,[0.349140191123297],2018_Jul_09_0454,60.0069354993,go-nogo,001,11,
logos/1.jpg,properties1.xlsx,frogs/ab76.jpg,0,0,400,l,0,1,1,0,0,76,76,74,,,['l'],0,[1.3505628306375002],2018_Jul_09_0454,60.0069354993,go-nogo,001,11,
logos/1.jpg,properties1.xlsx,frogs/ab30.jpg,0,0,400,l,0,1,1,0,0,77,77,29,,,['l'],0,[2.1496109830623027],2018_Jul_09_0454,60.0069354993,go-nogo,001,11,
logos/1.jpg,properties1.xlsx,frogs/ab1.jpg,0,0,400,l,0,1,1,0,0,78,78,0,,,['l'],0,[1.6173327294163755],2018_Jul_09_0454,60.0069354993,go-nogo,001,11,
logos/1.jpg,properties1.xlsx,frogs/ab27.jpg,0,0,400,l,0,1,1,0,0,79,79,26,,,['l'],0,[1.2506688146022498],2018_Jul_09_0454,60.0069354993,go-nogo,001,11,
logos/1.jpg,properties1.xlsx,frogs/ab9.jpg,0,0,400,l,0,1,1,0,0,80,80,8,,,['l'],0,[1.1503526477026753],2018_Jul_09_0454,60.0069354993,go-nogo,001,11,
logos/1.jpg,properties1.xlsx,frogs/ab38.jpg,0,0,400,l,0,1,1,0,0,81,81,37,,,['l'],0,[1.4340161675718264],2018_Jul_09_0454,60.0069354993,go-nogo,001,11,
logos/1.jpg,properties1.xlsx,frogs/ab34.jpg,0,0,400,l,0,1,1,0,0,82,82,33,,,['l'],0,[1.6997913789309678],2018_Jul_09_0454,60.0069354993,go-nogo,001,11,
logos/1.jpg,properties1.xlsx,frogs/ab25.jpg,0,0,400,l,0,1,1,0,0,83,83,24,,,['l'],0,[1.8670778100859025],2018_Jul_09_0454,60.0069354993,go-nogo,001,11,
logos/1.jpg,properties1.xlsx,logos/1.jpg,0,0,400,a,0,1,1,0,0,84,84,82,,,['a'],0,[0.42020433708967175],2018_Jul_09_0454,60.0069354993,go-nogo,001,11,
logos/1.jpg,properties1.xlsx,frogs/ab74.jpg,0,0,400,l,0,1,1,0,0,85,85,72,,,['l'],0,[0.18444244624697603],2018_Jul_09_0454,60.0069354993,go-nogo,001,11,
logos/1.jpg,properties1.xlsx,frogs/ab55.jpg,0,0,400,l,0,1,1,0,0,86,86,54,,,['l'],0,[0.5010605090355966],2018_Jul_09_0454,60.0069354993,go-nogo,001,11,
logos/1.jpg,properties1.xlsx,frogs/ab28.jpg,0,0,400,l,0,1,1,0,0,87,87,27,,,['l'],0,[1.2340665936280857],2018_Jul_09_0454,60.0069354993,go-nogo,001,11,
logos/1.jpg,properties1.xlsx,frogs/ab35.jpg,0,0,400,l,0,1,1,0,0,88,88,34,,,['l'],0,[1.783869017206598],2018_Jul_09_0454,60.0069354993,go-nogo,001,11,
logos/1.jpg,properties1.xlsx,frogs/ab44.jpg,0,0,400,l,0,1,1,0,0,89,89,43,,,['l'],0,[1.150663236505352],2018_Jul_09_0454,60.0069354993,go-nogo,001,11,
logos/1.jpg,properties1.xlsx,,,,,,0,1,1,0,,,,,,,,,,2018_Jul_09_0454,60.0069354993,go-nogo,001,11,
logos/2.jpg,properties2.xlsx,logos/2.jpg,0,0,400,a,0,2,2,1,0,0,0,82,space,1.75996795937,['a'],0,[0.4843717158873915],2018_Jul_09_0454,60.0069354993,go-nogo,001,11,
logos/2.jpg,properties2.xlsx,frogs/ab17.jpg,0,0,400,l,0,2,2,1,0,1,1,16,,,['l'],0,[0.0010089673596667126],2018_Jul_09_0454,60.0069354993,go-nogo,001,11,
logos/2.jpg,properties2.xlsx,frogs/ab14.jpg,0,0,400,l,0,2,2,1,0,2,2,13,,,['l'],0,[3.299994868146314],2018_Jul_09_0454,60.0069354993,go-nogo,001,11,
logos/2.jpg,properties2.xlsx,frogs/ab26.jpg,0,0,400,l,0,2,2,1,0,3,3,25,,,['l'],0,[0.13424799355561845],2018_Jul_09_0454,60.0069354993,go-nogo,001,11,
logos/2.jpg,properties2.xlsx,frogs/ab49.jpg,0,0,400,l,0,2,2,1,0,4,4,48,,,['l'],0,[1.1840042304393137],2018_Jul_09_0454,60.0069354993,go-nogo,001,11,
logos/2.jpg,properties2.xlsx,logos/2.jpg,0,0,400,a,0,2,2,1,0,5,5,89,,,['a'],0,[0.08437305464030942],2018_Jul_09_0454,60.0069354993,go-nogo,001,11,
logos/2.jpg,properties2.xlsx,frogs/ab65.jpg,0,0,400,l,0,2,2,1,0,6,6,63,,,['l'],0,[0.15093277046980802],2018_Jul_09_0454,60.0069354993,go-nogo,001,11,
logos/2.jpg,properties2.xlsx,frogs/ab7.jpg,0,0,400,l,0,2,2,1,0,7,7,6,,,['l'],0,[0.03442850098508643],2018_Jul_09_0454,60.0069354993,go-nogo,001,11,
logos/2.jpg,properties2.xlsx,frogs/ab13.jpg,0,0,400,l,0,2,2,1,0,8,8,12,,,['l'],0,[0.25097984966123477],2018_Jul_09_0454,60.0069354993,go-nogo,001,11,
logos/2.jpg,properties2.xlsx,frogs/ab38.jpg,0,0,400,l,0,2,2,1,0,9,9,37,,,['l'],0,[0.9510465637722518],2018_Jul_09_0454,60.0069354993,go-nogo,001,11,
logos/2.jpg,properties2.xlsx,frogs/ab60.jpg,0,0,400,l,0,2,2,1,0,10,10,58,,,['l'],0,[1.0007077497721184],2018_Jul_09_0454,60.0069354993,go-nogo,001,11,
logos/2.jpg,properties2.xlsx,frogs/ab25.jpg,0,0,400,l,0,2,2,1,0,11,11,24,,,['l'],0,[1.3006535306049045],2018_Jul_09_0454,60.0069354993,go-nogo,001,11,
logos/2.jpg,properties2.xlsx,frogs/ab75.jpg,0,0,400,l,0,2,2,1,0,12,12,73,,,['l'],0,[1.6840062385526835],2018_Jul_09_0454,60.0069354993,go-nogo,001,11,
logos/2.jpg,properties2.xlsx,frogs/ab29.jpg,0,0,400,l,0,2,2,1,0,13,13,28,,,['l'],0,[1.0840883482305799],2018_Jul_09_0454,60.0069354993,go-nogo,001,11,
logos/2.jpg,properties2.xlsx,frogs/ab56.jpg,0,0,400,l,0,2,2,1,0,14,14,55,,,['l'],0,[0.6309562431197264],2018_Jul_09_0454,60.0069354993,go-nogo,001,11,
logos/2.jpg,properties2.xlsx,frogs/ab74.jpg,0,0,400,l,0,2,2,1,0,15,15,72,,,['l'],0,[1.1679205499531236],2018_Jul_09_0454,60.0069354993,go-nogo,001,11,
logos/2.jpg,properties2.xlsx,frogs/ab44.jpg,0,0,400,l,0,2,2,1,0,16,16,43,,,['l'],0,[1.8841186931167613],2018_Jul_09_0454,60.0069354993,go-nogo,001,11,
logos/2.jpg,properties2.xlsx,frogs/ab45.jpg,0,0,400,l,0,2,2,1,0,17,17,44,,,['l'],0,[1.0007929831917863],2018_Jul_09_0454,60.0069354993,go-nogo,001,11,
logos/2.jpg,properties2.xlsx,frogs/ab20.jpg,0,0,400,l,0,2,2,1,0,18,18,19,,,['l'],0,[1.4840704983071191],2018_Jul_09_0454,60.0069354993,go-nogo,001,11,
logos/2.jpg,properties2.xlsx,frogs/ab11.jpg,0,0,400,l,0,2,2,1,0,19,19,10,,,['l'],0,[0.9840368065561051],2018_Jul_09_0454,60.0069354993,go-nogo,001,11,
logos/2.jpg,properties2.xlsx,frogs/ab35.jpg,0,0,400,l,0,2,2,1,0,20,20,34,,,['l'],0,[0.700961441922118],2018_Jul_09_0454,60.0069354993,go-nogo,001,11,
logos/2.jpg,properties2.xlsx,frogs/ab76.jpg,0,0,400,l,0,2,2,1,0,21,21,74,,,['l'],0,[1.5341948900095304],2018_Jul_09_0454,60.0069354993,go-nogo,001,11,
logos/2.jpg,properties2.xlsx,frogs/ab54.jpg,0,0,400,l,0,2,2,1,0,22,22,53,,,['l'],0,[2.4836554874054855],2018_Jul_09_0454,60.0069354993,go-nogo,001,11,
logos/2.jpg,properties2.xlsx,frogs/ab34.jpg,0,0,400,l,0,2,2,1,0,23,23,33,,,['l'],0,[1.900524118602334],2018_Jul_09_0454,60.0069354993,go-nogo,001,11,
logos/2.jpg,properties2.xlsx,logos/2.jpg,0,0,400,a,0,2,2,1,0,24,24,81,,,['a'],0,[0.05119538757571718],2018_Jul_09_0454,60.0069354993,go-nogo,001,11,
logos/2.jpg,properties2.xlsx,frogs/ab55.jpg,0,0,400,l,0,2,2,1,0,25,25,54,,,['l'],0,[0.13432340951112565],2018_Jul_09_0454,60.0069354993,go-nogo,001,11,
logos/2.jpg,properties2.xlsx,frogs/ab30.jpg,0,0,400,l,0,2,2,1,0,26,26,29,,,['l'],0,[0.5508631557313493],2018_Jul_09_0454,60.0069354993,go-nogo,001,11,
logos/2.jpg,properties2.xlsx,frogs/ab9.jpg,0,0,400,l,0,2,2,1,0,27,27,8,,,['l'],0,[1.6002896151330788],2018_Jul_09_0454,60.0069354993,go-nogo,001,11,
logos/2.jpg,properties2.xlsx,logos/2.jpg,0,0,400,a,0,2,2,1,0,28,28,83,,,['a'],0,[0.0010089673596667126],2018_Jul_09_0454,60.0069354993,go-nogo,001,11,
logos/2.jpg,properties2.xlsx,logos/2.jpg,0,0,400,a,0,2,2,1,0,29,29,86,,,['a'],0,[0.05107713177858386],2018_Jul_09_0454,60.0069354993,go-nogo,001,11,
logos/2.jpg,properties2.xlsx,frogs/ab31.jpg,0,0,400,l,0,2,2,1,0,30,30,30,,,['l'],0,[0.001026817291858606],2018_Jul_09_0454,60.0069354993,go-nogo,001,11,
logos/2.jpg,properties2.xlsx,logos/2.jpg,0,0,400,a,0,2,2,1,0,31,31,80,,,['l'],0,[1.300819088719436],2018_Jul_09_0454,60.0069354993,go-nogo,001,11,
logos/2.jpg,properties2.xlsx,frogs/ab63.jpg,0,0,400,l,0,2,2,1,0,32,32,61,,,['l'],0,[0.15054676570434822],2018_Jul_09_0454,60.0069354993,go-nogo,001,11,
logos/2.jpg,properties2.xlsx,frogs/ab70.jpg,0,0,400,l,0,2,2,1,0,33,33,68,,,['l'],0,[0.3508667257192428],2018_Jul_09_0454,60.0069354993,go-nogo,001,11,
logos/2.jpg,properties2.xlsx,frogs/ab40.jpg,0,0,400,l,0,2,2,1,0,34,34,39,,,['l'],0,[1.1673359647102188],2018_Jul_09_0454,60.0069354993,go-nogo,001,11,
logos/2.jpg,properties2.xlsx,frogs/ab61.jpg,0,0,400,l,0,2,2,1,0,35,35,59,,,['l'],0,[1.7671012381179025],2018_Jul_09_0454,60.0069354993,go-nogo,001,11,
logos/2.jpg,properties2.xlsx,frogs/ab78.jpg,0,0,400,l,0,2,2,1,0,36,36,76,,,['l'],0,[1.8510115332828718],2018_Jul_09_0454,60.0069354993,go-nogo,001,11,
logos/2.jpg,properties2.xlsx,frogs/ab2.jpg,0,0,400,l,0,2,2,1,0,37,37,1,,,['l'],0,[1.235295115140616],2018_Jul_09_0454,60.0069354993,go-nogo,001,11,
logos/2.jpg,properties2.xlsx,frogs/ab28.jpg,0,0,400,l,0,2,2,1,0,38,38,27,,,['l'],0,[1.3340016645015567],2018_Jul_09_0454,60.0069354993,go-nogo,001,11,
logos/2.jpg,properties2.xlsx,frogs/ab4.jpg,0,0,400,l,0,2,2,1,0,39,39,3,,,['l'],0,[2.933559878707456],2018_Jul_09_0454,60.0069354993,go-nogo,001,11,
logos/2.jpg,properties2.xlsx,frogs/ab57.jpg,0,0,400,l,0,2,2,1,0,40,40,56,,,['l'],0,[0.20105805467028404],2018_Jul_09_0454,60.0069354993,go-nogo,001,11,
logos/2.jpg,properties2.xlsx,frogs/ab80.jpg,0,0,400,l,0,2,2,1,0,41,41,78,,,['l'],0,[2.1504227086843457],2018_Jul_09_0454,60.0069354993,go-nogo,001,11,
logos/2.jpg,properties2.xlsx,frogs/ab12.jpg,0,0,400,l,0,2,2,1,0,42,42,11,,,['l'],0,[1.2672393519605976],2018_Jul_09_0454,60.0069354993,go-nogo,001,11,
logos/2.jpg,properties2.xlsx,frogs/ab41.jpg,0,0,400,l,0,2,2,1,0,43,43,40,,,['l'],0,[1.767055720789358],2018_Jul_09_0454,60.0069354993,go-nogo,001,11,
logos/2.jpg,properties2.xlsx,frogs/ab15.jpg,0,0,400,l,0,2,2,1,0,44,44,14,,,['l'],0,[1.4175616547800018],2018_Jul_09_0454,60.0069354993,go-nogo,001,11,
logos/2.jpg,properties2.xlsx,frogs/ab64.jpg,0,0,400,l,0,2,2,1,0,45,45,62,,,['l'],0,[1.4005899402254727],2018_Jul_09_0454,60.0069354993,go-nogo,001,11,
logos/2.jpg,properties2.xlsx,frogs/ab46.jpg,0,0,400,l,0,2,2,1,0,46,46,45,,,['l'],0,[0.034365133731625974],2018_Jul_09_0454,60.0069354993,go-nogo,001,11,
logos/2.jpg,properties2.xlsx,frogs/ab8.jpg,0,0,400,l,0,2,2,1,0,47,47,7,,,['l'],0,[1.350661451513588],2018_Jul_09_0454,60.0069354993,go-nogo,001,11,
logos/2.jpg,properties2.xlsx,frogs/ab36.jpg,0,0,400,l,0,2,2,1,0,48,48,35,,,['l'],0,[1.3005995345592964],2018_Jul_09_0454,60.0069354993,go-nogo,001,11,
logos/2.jpg,properties2.xlsx,frogs/ab21.jpg,0,0,400,l,0,2,2,1,0,49,49,20,,,['l'],0,[1.2174170703365235],2018_Jul_09_0454,60.0069354993,go-nogo,001,11,
logos/2.jpg,properties2.xlsx,frogs/ab53.jpg,0,0,400,l,0,2,2,1,0,50,50,52,,,['l'],0,[1.334078419211437],2018_Jul_09_0454,60.0069354993,go-nogo,001,11,
logos/2.jpg,properties2.xlsx,logos/2.jpg,0,0,400,a,0,2,2,1,0,51,51,85,,,['l'],0,[0.9841541698551737],2018_Jul_09_0454,60.0069354993,go-nogo,001,11,
logos/2.jpg,properties2.xlsx,frogs/ab52.jpg,0,0,400,l,0,2,2,1,0,52,52,51,,,['l'],0,[0.35085824700217927],2018_Jul_09_0454,60.0069354993,go-nogo,001,11,
logos/2.jpg,properties2.xlsx,frogs/ab37.jpg,0,0,400,l,0,2,2,1,0,53,53,36,,,['l'],0,[0.5180871121265227],2018_Jul_09_0454,60.0069354993,go-nogo,001,11,
logos/2.jpg,properties2.xlsx,frogs/ab16.jpg,0,0,400,l,0,2,2,1,0,54,54,15,,,['l'],0,[0.8176183283139835],2018_Jul_09_0454,60.0069354993,go-nogo,001,11,
logos/2.jpg,properties2.xlsx,frogs/ab69.jpg,0,0,400,l,0,2,2,1,0,55,55,67,,,['l'],0,[0.850729950623645],2018_Jul_09_0454,60.0069354993,go-nogo,001,11,
logos/2.jpg,properties2.xlsx,logos/2.jpg,0,0,400,a,0,2,2,1,0,56,56,88,,,['a'],0,[0.05093477858463302],2018_Jul_09_0454,60.0069354993,go-nogo,001,11,
logos/2.jpg,properties2.xlsx,frogs/ab68.jpg,0,0,400,l,0,2,2,1,0,57,57,66,,,['l'],0,[0.11764845006837277],2018_Jul_09_0454,60.0069354993,go-nogo,001,11,
logos/2.jpg,properties2.xlsx,frogs/ab71.jpg,0,0,400,l,0,2,2,1,0,58,58,69,,,['l'],0,[0.11711384462978458],2018_Jul_09_0454,60.0069354993,go-nogo,001,11,
logos/2.jpg,properties2.xlsx,frogs/ab48.jpg,0,0,400,l,0,2,2,1,0,59,59,47,,,['l'],0,[0.18434784161217976],2018_Jul_09_0454,60.0069354993,go-nogo,001,11,
logos/2.jpg,properties2.xlsx,frogs/ab67.jpg,0,0,400,l,0,2,2,1,0,60,60,65,,,['l'],0,[0.21758396719087614],2018_Jul_09_0454,60.0069354993,go-nogo,001,11,
logos/2.jpg,properties2.xlsx,frogs/ab18.jpg,0,0,400,l,0,2,2,1,0,61,61,17,,,['l'],0,[0.6507232568983454],2018_Jul_09_0454,60.0069354993,go-nogo,001,11,
logos/2.jpg,properties2.xlsx,frogs/ab43.jpg,0,0,400,l,0,2,2,1,0,62,62,42,,,['l'],0,[0.10081819622428156],2018_Jul_09_0454,60.0069354993,go-nogo,001,11,
logos/2.jpg,properties2.xlsx,frogs/ab79.jpg,0,0,400,l,0,2,2,1,0,63,63,77,,,['l'],0,[0.5846762803412275],2018_Jul_09_0454,60.0069354993,go-nogo,001,11,
logos/2.jpg,properties2.xlsx,frogs/ab42.jpg,0,0,400,l,0,2,2,1,0,64,64,41,,,['l'],0,[0.0010393122356617823],2018_Jul_09_0454,60.0069354993,go-nogo,001,11,
logos/2.jpg,properties2.xlsx,frogs/ab23.jpg,0,0,400,l,0,2,2,1,0,65,65,22,,,['l'],0,[0.8674348087079125],2018_Jul_09_0454,60.0069354993,go-nogo,001,11,
logos/2.jpg,properties2.xlsx,frogs/ab39.jpg,0,0,400,l,0,2,2,1,0,66,66,38,,,['l'],0,[0.9507069688406773],2018_Jul_09_0454,60.0069354993,go-nogo,001,11,
logos/2.jpg,properties2.xlsx,frogs/ab73.jpg,0,0,400,l,0,2,2,1,0,67,67,71,,,['l'],0,[0.3177533184134518],2018_Jul_09_0454,60.0069354993,go-nogo,001,11,
logos/2.jpg,properties2.xlsx,frogs/ab66.jpg,0,0,400,l,0,2,2,1,0,68,68,64,,,['l'],0,[0.6343481762960437],2018_Jul_09_0454,60.0069354993,go-nogo,001,11,
logos/2.jpg,properties2.xlsx,frogs/ab51.jpg,0,0,400,l,0,2,2,1,0,69,69,50,,,['l'],0,[0.434296411491232],2018_Jul_09_0454,60.0069354993,go-nogo,001,11,
logos/2.jpg,properties2.xlsx,frogs/ab81.jpg,0,0,400,l,0,2,2,1,0,70,70,79,,,['l'],0,[0.48423427141824504],2018_Jul_09_0454,60.0069354993,go-nogo,001,11,
logos/2.jpg,properties2.xlsx,frogs/ab58.jpg,0,0,400,l,0,2,2,1,0,71,71,57,,,['l'],0,[0.6869496922008693],2018_Jul_09_0454,60.0069354993,go-nogo,001,11,
logos/2.jpg,properties2.xlsx,frogs/ab10.jpg,0,0,400,l,0,2,2,1,0,72,72,9,,,['l'],0,[1.200798784419021],2018_Jul_09_0454,60.0069354993,go-nogo,001,11,
logos/2.jpg,properties2.xlsx,frogs/ab5.jpg,0,0,400,l,0,2,2,1,0,73,73,4,,,['l'],0,[0.5511023448052583],2018_Jul_09_0454,60.0069354993,go-nogo,001,11,
logos/2.jpg,properties2.xlsx,frogs/ab62.jpg,0,0,400,l,0,2,2,1,0,74,74,60,,,['l'],0,[0.48474567195080454],2018_Jul_09_0454,60.0069354993,go-nogo,001,11,
logos/2.jpg,properties2.xlsx,frogs/ab47.jpg,0,0,400,l,0,2,2,1,0,75,75,46,,,['l'],0,[0.08210165089258226],2018_Jul_09_0454,60.0069354993,go-nogo,001,11,
logos/2.jpg,properties2.xlsx,frogs/ab1.jpg,0,0,400,l,0,2,2,1,0,76,76,0,,,['l'],0,[0.5008436323769274],2018_Jul_09_0454,60.0069354993,go-nogo,001,11,
logos/2.jpg,properties2.xlsx,frogs/ab50.jpg,0,0,400,l,0,2,2,1,0,77,77,49,,,['l'],0,[0.56763004232198],2018_Jul_09_0454,60.0069354993,go-nogo,001,11,
logos/2.jpg,properties2.xlsx,frogs/ab32.jpg,0,0,400,l,0,2,2,1,0,78,78,31,,,['l'],0,[0.46756109697162174],2018_Jul_09_0454,60.0069354993,go-nogo,001,11,
logos/2.jpg,properties2.xlsx,frogs/ab6.jpg,0,0,400,l,0,2,2,1,0,79,79,5,,,['l'],0,[1.017394757924194],2018_Jul_09_0454,60.0069354993,go-nogo,001,11,
logos/2.jpg,properties2.xlsx,frogs/ab22.jpg,0,0,400,l,0,2,2,1,0,80,80,21,,,['l'],0,[1.0011196369305253],2018_Jul_09_0454,60.0069354993,go-nogo,001,11,
logos/2.jpg,properties2.xlsx,logos/2.jpg,0,0,400,a,0,2,2,1,0,81,81,87,,,['a'],0,[0.05110122919722926],2018_Jul_09_0454,60.0069354993,go-nogo,001,11,
logos/2.jpg,properties2.xlsx,frogs/ab3.jpg,0,0,400,l,0,2,2,1,0,82,82,2,,,['l'],0,[0.0843453872439568],2018_Jul_09_0454,60.0069354993,go-nogo,001,11,
logos/2.jpg,properties2.xlsx,frogs/ab72.jpg,0,0,400,l,0,2,2,1,0,83,83,70,,,['l'],0,[0.16719539649784565],2018_Jul_09_0454,60.0069354993,go-nogo,001,11,
logos/2.jpg,properties2.xlsx,logos/2.jpg,0,0,400,a,0,2,2,1,0,84,84,84,,,['a'],0,[0.01802664548449684],2018_Jul_09_0454,60.0069354993,go-nogo,001,11,
logos/2.jpg,properties2.xlsx,frogs/ab33.jpg,0,0,400,l,0,2,2,1,0,85,85,32,,,['l'],0,[0.017955692012037616],2018_Jul_09_0454,60.0069354993,go-nogo,001,11,
logos/2.jpg,properties2.xlsx,frogs/ab77.jpg,0,0,400,l,0,2,2,1,0,86,86,75,,,['l'],0,[0.034686432489252184],2018_Jul_09_0454,60.0069354993,go-nogo,001,11,
logos/2.jpg,properties2.xlsx,frogs/ab27.jpg,0,0,400,l,0,2,2,1,0,87,87,26,,,['l'],0,[0.0010299410278094001],2018_Jul_09_0454,60.0069354993,go-nogo,001,11,
logos/2.jpg,properties2.xlsx,frogs/ab24.jpg,0,0,400,l,0,2,2,1,0,88,88,23,,,['l'],0,[0.7343649106041994],2018_Jul_09_0454,60.0069354993,go-nogo,001,11,
logos/2.jpg,properties2.xlsx,frogs/ab19.jpg,0,0,400,l,0,2,2,1,0,89,89,18,,,['l'],0,[0.6175781659621862],2018_Jul_09_0454,60.0069354993,go-nogo,001,11,
logos/2.jpg,properties2.xlsx,,,,,,0,2,2,1,,,,,,,,,,2018_Jul_09_0454,60.0069354993,go-nogo,001,11,
logos/4.jpg,properties4.xlsx,frogs/ab62.jpg,0,0,400,l,0,3,3,3,0,0,0,60,space,2.00075996081,['l'],0,[1.2842150827491423],2018_Jul_09_0454,60.0069354993,go-nogo,001,11,
logos/4.jpg,properties4.xlsx,frogs/ab58.jpg,0,0,400,l,0,3,3,3,0,1,1,57,,,['l'],0,[0.5672400213370565],2018_Jul_09_0454,60.0069354993,go-nogo,001,11,
logos/4.jpg,properties4.xlsx,frogs/ab10.jpg,0,0,400,l,0,3,3,3,0,2,2,9,,,['l'],0,[0.8508218777715228],2018_Jul_09_0454,60.0069354993,go-nogo,001,11,
logos/4.jpg,properties4.xlsx,frogs/ab23.jpg,0,0,400,l,0,3,3,3,0,3,3,22,,,['l'],0,[0.8841847378644161],2018_Jul_09_0454,60.0069354993,go-nogo,001,11,
logos/4.jpg,properties4.xlsx,frogs/ab57.jpg,0,0,400,l,0,3,3,3,0,4,4,56,,,['l'],0,[1.100670488041942],2018_Jul_09_0454,60.0069354993,go-nogo,001,11,
logos/4.jpg,properties4.xlsx,frogs/ab31.jpg,0,0,400,l,0,3,3,3,0,5,5,30,,,['l'],0,[1.283950903765799],2018_Jul_09_0454,60.0069354993,go-nogo,001,11,
logos/4.jpg,properties4.xlsx,frogs/ab69.jpg,0,0,400,l,0,3,3,3,0,6,6,67,,,['l'],0,[1.1508104984386591],2018_Jul_09_0454,60.0069354993,go-nogo,001,11,
logos/4.jpg,properties4.xlsx,frogs/ab80.jpg,0,0,400,l,0,3,3,3,0,7,7,78,,,['l'],0,[0.9508171921625035],2018_Jul_09_0454,60.0069354993,go-nogo,001,11,
logos/4.jpg,properties4.xlsx,frogs/ab35.jpg,0,0,400,l,0,3,3,3,0,8,8,34,,,['l'],0,[0.7342238961427938],2018_Jul_09_0454,60.0069354993,go-nogo,001,11,
logos/4.jpg,properties4.xlsx,frogs/ab26.jpg,0,0,400,l,0,3,3,3,0,9,9,25,,,['l'],0,[0.9671637128776638],2018_Jul_09_0454,60.0069354993,go-nogo,001,11,
logos/4.jpg,properties4.xlsx,frogs/ab3.jpg,0,0,400,l,0,3,3,3,0,10,10,2,,,['l'],0,[1.0007296159383259],2018_Jul_09_0454,60.0069354993,go-nogo,001,11,
logos/4.jpg,properties4.xlsx,frogs/ab70.jpg,0,0,400,l,0,3,3,3,0,11,11,68,,,['l'],0,[1.433460142216063],2018_Jul_09_0454,60.0069354993,go-nogo,001,11,
logos/4.jpg,properties4.xlsx,frogs/ab53.jpg,0,0,400,l,0,3,3,3,0,12,12,52,,,['l'],0,[0.3509787340371986],2018_Jul_09_0454,60.0069354993,go-nogo,001,11,
logos/4.jpg,properties4.xlsx,frogs/ab9.jpg,0,0,400,l,0,3,3,3,0,13,13,8,,,['l'],0,[0.5506123641971499],2018_Jul_09_0454,60.0069354993,go-nogo,001,11,
logos/4.jpg,properties4.xlsx,logos/4.jpg,0,0,400,a,0,3,3,3,0,14,14,81,,,['a'],0,[0.08448863294324838],2018_Jul_09_0454,60.0069354993,go-nogo,001,11,
logos/4.jpg,properties4.xlsx,frogs/ab43.jpg,0,0,400,l,0,3,3,3,0,15,15,42,,,['l'],0,[0.1010997788835084],2018_Jul_09_0454,60.0069354993,go-nogo,001,11,
logos/4.jpg,properties4.xlsx,frogs/ab32.jpg,0,0,400,l,0,3,3,3,0,16,16,31,,,['l'],0,[0.15096490034193266],2018_Jul_09_0454,60.0069354993,go-nogo,001,11,
logos/4.jpg,properties4.xlsx,frogs/ab73.jpg,0,0,400,l,0,3,3,3,0,17,17,71,,,['l'],0,[0.2176236832892755],2018_Jul_09_0454,60.0069354993,go-nogo,001,11,
logos/4.jpg,properties4.xlsx,frogs/ab30.jpg,0,0,400,l,0,3,3,3,0,18,18,29,,,['l'],0,[0.5341016241218313],2018_Jul_09_0454,60.0069354993,go-nogo,001,11,
logos/4.jpg,properties4.xlsx,frogs/ab66.jpg,0,0,400,l,0,3,3,3,0,19,19,64,,,['l'],0,[0.41683694757375633],2018_Jul_09_0454,60.0069354993,go-nogo,001,11,
logos/4.jpg,properties4.xlsx,frogs/ab24.jpg,0,0,400,l,0,3,3,3,0,20,20,23,,,['l'],0,[0.8176464419520926],2018_Jul_09_0454,60.0069354993,go-nogo,001,11,
logos/4.jpg,properties4.xlsx,logos/4.jpg,0,0,400,a,0,3,3,3,0,21,21,88,,,['a'],0,[0.21764108696515905],2018_Jul_09_0454,60.0069354993,go-nogo,001,11,
logos/4.jpg,properties4.xlsx,frogs/ab72.jpg,0,0,400,l,0,3,3,3,0,22,22,70,,,['l'],0,[0.017718734168738592],2018_Jul_09_0454,60.0069354993,go-nogo,001,11,
logos/4.jpg,properties4.xlsx,frogs/ab61.jpg,0,0,400,l,0,3,3,3,0,23,23,59,,,['l'],0,[0.5008592510566814],2018_Jul_09_0454,60.0069354993,go-nogo,001,11,
logos/4.jpg,properties4.xlsx,frogs/ab1.jpg,0,0,400,l,0,3,3,3,0,24,24,0,,,['l'],0,[0.301341199206945],2018_Jul_09_0454,60.0069354993,go-nogo,001,11,
logos/4.jpg,properties4.xlsx,frogs/ab40.jpg,0,0,400,l,0,3,3,3,0,25,25,39,,,['l'],0,[0.13357638989691623],2018_Jul_09_0454,60.0069354993,go-nogo,001,11,
logos/4.jpg,properties4.xlsx,logos/4.jpg,0,0,400,a,0,3,3,3,0,26,26,84,,,['a'],0,[0.13432340951112565],2018_Jul_09_0454,60.0069354993,go-nogo,001,11,
logos/4.jpg,properties4.xlsx,logos/4.jpg,0,0,400,a,0,3,3,3,0,27,27,82,,,['a'],0,[0.000974606242380105],2018_Jul_09_0454,60.0069354993,go-nogo,001,11,
logos/4.jpg,properties4.xlsx,frogs/ab56.jpg,0,0,400,l,0,3,3,3,0,28,28,55,,,['l'],0,[0.166667038538435],2018_Jul_09_0454,60.0069354993,go-nogo,001,11,
logos/4.jpg,properties4.xlsx,logos/4.jpg,0,0,400,a,0,3,3,3,0,29,29,83,,,['a'],0,[0.0010330647637601942],2018_Jul_09_0454,60.0069354993,go-nogo,001,11,
logos/4.jpg,properties4.xlsx,frogs/ab18.jpg,0,0,400,l,0,3,3,3,0,30,30,17,,,['l'],0,[0.08434226350073004],2018_Jul_09_0454,60.0069354993,go-nogo,001,11,
logos/4.jpg,properties4.xlsx,frogs/ab15.jpg,0,0,400,l,0,3,3,3,0,31,31,14,,,['l'],0,[0.7842594844551058],2018_Jul_09_0454,60.0069354993,go-nogo,001,11,
logos/4.jpg,properties4.xlsx,frogs/ab81.jpg,0,0,400,l,0,3,3,3,0,32,32,79,,,['l'],0,[0.08441009323723847],2018_Jul_09_0454,60.0069354993,go-nogo,001,11,
logos/4.jpg,properties4.xlsx,frogs/ab52.jpg,0,0,400,l,0,3,3,3,0,33,33,51,,,['l'],0,[0.3342595960129984],2018_Jul_09_0454,60.0069354993,go-nogo,001,11,
logos/4.jpg,properties4.xlsx,frogs/ab25.jpg,0,0,400,l,0,3,3,3,0,34,34,24,,,['l'],0,[0.40099156367068645],2018_Jul_09_0454,60.0069354993,go-nogo,001,11,
logos/4.jpg,properties4.xlsx,frogs/ab27.jpg,0,0,400,l,0,3,3,3,0,35,35,26,,,['l'],0,[0.9008003462877241],2018_Jul_09_0454,60.0069354993,go-nogo,001,11,
logos/4.jpg,properties4.xlsx,frogs/ab75.jpg,0,0,400,l,0,3,3,3,0,36,36,73,,,['l'],0,[0.2677083589005633],2018_Jul_09_0454,60.0069354993,go-nogo,001,11,
logos/4.jpg,properties4.xlsx,frogs/ab4.jpg,0,0,400,l,0,3,3,3,0,37,37,3,,,['l'],0,[0.43415048831229797],2018_Jul_09_0454,60.0069354993,go-nogo,001,11,
logos/4.jpg,properties4.xlsx,frogs/ab45.jpg,0,0,400,l,0,3,3,3,0,38,38,44,,,['l'],0,[0.46768738522951026],2018_Jul_09_0454,60.0069354993,go-nogo,001,11,
logos/4.jpg,properties4.xlsx,frogs/ab79.jpg,0,0,400,l,0,3,3,3,0,39,39,77,,,['l'],0,[0.20105850091931643],2018_Jul_09_0454,60.0069354993,go-nogo,001,11,
logos/4.jpg,properties4.xlsx,frogs/ab39.jpg,0,0,400,l,0,3,3,3,0,40,40,38,,,['l'],0,[0.23438566114782589],2018_Jul_09_0454,60.0069354993,go-nogo,001,11,
logos/4.jpg,properties4.xlsx,frogs/ab41.jpg,0,0,400,l,0,3,3,3,0,41,41,40,,,['l'],0,[1.1007066341553582],2018_Jul_09_0454,60.0069354993,go-nogo,001,11,
logos/4.jpg,properties4.xlsx,frogs/ab44.jpg,0,0,400,l,0,3,3,3,0,42,42,43,,,['l'],0,[0.45082410900795367],2018_Jul_09_0454,60.0069354993,go-nogo,001,11,
logos/4.jpg,properties4.xlsx,frogs/ab64.jpg,0,0,400,l,0,3,3,3,0,43,43,62,,,['l'],0,[0.20097415999043733],2018_Jul_09_0454,60.0069354993,go-nogo,001,11,
logos/4.jpg,properties4.xlsx,frogs/ab55.jpg,0,0,400,l,0,3,3,3,0,44,44,54,,,['l'],0,[0.28430343990476103],2018_Jul_09_0454,60.0069354993,go-nogo,001,11,
logos/4.jpg,properties4.xlsx,frogs/ab60.jpg,0,0,400,l,0,3,3,3,0,45,45,58,,,['l'],0,[0.7007552752111224],2018_Jul_09_0454,60.0069354993,go-nogo,001,11,
logos/4.jpg,properties4.xlsx,frogs/ab68.jpg,0,0,400,l,0,3,3,3,0,46,46,66,,,['l'],0,[0.3009069996260223],2018_Jul_09_0454,60.0069354993,go-nogo,001,11,
logos/4.jpg,properties4.xlsx,frogs/ab20.jpg,0,0,400,l,0,3,3,3,0,47,47,19,,,['l'],0,[0.5506110254573287],2018_Jul_09_0454,60.0069354993,go-nogo,001,11,
logos/4.jpg,properties4.xlsx,frogs/ab11.jpg,0,0,400,l,0,3,3,3,0,48,48,10,,,['l'],0,[0.0677088051525061],2018_Jul_09_0454,60.0069354993,go-nogo,001,11,
logos/4.jpg,properties4.xlsx,frogs/ab13.jpg,0,0,400,l,0,3,3,3,0,49,49,12,,,['l'],0,[0.7674078106792876],2018_Jul_09_0454,60.0069354993,go-nogo,001,11,
logos/4.jpg,properties4.xlsx,logos/4.jpg,0,0,400,a,0,3,3,3,0,50,50,80,,,['a'],0,[0.05114853151462739],2018_Jul_09_0454,60.0069354993,go-nogo,001,11,
logos/4.jpg,properties4.xlsx,frogs/ab65.jpg,0,0,400,l,0,3,3,3,0,51,51,63,,,['l'],0,[0.08430834863975178],2018_Jul_09_0454,60.0069354993,go-nogo,001,11,
logos/4.jpg,properties4.xlsx,logos/4.jpg,0,0,400,a,0,3,3,3,0,52,52,89,,,['a'],0,[0.0009772837365744635],2018_Jul_09_0454,60.0069354993,go-nogo,001,11,
logos/4.jpg,properties4.xlsx,frogs/ab16.jpg,0,0,400,l,0,3,3,3,0,53,53,15,,,['l'],0,[0.1510086326743476],2018_Jul_09_0454,60.0069354993,go-nogo,001,11,
logos/4.jpg,properties4.xlsx,frogs/ab49.jpg,0,0,400,l,0,3,3,3,0,54,54,48,,,['l'],0,[0.3344238153731567],2018_Jul_09_0454,60.0069354993,go-nogo,001,11,
logos/4.jpg,properties4.xlsx,frogs/ab6.jpg,0,0,400,l,0,3,3,3,0,55,55,5,,,['l'],0,[0.0009763912312337197],2018_Jul_09_0454,60.0069354993,go-nogo,001,11,
logos/4.jpg,properties4.xlsx,frogs/ab76.jpg,0,0,400,l,0,3,3,3,0,56,56,74,,,['l'],0,[0.7008771009932389],2018_Jul_09_0454,60.0069354993,go-nogo,001,11,
logos/4.jpg,properties4.xlsx,frogs/ab38.jpg,0,0,400,l,0,3,3,3,0,57,57,37,,,['l'],0,[0.7675037540611811],2018_Jul_09_0454,60.0069354993,go-nogo,001,11,
logos/4.jpg,properties4.xlsx,frogs/ab63.jpg,0,0,400,l,0,3,3,3,0,58,58,61,,,['l'],0,[0.40096478877967456],2018_Jul_09_0454,60.0069354993,go-nogo,001,11,
logos/4.jpg,properties4.xlsx,frogs/ab14.jpg,0,0,400,l,0,3,3,3,0,59,59,13,,,['l'],0,[0.3176957523828605],2018_Jul_09_0454,60.0069354993,go-nogo,001,11,
logos/4.jpg,properties4.xlsx,frogs/ab54.jpg,0,0,400,l,0,3,3,3,0,60,60,53,,,['l'],0,[0.5675448089023121],2018_Jul_09_0454,60.0069354993,go-nogo,001,11,
logos/4.jpg,properties4.xlsx,frogs/ab46.jpg,0,0,400,l,0,3,3,3,0,61,61,45,,,['l'],0,[0.484160194209835],2018_Jul_09_0454,60.0069354993,go-nogo,001,11,
logos/4.jpg,properties4.xlsx,frogs/ab19.jpg,0,0,400,l,0,3,3,3,0,62,62,18,,,['l'],0,[0.5675274052191526],2018_Jul_09_0454,60.0069354993,go-nogo,001,11,
logos/4.jpg,properties4.xlsx,frogs/ab36.jpg,0,0,400,l,0,3,3,3,0,63,63,35,,,['l'],0,[0.9668879314340302],2018_Jul_09_0454,60.0069354993,go-nogo,001,11,
logos/4.jpg,properties4.xlsx,frogs/ab78.jpg,0,0,400,l,0,3,3,3,0,64,64,76,,,['l'],0,[1.5504142299614614],2018_Jul_09_0454,60.0069354993,go-nogo,001,11,
logos/4.jpg,properties4.xlsx,frogs/ab71.jpg,0,0,400,l,0,3,3,3,0,65,65,69,,,['l'],0,[1.0340366949967574],2018_Jul_09_0454,60.0069354993,go-nogo,001,11,
logos/4.jpg,properties4.xlsx,frogs/ab8.jpg,0,0,400,l,0,3,3,3,0,66,66,7,,,['l'],0,[1.7338414613695932],2018_Jul_09_0454,60.0069354993,go-nogo,001,11,
logos/4.jpg,properties4.xlsx,frogs/ab77.jpg,0,0,400,l,0,3,3,3,0,67,67,75,,,['l'],0,[0.8173751229915069],2018_Jul_09_0454,60.0069354993,go-nogo,001,11,
logos/4.jpg,properties4.xlsx,frogs/ab42.jpg,0,0,400,l,0,3,3,3,0,68,68,41,,,['l'],0,[0.8673705489491113],2018_Jul_09_0454,60.0069354993,go-nogo,001,11,
logos/4.jpg,properties4.xlsx,frogs/ab28.jpg,0,0,400,l,0,3,3,3,0,69,69,27,,,['l'],0,[2.2003364711999893],2018_Jul_09_0454,60.0069354993,go-nogo,001,11,
logos/4.jpg,properties4.xlsx,frogs/ab7.jpg,0,0,400,l,0,3,3,3,0,70,70,6,,,['l'],0,[0.6001767143170582],2018_Jul_09_0454,60.0069354993,go-nogo,001,11,
logos/4.jpg,properties4.xlsx,frogs/ab51.jpg,0,0,400,l,0,3,3,3,0,71,71,50,,,['l'],0,[1.0168766636707005],2018_Jul_09_0454,60.0069354993,go-nogo,001,11,
logos/4.jpg,properties4.xlsx,frogs/ab50.jpg,0,0,400,l,0,3,3,3,0,72,72,49,,,['l'],0,[0.5508899306296371],2018_Jul_09_0454,60.0069354993,go-nogo,001,11,
logos/4.jpg,properties4.xlsx,frogs/ab22.jpg,0,0,400,l,0,3,3,3,0,73,73,21,,,['l'],0,[0.2510088557974086],2018_Jul_09_0454,60.0069354993,go-nogo,001,11,
logos/4.jpg,properties4.xlsx,logos/4.jpg,0,0,400,a,0,3,3,3,0,74,74,86,,,['a'],0,[0.16759701995761134],2018_Jul_09_0454,60.0069354993,go-nogo,001,11,
logos/4.jpg,properties4.xlsx,frogs/ab29.jpg,0,0,400,l,0,3,3,3,0,75,75,28,,,['l'],0,[1.0340576686649001],2018_Jul_09_0454,60.0069354993,go-nogo,001,11,
logos/4.jpg,properties4.xlsx,frogs/ab47.jpg,0,0,400,l,0,3,3,3,0,76,76,46,,,['l'],0,[0.08585995390603784],2018_Jul_09_0454,60.0069354993,go-nogo,001,11,
logos/4.jpg,properties4.xlsx,logos/4.jpg,0,0,400,a,0,3,3,3,0,77,77,85,,,['a'],0,[0.01757593472575536],2018_Jul_09_0454,60.0069354993,go-nogo,001,11,
logos/4.jpg,properties4.xlsx,frogs/ab12.jpg,0,0,400,l,0,3,3,3,0,78,78,11,,,['l'],0,[0.017721411655656993],2018_Jul_09_0454,60.0069354993,go-nogo,001,11,
logos/4.jpg,properties4.xlsx,frogs/ab2.jpg,0,0,400,l,0,3,3,3,0,79,79,1,,,['l'],0,[0.19978267708938802],2018_Jul_09_0454,60.0069354993,go-nogo,001,11,
logos/4.jpg,properties4.xlsx,frogs/ab67.jpg,0,0,400,l,0,3,3,3,0,80,80,65,,,['l'],0,[0.2176651843765285],2018_Jul_09_0454,60.0069354993,go-nogo,001,11,
logos/4.jpg,properties4.xlsx,frogs/ab74.jpg,0,0,400,l,0,3,3,3,0,81,81,72,,,['l'],0,[1.0007514821045334],2018_Jul_09_0454,60.0069354993,go-nogo,001,11,
logos/4.jpg,properties4.xlsx,frogs/ab37.jpg,0,0,400,l,0,3,3,3,0,82,82,36,,,['l'],0,[1.234089352292358],2018_Jul_09_0454,60.0069354993,go-nogo,001,11,
logos/4.jpg,properties4.xlsx,frogs/ab17.jpg,0,0,400,l,0,3,3,3,0,83,83,16,,,['l'],0,[0.8007813807416824],2018_Jul_09_0454,60.0069354993,go-nogo,001,11,
logos/4.jpg,properties4.xlsx,frogs/ab5.jpg,0,0,400,l,0,3,3,3,0,84,84,4,,,['l'],0,[1.317249504107167],2018_Jul_09_0454,60.0069354993,go-nogo,001,11,
logos/4.jpg,properties4.xlsx,frogs/ab48.jpg,0,0,400,l,0,3,3,3,0,85,85,47,,,['l'],0,[0.6176910667782067],2018_Jul_09_0454,60.0069354993,go-nogo,001,11,
logos/4.jpg,properties4.xlsx,frogs/ab21.jpg,0,0,400,l,0,3,3,3,0,86,86,20,,,['l'],0,[1.1507685510950978],2018_Jul_09_0454,60.0069354993,go-nogo,001,11,
logos/4.jpg,properties4.xlsx,logos/4.jpg,0,0,400,a,0,3,3,3,0,87,87,87,,,['a'],0,[0.0002994325986946933],2018_Jul_09_0454,60.0069354993,go-nogo,001,11,
logos/4.jpg,properties4.xlsx,frogs/ab33.jpg,0,0,400,l,0,3,3,3,0,88,88,32,,,['l'],0,[0.051011087038205005],2018_Jul_09_0454,60.0069354993,go-nogo,001,11,
logos/4.jpg,properties4.xlsx,frogs/ab34.jpg,0,0,400,l,0,3,3,3,0,89,89,33,,,['l'],0,[0.6008835715911118],2018_Jul_09_0454,60.0069354993,go-nogo,001,11,
logos/4.jpg,properties4.xlsx,,,,,,0,3,3,3,,,,,,,,,,2018_Jul_09_0454,60.0069354993,go-nogo,001,11,
