pix,source,image1,x,y,size,answer,trials_2.thisRepN,trials_2.thisTrialN,trials_2.thisN,trials_2.thisIndex,trials.thisRepN,trials.thisTrialN,trials.thisN,trials.thisIndex,key_resp_3.keys,key_resp_3.rt,key_resp_2.keys,key_resp_2.corr,key_resp_2.rt,date,frameRate,expName,session,participant,
logos/1.jpg,properties1.xlsx,frogs/ab58.jpg,0,0,400,l,0,0,0,0,0,0,0,57,space,15.5769243679,['l'],0,[0.15087799541652203],2018_Jul_09_1155,60.093226307,go-nogo,001,12,
logos/1.jpg,properties1.xlsx,frogs/ab74.jpg,0,0,400,l,0,0,0,0,0,1,1,72,,,['l'],0,[0.15104581778086867],2018_Jul_09_1155,60.093226307,go-nogo,001,12,
logos/1.jpg,properties1.xlsx,frogs/ab4.jpg,0,0,400,l,0,0,0,0,0,2,2,3,,,['l'],0,[0.00038400032826757524],2018_Jul_09_1155,60.093226307,go-nogo,001,12,
logos/1.jpg,properties1.xlsx,frogs/ab40.jpg,0,0,400,l,0,0,0,0,0,3,3,39,,,['l'],0,[7.646854525315575],2018_Jul_09_1155,60.093226307,go-nogo,001,12,
logos/1.jpg,properties1.xlsx,frogs/ab12.jpg,0,0,400,l,0,0,0,0,0,4,4,11,,,['l'],0,[0.5840155739151669],2018_Jul_09_1155,60.093226307,go-nogo,001,12,
logos/1.jpg,properties1.xlsx,frogs/ab80.jpg,0,0,400,l,0,0,0,0,0,5,5,78,,,['l'],0,[0.11766794040977402],2018_Jul_09_1155,60.093226307,go-nogo,001,12,
logos/1.jpg,properties1.xlsx,frogs/ab66.jpg,0,0,400,l,0,0,0,0,0,6,6,64,,,['l'],0,[0.6839859347792299],2018_Jul_09_1155,60.093226307,go-nogo,001,12,
logos/1.jpg,properties1.xlsx,frogs/ab68.jpg,0,0,400,l,0,0,0,0,0,7,7,66,,,['l'],0,[0.050242602873368014],2018_Jul_09_1155,60.093226307,go-nogo,001,12,
logos/1.jpg,properties1.xlsx,frogs/ab32.jpg,0,0,400,l,0,0,0,0,0,8,8,31,,,['l'],0,[0.5685793296315751],2018_Jul_09_1155,60.093226307,go-nogo,001,12,
logos/1.jpg,properties1.xlsx,frogs/ab73.jpg,0,0,400,l,0,0,0,0,0,9,9,71,,,['l'],0,[0.0011298142972009373],2018_Jul_09_1155,60.093226307,go-nogo,001,12,
logos/1.jpg,properties1.xlsx,frogs/ab67.jpg,0,0,400,l,0,0,0,0,0,10,10,65,,,['l'],0,[0.6007608326490299],2018_Jul_09_1155,60.093226307,go-nogo,001,12,
logos/1.jpg,properties1.xlsx,frogs/ab8.jpg,0,0,400,l,0,0,0,0,0,11,11,7,,,['l'],0,[0.5840297961494798],2018_Jul_09_1155,60.093226307,go-nogo,001,12,
logos/1.jpg,properties1.xlsx,frogs/ab55.jpg,0,0,400,l,0,0,0,0,0,12,12,54,,,['l'],0,[0.4505746067125074],2018_Jul_09_1155,60.093226307,go-nogo,001,12,
logos/1.jpg,properties1.xlsx,frogs/ab17.jpg,0,0,400,l,0,0,0,0,0,13,13,16,,,['l'],0,[0.4507390157423288],2018_Jul_09_1155,60.093226307,go-nogo,001,12,
logos/1.jpg,properties1.xlsx,frogs/ab42.jpg,0,0,400,l,0,0,0,0,0,14,14,41,,,['l'],0,[0.40012435921744327],2018_Jul_09_1155,60.093226307,go-nogo,001,12,
logos/1.jpg,properties1.xlsx,frogs/ab71.jpg,0,0,400,l,0,0,0,0,0,15,15,69,,,['l'],0,[0.40074046640984307],2018_Jul_09_1155,60.093226307,go-nogo,001,12,
logos/1.jpg,properties1.xlsx,logos/1.jpg,0,0,400,a,0,0,0,0,0,16,16,83,,,['a'],0,[1.3669023575348547],2018_Jul_09_1155,60.093226307,go-nogo,001,12,
logos/1.jpg,properties1.xlsx,frogs/ab5.jpg,0,0,400,l,0,0,0,0,0,17,17,4,,,['l'],0,[0.8171248217240645],2018_Jul_09_1155,60.093226307,go-nogo,001,12,
logos/1.jpg,properties1.xlsx,frogs/ab81.jpg,0,0,400,l,0,0,0,0,0,18,18,79,,,['l'],0,[0.8171919506703489],2018_Jul_09_1155,60.093226307,go-nogo,001,12,
logos/1.jpg,properties1.xlsx,frogs/ab75.jpg,0,0,400,l,0,0,0,0,0,19,19,73,,,['l'],0,[0.6996218592330479],2018_Jul_09_1155,60.093226307,go-nogo,001,12,
logos/1.jpg,properties1.xlsx,logos/1.jpg,0,0,400,a,0,0,0,0,0,20,20,86,,,['a'],0,[0.16744860511153092],2018_Jul_09_1155,60.093226307,go-nogo,001,12,
logos/1.jpg,properties1.xlsx,frogs/ab3.jpg,0,0,400,l,0,0,0,0,0,21,21,2,,,['l'],0,[0.11792223395968904],2018_Jul_09_1155,60.093226307,go-nogo,001,12,
logos/1.jpg,properties1.xlsx,frogs/ab10.jpg,0,0,400,l,0,0,0,0,0,22,22,9,,,['l'],0,[0.48391038627050875],2018_Jul_09_1155,60.093226307,go-nogo,001,12,
logos/1.jpg,properties1.xlsx,frogs/ab41.jpg,0,0,400,l,0,0,0,0,0,23,23,40,,,['l'],0,[0.43344477876144083],2018_Jul_09_1155,60.093226307,go-nogo,001,12,
logos/1.jpg,properties1.xlsx,frogs/ab47.jpg,0,0,400,l,0,0,0,0,0,24,24,46,,,['l'],0,[0.1842166194210222],2018_Jul_09_1155,60.093226307,go-nogo,001,12,
logos/1.jpg,properties1.xlsx,logos/1.jpg,0,0,400,a,0,0,0,0,0,25,25,89,,,['a'],0,[0.134211243415848],2018_Jul_09_1155,60.093226307,go-nogo,001,12,
logos/1.jpg,properties1.xlsx,frogs/ab78.jpg,0,0,400,l,0,0,0,0,0,26,26,76,,,['l'],0,[0.10061718808265141],2018_Jul_09_1155,60.093226307,go-nogo,001,12,
logos/1.jpg,properties1.xlsx,frogs/ab1.jpg,0,0,400,l,0,0,0,0,0,27,27,0,,,['l'],0,[0.6342621590147246],2018_Jul_09_1155,60.093226307,go-nogo,001,12,
logos/1.jpg,properties1.xlsx,frogs/ab53.jpg,0,0,400,l,0,0,0,0,0,28,28,52,,,['l'],0,[0.11758943367658503],2018_Jul_09_1155,60.093226307,go-nogo,001,12,
logos/1.jpg,properties1.xlsx,frogs/ab46.jpg,0,0,400,l,0,0,0,0,0,29,29,45,,,['l'],0,[0.1511015689402484],2018_Jul_09_1155,60.093226307,go-nogo,001,12,
logos/1.jpg,properties1.xlsx,frogs/ab52.jpg,0,0,400,l,0,0,0,0,0,30,30,51,,,['l'],0,[0.5996128138913264],2018_Jul_09_1155,60.093226307,go-nogo,001,12,
logos/1.jpg,properties1.xlsx,frogs/ab11.jpg,0,0,400,l,0,0,0,0,0,31,31,10,,,['l'],0,[0.001108765390199551],2018_Jul_09_1155,60.093226307,go-nogo,001,12,
logos/1.jpg,properties1.xlsx,frogs/ab28.jpg,0,0,400,l,0,0,0,0,0,32,32,27,,,['l'],0,[0.16764373416754097],2018_Jul_09_1155,60.093226307,go-nogo,001,12,
logos/1.jpg,properties1.xlsx,frogs/ab18.jpg,0,0,400,l,0,0,0,0,0,33,33,17,,,['l'],0,[0.2509905786228046],2018_Jul_09_1155,60.093226307,go-nogo,001,12,
logos/1.jpg,properties1.xlsx,frogs/ab34.jpg,0,0,400,l,0,0,0,0,0,34,34,33,,,['l'],0,[0.11773791380346665],2018_Jul_09_1155,60.093226307,go-nogo,001,12,
logos/1.jpg,properties1.xlsx,frogs/ab44.jpg,0,0,400,l,0,0,0,0,0,35,35,43,,,['l'],0,[1.8333990400560651],2018_Jul_09_1155,60.093226307,go-nogo,001,12,
logos/1.jpg,properties1.xlsx,frogs/ab23.jpg,0,0,400,l,0,0,0,0,0,36,36,22,,,['l'],0,[0.9670561852208266],2018_Jul_09_1155,60.093226307,go-nogo,001,12,
logos/1.jpg,properties1.xlsx,frogs/ab51.jpg,0,0,400,l,0,0,0,0,0,37,37,50,,,['l'],0,[0.10024456554219796],2018_Jul_09_1155,60.093226307,go-nogo,001,12,
logos/1.jpg,properties1.xlsx,frogs/ab65.jpg,0,0,400,l,0,0,0,0,0,38,38,63,,,['l'],0,[0.15099006662239844],2018_Jul_09_1155,60.093226307,go-nogo,001,12,
logos/1.jpg,properties1.xlsx,frogs/ab54.jpg,0,0,400,l,0,0,0,0,0,39,39,53,,,['l'],0,[0.11757976255648828],2018_Jul_09_1155,60.093226307,go-nogo,001,12,
logos/1.jpg,properties1.xlsx,logos/1.jpg,0,0,400,a,0,0,0,0,0,40,40,84,,,['a'],0,[0.06686043038735079],2018_Jul_09_1155,60.093226307,go-nogo,001,12,
logos/1.jpg,properties1.xlsx,frogs/ab30.jpg,0,0,400,l,0,0,0,0,0,41,41,29,,,['l'],0,[0.384335403521618],2018_Jul_09_1155,60.093226307,go-nogo,001,12,
logos/1.jpg,properties1.xlsx,frogs/ab72.jpg,0,0,400,l,0,0,0,0,0,42,42,70,,,['l'],0,[0.8006150831915875],2018_Jul_09_1155,60.093226307,go-nogo,001,12,
logos/1.jpg,properties1.xlsx,frogs/ab16.jpg,0,0,400,l,0,0,0,0,0,43,43,15,,,['l'],0,[0.6839495258591342],2018_Jul_09_1155,60.093226307,go-nogo,001,12,
logos/1.jpg,properties1.xlsx,frogs/ab25.jpg,0,0,400,l,0,0,0,0,0,44,44,24,,,['l'],0,[0.6500488391529871],2018_Jul_09_1155,60.093226307,go-nogo,001,12,
logos/1.jpg,properties1.xlsx,frogs/ab76.jpg,0,0,400,l,0,0,0,0,0,45,45,74,,,['l'],0,[0.1859915542681847],2018_Jul_09_1155,60.093226307,go-nogo,001,12,
logos/1.jpg,properties1.xlsx,frogs/ab63.jpg,0,0,400,l,0,0,0,0,0,46,46,61,,,['l'],0,[0.15102533776371274],2018_Jul_09_1155,60.093226307,go-nogo,001,12,
logos/1.jpg,properties1.xlsx,frogs/ab77.jpg,0,0,400,l,0,0,0,0,0,47,47,75,,,['l'],0,[0.03350360192325752],2018_Jul_09_1155,60.093226307,go-nogo,001,12,
logos/1.jpg,properties1.xlsx,frogs/ab6.jpg,0,0,400,l,0,0,0,0,0,48,48,5,,,['l'],0,[0.13426301234903804],2018_Jul_09_1155,60.093226307,go-nogo,001,12,
logos/1.jpg,properties1.xlsx,frogs/ab39.jpg,0,0,400,l,0,0,0,0,0,49,49,38,,,['l'],0,[0.017605988356990565],2018_Jul_09_1155,60.093226307,go-nogo,001,12,
logos/1.jpg,properties1.xlsx,logos/1.jpg,0,0,400,a,0,0,0,0,0,50,50,85,,,['a'],0,[0.06750213760187762],2018_Jul_09_1155,60.093226307,go-nogo,001,12,
logos/1.jpg,properties1.xlsx,frogs/ab37.jpg,0,0,400,l,0,0,0,0,0,51,51,36,,,['l'],0,[0.5340221445876523],2018_Jul_09_1155,60.093226307,go-nogo,001,12,
logos/1.jpg,properties1.xlsx,frogs/ab48.jpg,0,0,400,l,0,0,0,0,0,52,52,47,,,['l'],0,[0.10083564160231617],2018_Jul_09_1155,60.093226307,go-nogo,001,12,
logos/1.jpg,properties1.xlsx,frogs/ab20.jpg,0,0,400,l,0,0,0,0,0,53,53,19,,,['l'],0,[0.017740246248649783],2018_Jul_09_1155,60.093226307,go-nogo,001,12,
logos/1.jpg,properties1.xlsx,frogs/ab38.jpg,0,0,400,l,0,0,0,0,0,54,54,37,,,['l'],0,[0.48405147083485645],2018_Jul_09_1155,60.093226307,go-nogo,001,12,
logos/1.jpg,properties1.xlsx,frogs/ab15.jpg,0,0,400,l,0,0,0,0,0,55,55,14,,,['l'],0,[0.10088570386687934],2018_Jul_09_1155,60.093226307,go-nogo,001,12,
logos/1.jpg,properties1.xlsx,frogs/ab36.jpg,0,0,400,l,0,0,0,0,0,56,56,35,,,['l'],0,[1.0507073854923874],2018_Jul_09_1155,60.093226307,go-nogo,001,12,
logos/1.jpg,properties1.xlsx,logos/1.jpg,0,0,400,a,0,0,0,0,0,57,57,88,,,['a'],0,[0.06760339991069486],2018_Jul_09_1155,60.093226307,go-nogo,001,12,
logos/1.jpg,properties1.xlsx,frogs/ab2.jpg,0,0,400,l,0,0,0,0,0,58,58,1,,,['l'],0,[0.13429031903888244],2018_Jul_09_1155,60.093226307,go-nogo,001,12,
logos/1.jpg,properties1.xlsx,frogs/ab49.jpg,0,0,400,l,0,0,0,0,0,59,59,48,,,['l'],0,[0.31761776436724176],2018_Jul_09_1155,60.093226307,go-nogo,001,12,
logos/1.jpg,properties1.xlsx,frogs/ab24.jpg,0,0,400,l,0,0,0,0,0,60,60,23,,,['l'],0,[0.05115396365090419],2018_Jul_09_1155,60.093226307,go-nogo,001,12,
logos/1.jpg,properties1.xlsx,frogs/ab27.jpg,0,0,400,l,0,0,0,0,0,61,61,26,,,['l'],0,[0.05022041618849471],2018_Jul_09_1155,60.093226307,go-nogo,001,12,
logos/1.jpg,properties1.xlsx,frogs/ab31.jpg,0,0,400,l,0,0,0,0,0,62,62,30,,,['l'],0,[0.01779372185046668],2018_Jul_09_1155,60.093226307,go-nogo,001,12,
logos/1.jpg,properties1.xlsx,frogs/ab7.jpg,0,0,400,l,0,0,0,0,0,63,63,6,,,['l'],0,[0.001130383187046391],2018_Jul_09_1155,60.093226307,go-nogo,001,12,
logos/1.jpg,properties1.xlsx,frogs/ab9.jpg,0,0,400,l,0,0,0,0,0,64,64,8,,,['l'],0,[0.046084021547358134],2018_Jul_09_1155,60.093226307,go-nogo,001,12,
logos/1.jpg,properties1.xlsx,frogs/ab56.jpg,0,0,400,l,0,0,0,0,0,65,65,55,,,['l'],0,[0.10094259280413098],2018_Jul_09_1155,60.093226307,go-nogo,001,12,
logos/1.jpg,properties1.xlsx,logos/1.jpg,0,0,400,a,0,0,0,0,0,66,66,80,,,['a'],0,[0.08437084532943118],2018_Jul_09_1155,60.093226307,go-nogo,001,12,
logos/1.jpg,properties1.xlsx,frogs/ab61.jpg,0,0,400,l,0,0,0,0,0,67,67,59,,,['l'],0,[0.6007926904549095],2018_Jul_09_1155,60.093226307,go-nogo,001,12,
logos/1.jpg,properties1.xlsx,frogs/ab64.jpg,0,0,400,l,0,0,0,0,0,68,68,62,,,['l'],0,[0.4508289002633319],2018_Jul_09_1155,60.093226307,go-nogo,001,12,
logos/1.jpg,properties1.xlsx,frogs/ab70.jpg,0,0,400,l,0,0,0,0,0,69,69,68,,,['l'],0,[0.5514227638805096],2018_Jul_09_1155,60.093226307,go-nogo,001,12,
logos/1.jpg,properties1.xlsx,frogs/ab21.jpg,0,0,400,l,0,0,0,0,0,70,70,20,,,['l'],0,[0.4667492694034081],2018_Jul_09_1155,60.093226307,go-nogo,001,12,
logos/1.jpg,properties1.xlsx,frogs/ab69.jpg,0,0,400,l,0,0,0,0,0,71,71,67,,,['l'],0,[0.5673715774910306],2018_Jul_09_1155,60.093226307,go-nogo,001,12,
logos/1.jpg,properties1.xlsx,frogs/ab79.jpg,0,0,400,l,0,0,0,0,0,72,72,77,,,['l'],0,[0.001101938717511075],2018_Jul_09_1155,60.093226307,go-nogo,001,12,
logos/1.jpg,properties1.xlsx,frogs/ab29.jpg,0,0,400,l,0,0,0,0,0,73,73,28,,,['l'],0,[0.4510871760385271],2018_Jul_09_1155,60.093226307,go-nogo,001,12,
logos/1.jpg,properties1.xlsx,frogs/ab62.jpg,0,0,400,l,0,0,0,0,0,74,74,60,,,['l'],0,[0.517411143746358],2018_Jul_09_1155,60.093226307,go-nogo,001,12,
logos/1.jpg,properties1.xlsx,frogs/ab60.jpg,0,0,400,l,0,0,0,0,0,75,75,58,,,['l'],0,[0.48425740878883516],2018_Jul_09_1155,60.093226307,go-nogo,001,12,
logos/1.jpg,properties1.xlsx,frogs/ab19.jpg,0,0,400,l,0,0,0,0,0,76,76,18,,,['l'],0,[0.43429925060172536],2018_Jul_09_1155,60.093226307,go-nogo,001,12,
logos/1.jpg,properties1.xlsx,frogs/ab13.jpg,0,0,400,l,0,0,0,0,0,77,77,12,,,['l'],0,[0.36742346020128025],2018_Jul_09_1155,60.093226307,go-nogo,001,12,
logos/1.jpg,properties1.xlsx,frogs/ab14.jpg,0,0,400,l,0,0,0,0,0,78,78,13,,,['l'],0,[0.4671173408287359],2018_Jul_09_1155,60.093226307,go-nogo,001,12,
logos/1.jpg,properties1.xlsx,frogs/ab26.jpg,0,0,400,l,0,0,0,0,0,79,79,25,,,['l'],0,[0.4008024753511563],2018_Jul_09_1155,60.093226307,go-nogo,001,12,
logos/1.jpg,properties1.xlsx,logos/1.jpg,0,0,400,a,0,0,0,0,0,80,80,81,,,['a'],0,[0.11761901592308277],2018_Jul_09_1155,60.093226307,go-nogo,001,12,
logos/1.jpg,properties1.xlsx,frogs/ab50.jpg,0,0,400,l,0,0,0,0,0,81,81,49,,,['l'],0,[0.500834845157442],2018_Jul_09_1155,60.093226307,go-nogo,001,12,
logos/1.jpg,properties1.xlsx,logos/1.jpg,0,0,400,a,0,0,0,0,0,82,82,82,,,['a'],0,[0.18147343485725287],2018_Jul_09_1155,60.093226307,go-nogo,001,12,
logos/1.jpg,properties1.xlsx,frogs/ab43.jpg,0,0,400,l,0,0,0,0,0,83,83,42,,,['l'],0,[0.35289971447400603],2018_Jul_09_1155,60.093226307,go-nogo,001,12,
logos/1.jpg,properties1.xlsx,frogs/ab57.jpg,0,0,400,l,0,0,0,0,0,84,84,56,,,['l'],0,[0.0010268453206663253],2018_Jul_09_1155,60.093226307,go-nogo,001,12,
logos/1.jpg,properties1.xlsx,frogs/ab33.jpg,0,0,400,l,0,0,0,0,0,85,85,32,,,['l'],0,[0.03422666031838162],2018_Jul_09_1155,60.093226307,go-nogo,001,12,
logos/1.jpg,properties1.xlsx,frogs/ab22.jpg,0,0,400,l,0,0,0,0,0,86,86,21,,,['l'],0,[0.1674463295539681],2018_Jul_09_1155,60.093226307,go-nogo,001,12,
logos/1.jpg,properties1.xlsx,frogs/ab35.jpg,0,0,400,l,0,0,0,0,0,87,87,34,,,['l'],0,[0.051066354688373394],2018_Jul_09_1155,60.093226307,go-nogo,001,12,
logos/1.jpg,properties1.xlsx,frogs/ab45.jpg,0,0,400,l,0,0,0,0,0,88,88,44,,,['l'],0,[0.017672548413429467],2018_Jul_09_1155,60.093226307,go-nogo,001,12,
logos/1.jpg,properties1.xlsx,logos/1.jpg,0,0,400,a,0,0,0,0,0,89,89,87,,,['a'],0,[0.5007483739718737],2018_Jul_09_1155,60.093226307,go-nogo,001,12,
logos/1.jpg,properties1.xlsx,,,,,,0,0,0,0,,,,,,,,,,2018_Jul_09_1155,60.093226307,go-nogo,001,12,
logos/3.jpg,properties3.xlsx,logos/3.jpg,0,0,400,a,0,1,1,2,0,0,0,81,space,8.22273555007,['a'],0,[0.6909895318667623],2018_Jul_09_1155,60.093226307,go-nogo,001,12,
logos/3.jpg,properties3.xlsx,frogs/ab12.jpg,0,0,400,l,0,1,1,2,0,1,1,11,,,['l'],0,[0.6673988272914357],2018_Jul_09_1155,60.093226307,go-nogo,001,12,
logos/3.jpg,properties3.xlsx,frogs/ab69.jpg,0,0,400,l,0,1,1,2,0,2,2,67,,,['l'],0,[0.7340948486498746],2018_Jul_09_1155,60.093226307,go-nogo,001,12,
logos/3.jpg,properties3.xlsx,frogs/ab5.jpg,0,0,400,l,0,1,1,2,0,3,3,4,,,['l'],0,[0.15099006662330794],2018_Jul_09_1155,60.093226307,go-nogo,001,12,
logos/3.jpg,properties3.xlsx,frogs/ab10.jpg,0,0,400,l,0,1,1,2,0,4,4,9,,,['l'],0,[0.5000753778413127],2018_Jul_09_1155,60.093226307,go-nogo,001,12,
logos/3.jpg,properties3.xlsx,frogs/ab4.jpg,0,0,400,l,0,1,1,2,0,5,5,3,,,['l'],0,[0.4338577924481797],2018_Jul_09_1155,60.093226307,go-nogo,001,12,
logos/3.jpg,properties3.xlsx,frogs/ab60.jpg,0,0,400,l,0,1,1,2,0,6,6,58,,,['l'],0,[0.4674933767055336],2018_Jul_09_1155,60.093226307,go-nogo,001,12,
logos/3.jpg,properties3.xlsx,frogs/ab66.jpg,0,0,400,l,0,1,1,2,0,7,7,64,,,['l'],0,[0.4341888860626568],2018_Jul_09_1155,60.093226307,go-nogo,001,12,
logos/3.jpg,properties3.xlsx,frogs/ab79.jpg,0,0,400,l,0,1,1,2,0,8,8,77,,,['l'],0,[0.6173365623490099],2018_Jul_09_1155,60.093226307,go-nogo,001,12,
logos/3.jpg,properties3.xlsx,frogs/ab65.jpg,0,0,400,l,0,1,1,2,0,9,9,63,,,['l'],0,[0.4978111981326947],2018_Jul_09_1155,60.093226307,go-nogo,001,12,
logos/3.jpg,properties3.xlsx,frogs/ab11.jpg,0,0,400,l,0,1,1,2,0,10,10,10,,,['l'],0,[0.4000310613600959],2018_Jul_09_1155,60.093226307,go-nogo,001,12,
logos/3.jpg,properties3.xlsx,frogs/ab30.jpg,0,0,400,l,0,1,1,2,0,11,11,29,,,['l'],0,[0.9838566262242239],2018_Jul_09_1155,60.093226307,go-nogo,001,12,
logos/3.jpg,properties3.xlsx,frogs/ab80.jpg,0,0,400,l,0,1,1,2,0,12,12,78,,,['l'],0,[0.40038946166532696],2018_Jul_09_1155,60.093226307,go-nogo,001,12,
logos/3.jpg,properties3.xlsx,frogs/ab49.jpg,0,0,400,l,0,1,1,2,0,13,13,48,,,['l'],0,[0.45006431294405047],2018_Jul_09_1155,60.093226307,go-nogo,001,12,
logos/3.jpg,properties3.xlsx,frogs/ab56.jpg,0,0,400,l,0,1,1,2,0,14,14,55,,,['l'],0,[0.7833020728621705],2018_Jul_09_1155,60.093226307,go-nogo,001,12,
logos/3.jpg,properties3.xlsx,frogs/ab37.jpg,0,0,400,l,0,1,1,2,0,15,15,36,,,['l'],0,[0.0011133165062346961],2018_Jul_09_1155,60.093226307,go-nogo,001,12,
logos/3.jpg,properties3.xlsx,frogs/ab46.jpg,0,0,400,l,0,1,1,2,0,16,16,45,,,['l'],0,[0.5175380060763928],2018_Jul_09_1155,60.093226307,go-nogo,001,12,
logos/3.jpg,properties3.xlsx,frogs/ab41.jpg,0,0,400,l,0,1,1,2,0,17,17,40,,,['l'],0,[0.43421733053219214],2018_Jul_09_1155,60.093226307,go-nogo,001,12,
logos/3.jpg,properties3.xlsx,frogs/ab9.jpg,0,0,400,l,0,1,1,2,0,18,18,8,,,['l'],0,[0.05106749246715481],2018_Jul_09_1155,60.093226307,go-nogo,001,12,
logos/3.jpg,properties3.xlsx,frogs/ab63.jpg,0,0,400,l,0,1,1,2,0,19,19,61,,,['l'],0,[0.5010254230974169],2018_Jul_09_1155,60.093226307,go-nogo,001,12,
logos/3.jpg,properties3.xlsx,frogs/ab61.jpg,0,0,400,l,0,1,1,2,0,20,20,59,,,['l'],0,[0.6674761962467528],2018_Jul_09_1155,60.093226307,go-nogo,001,12,
logos/3.jpg,properties3.xlsx,frogs/ab44.jpg,0,0,400,l,0,1,1,2,0,21,21,43,,,['l'],0,[0.5675075420513167],2018_Jul_09_1155,60.093226307,go-nogo,001,12,
logos/3.jpg,properties3.xlsx,frogs/ab55.jpg,0,0,400,l,0,1,1,2,0,22,22,54,,,['l'],0,[0.4508300380412038],2018_Jul_09_1155,60.093226307,go-nogo,001,12,
logos/3.jpg,properties3.xlsx,logos/3.jpg,0,0,400,a,0,1,1,2,0,23,23,80,,,['l'],0,[0.36751846472725447],2018_Jul_09_1155,60.093226307,go-nogo,001,12,
logos/3.jpg,properties3.xlsx,frogs/ab72.jpg,0,0,400,l,0,1,1,2,0,24,24,70,,,['l'],0,[0.5173662014858564],2018_Jul_09_1155,60.093226307,go-nogo,001,12,
logos/3.jpg,properties3.xlsx,frogs/ab24.jpg,0,0,400,l,0,1,1,2,0,25,25,23,,,['l'],0,[0.0011252631820752867],2018_Jul_09_1155,60.093226307,go-nogo,001,12,
logos/3.jpg,properties3.xlsx,logos/3.jpg,0,0,400,a,0,1,1,2,0,26,26,84,,,['l'],0,[0.01685960549821175],2018_Jul_09_1155,60.093226307,go-nogo,001,12,
logos/3.jpg,properties3.xlsx,frogs/ab3.jpg,0,0,400,l,0,1,1,2,0,27,27,2,,,['l'],0,[0.3672192289159284],2018_Jul_09_1155,60.093226307,go-nogo,001,12,
logos/3.jpg,properties3.xlsx,frogs/ab17.jpg,0,0,400,l,0,1,1,2,0,28,28,16,,,['l'],0,[0.25076188509410713],2018_Jul_09_1155,60.093226307,go-nogo,001,12,
logos/3.jpg,properties3.xlsx,frogs/ab77.jpg,0,0,400,l,0,1,1,2,0,29,29,75,,,['l'],0,[0.05027218512168474],2018_Jul_09_1155,60.093226307,go-nogo,001,12,
logos/3.jpg,properties3.xlsx,frogs/ab16.jpg,0,0,400,l,0,1,1,2,0,30,30,15,,,['l'],0,[0.38374603412921715],2018_Jul_09_1155,60.093226307,go-nogo,001,12,
logos/3.jpg,properties3.xlsx,frogs/ab28.jpg,0,0,400,l,0,1,1,2,0,31,31,27,,,['l'],0,[0.0003828625485766679],2018_Jul_09_1155,60.093226307,go-nogo,001,12,
logos/3.jpg,properties3.xlsx,frogs/ab53.jpg,0,0,400,l,0,1,1,2,0,32,32,52,,,['l'],0,[0.4342070905231594],2018_Jul_09_1155,60.093226307,go-nogo,001,12,
logos/3.jpg,properties3.xlsx,frogs/ab19.jpg,0,0,400,l,0,1,1,2,0,33,33,18,,,['l'],0,[0.3174539242272658],2018_Jul_09_1155,60.093226307,go-nogo,001,12,
logos/3.jpg,properties3.xlsx,frogs/ab74.jpg,0,0,400,l,0,1,1,2,0,34,34,72,,,['l'],0,[0.3675326869615674],2018_Jul_09_1155,60.093226307,go-nogo,001,12,
logos/3.jpg,properties3.xlsx,frogs/ab6.jpg,0,0,400,l,0,1,1,2,0,35,35,5,,,['l'],0,[0.03442235826241813],2018_Jul_09_1155,60.093226307,go-nogo,001,12,
logos/3.jpg,properties3.xlsx,frogs/ab33.jpg,0,0,400,l,0,1,1,2,0,36,36,32,,,['l'],0,[0.3675611314301932],2018_Jul_09_1155,60.093226307,go-nogo,001,12,
logos/3.jpg,properties3.xlsx,frogs/ab29.jpg,0,0,400,l,0,1,1,2,0,37,37,28,,,['l'],0,[0.3672112644644585],2018_Jul_09_1155,60.093226307,go-nogo,001,12,
logos/3.jpg,properties3.xlsx,frogs/ab81.jpg,0,0,400,l,0,1,1,2,0,38,38,79,,,['l'],0,[0.567209444018772],2018_Jul_09_1155,60.093226307,go-nogo,001,12,
logos/3.jpg,properties3.xlsx,frogs/ab64.jpg,0,0,400,l,0,1,1,2,0,39,39,62,,,['l'],0,[0.28424045588508307],2018_Jul_09_1155,60.093226307,go-nogo,001,12,
logos/3.jpg,properties3.xlsx,logos/3.jpg,0,0,400,a,0,1,1,2,0,40,40,86,,,['a'],0,[0.05107204358137096],2018_Jul_09_1155,60.093226307,go-nogo,001,12,
logos/3.jpg,properties3.xlsx,frogs/ab36.jpg,0,0,400,l,0,1,1,2,0,41,41,35,,,['l'],0,[0.33402794725861895],2018_Jul_09_1155,60.093226307,go-nogo,001,12,
logos/3.jpg,properties3.xlsx,frogs/ab27.jpg,0,0,400,l,0,1,1,2,0,42,42,26,,,['l'],0,[0.3676305359340404],2018_Jul_09_1155,60.093226307,go-nogo,001,12,
logos/3.jpg,properties3.xlsx,frogs/ab47.jpg,0,0,400,l,0,1,1,2,0,43,43,46,,,['l'],0,[0.36755146031009645],2018_Jul_09_1155,60.093226307,go-nogo,001,12,
logos/3.jpg,properties3.xlsx,logos/3.jpg,0,0,400,a,0,1,1,2,0,44,44,83,,,['a'],0,[0.05127570597687736],2018_Jul_09_1155,60.093226307,go-nogo,001,12,
logos/3.jpg,properties3.xlsx,frogs/ab57.jpg,0,0,400,l,0,1,1,2,0,45,45,56,,,['l'],0,[0.31874814755428815],2018_Jul_09_1155,60.093226307,go-nogo,001,12,
logos/3.jpg,properties3.xlsx,frogs/ab42.jpg,0,0,400,l,0,1,1,2,0,46,46,41,,,['l'],0,[0.3343590408749151],2018_Jul_09_1155,60.093226307,go-nogo,001,12,
logos/3.jpg,properties3.xlsx,frogs/ab67.jpg,0,0,400,l,0,1,1,2,0,47,47,65,,,['l'],0,[0.40079052867440623],2018_Jul_09_1155,60.093226307,go-nogo,001,12,
logos/3.jpg,properties3.xlsx,frogs/ab22.jpg,0,0,400,l,0,1,1,2,0,48,48,21,,,['l'],0,[0.33413603624012467],2018_Jul_09_1155,60.093226307,go-nogo,001,12,
logos/3.jpg,properties3.xlsx,frogs/ab50.jpg,0,0,400,l,0,1,1,2,0,49,49,49,,,['l'],0,[0.35074305485613877],2018_Jul_09_1155,60.093226307,go-nogo,001,12,
logos/3.jpg,properties3.xlsx,frogs/ab71.jpg,0,0,400,l,0,1,1,2,0,50,50,69,,,['l'],0,[0.3008838834211929],2018_Jul_09_1155,60.093226307,go-nogo,001,12,
logos/3.jpg,properties3.xlsx,frogs/ab20.jpg,0,0,400,l,0,1,1,2,0,51,51,19,,,['l'],0,[0.25099797418533853],2018_Jul_09_1155,60.093226307,go-nogo,001,12,
logos/3.jpg,properties3.xlsx,frogs/ab38.jpg,0,0,400,l,0,1,1,2,0,52,52,37,,,['l'],0,[0.3675713714392259],2018_Jul_09_1155,60.093226307,go-nogo,001,12,
logos/3.jpg,properties3.xlsx,logos/3.jpg,0,0,400,a,0,1,1,2,0,53,53,87,,,['l'],0,[0.4171250492800027],2018_Jul_09_1155,60.093226307,go-nogo,001,12,
logos/3.jpg,properties3.xlsx,frogs/ab26.jpg,0,0,400,l,0,1,1,2,0,54,54,25,,,['l'],0,[0.3008395100496273],2018_Jul_09_1155,60.093226307,go-nogo,001,12,
logos/3.jpg,properties3.xlsx,frogs/ab68.jpg,0,0,400,l,0,1,1,2,0,55,55,66,,,['l'],0,[0.4507634779847649],2018_Jul_09_1155,60.093226307,go-nogo,001,12,
logos/3.jpg,properties3.xlsx,frogs/ab35.jpg,0,0,400,l,0,1,1,2,0,56,56,34,,,['l'],0,[0.7842140025295521],2018_Jul_09_1155,60.093226307,go-nogo,001,12,
logos/3.jpg,properties3.xlsx,frogs/ab78.jpg,0,0,400,l,0,1,1,2,0,57,57,76,,,['l'],0,[0.150989497732553],2018_Jul_09_1155,60.093226307,go-nogo,001,12,
logos/3.jpg,properties3.xlsx,frogs/ab7.jpg,0,0,400,l,0,1,1,2,0,58,58,6,,,['l'],0,[0.4504830155228774],2018_Jul_09_1155,60.093226307,go-nogo,001,12,
logos/3.jpg,properties3.xlsx,logos/3.jpg,0,0,400,a,0,1,1,2,0,59,59,88,,,['a'],0,[0.01760826391455339],2018_Jul_09_1155,60.093226307,go-nogo,001,12,
logos/3.jpg,properties3.xlsx,frogs/ab73.jpg,0,0,400,l,0,1,1,2,0,60,60,71,,,['l'],0,[0.9172612982856663],2018_Jul_09_1155,60.093226307,go-nogo,001,12,
logos/3.jpg,properties3.xlsx,frogs/ab1.jpg,0,0,400,l,0,1,1,2,0,61,61,0,,,['l'],0,[0.6688506329746815],2018_Jul_09_1155,60.093226307,go-nogo,001,12,
logos/3.jpg,properties3.xlsx,frogs/ab14.jpg,0,0,400,l,0,1,1,2,0,62,62,13,,,['l'],0,[0.567393195286968],2018_Jul_09_1155,60.093226307,go-nogo,001,12,
logos/3.jpg,properties3.xlsx,frogs/ab8.jpg,0,0,400,l,0,1,1,2,0,63,63,7,,,['l'],0,[0.4505973622881356],2018_Jul_09_1155,60.093226307,go-nogo,001,12,
logos/3.jpg,properties3.xlsx,frogs/ab34.jpg,0,0,400,l,0,1,1,2,0,64,64,33,,,['l'],0,[0.4340256148134358],2018_Jul_09_1155,60.093226307,go-nogo,001,12,
logos/3.jpg,properties3.xlsx,frogs/ab48.jpg,0,0,400,l,0,1,1,2,0,65,65,47,,,['l'],0,[0.3009146034473815],2018_Jul_09_1155,60.093226307,go-nogo,001,12,
logos/3.jpg,properties3.xlsx,frogs/ab39.jpg,0,0,400,l,0,1,1,2,0,66,66,38,,,['l'],0,[0.31765474217627343],2018_Jul_09_1155,60.093226307,go-nogo,001,12,
logos/3.jpg,properties3.xlsx,frogs/ab18.jpg,0,0,400,l,0,1,1,2,0,67,67,17,,,['l'],0,[0.38433597241055395],2018_Jul_09_1155,60.093226307,go-nogo,001,12,
logos/3.jpg,properties3.xlsx,frogs/ab45.jpg,0,0,400,l,0,1,1,2,0,68,68,44,,,['l'],0,[0.38427168791258737],2018_Jul_09_1155,60.093226307,go-nogo,001,12,
logos/3.jpg,properties3.xlsx,frogs/ab76.jpg,0,0,400,l,0,1,1,2,0,69,69,74,,,['l'],0,[0.6673248716733724],2018_Jul_09_1155,60.093226307,go-nogo,001,12,
logos/3.jpg,properties3.xlsx,frogs/ab52.jpg,0,0,400,l,0,1,1,2,0,70,70,51,,,['l'],0,[0.4008428664974417],2018_Jul_09_1155,60.093226307,go-nogo,001,12,
logos/3.jpg,properties3.xlsx,frogs/ab23.jpg,0,0,400,l,0,1,1,2,0,71,71,22,,,['l'],0,[0.4833864391566749],2018_Jul_09_1155,60.093226307,go-nogo,001,12,
logos/3.jpg,properties3.xlsx,frogs/ab13.jpg,0,0,400,l,0,1,1,2,0,72,72,12,,,['l'],0,[0.46676178497000365],2018_Jul_09_1155,60.093226307,go-nogo,001,12,
logos/3.jpg,properties3.xlsx,frogs/ab31.jpg,0,0,400,l,0,1,1,2,0,73,73,30,,,['l'],0,[0.3841914745107715],2018_Jul_09_1155,60.093226307,go-nogo,001,12,
logos/3.jpg,properties3.xlsx,frogs/ab40.jpg,0,0,400,l,0,1,1,2,0,74,74,39,,,['l'],0,[0.40083205759856355],2018_Jul_09_1155,60.093226307,go-nogo,001,12,
logos/3.jpg,properties3.xlsx,frogs/ab21.jpg,0,0,400,l,0,1,1,2,0,75,75,20,,,['l'],0,[0.4341809216120964],2018_Jul_09_1155,60.093226307,go-nogo,001,12,
logos/3.jpg,properties3.xlsx,frogs/ab2.jpg,0,0,400,l,0,1,1,2,0,76,76,1,,,['l'],0,[0.4840651241802334],2018_Jul_09_1155,60.093226307,go-nogo,001,12,
logos/3.jpg,properties3.xlsx,frogs/ab70.jpg,0,0,400,l,0,1,1,2,0,77,77,68,,,['l'],0,[0.4507077268262947],2018_Jul_09_1155,60.093226307,go-nogo,001,12,
logos/3.jpg,properties3.xlsx,frogs/ab62.jpg,0,0,400,l,0,1,1,2,0,78,78,60,,,['l'],0,[0.4509751048326507],2018_Jul_09_1155,60.093226307,go-nogo,001,12,
logos/3.jpg,properties3.xlsx,frogs/ab32.jpg,0,0,400,l,0,1,1,2,0,79,79,31,,,['l'],0,[0.38421991897848784],2018_Jul_09_1155,60.093226307,go-nogo,001,12,
logos/3.jpg,properties3.xlsx,logos/3.jpg,0,0,400,a,0,1,1,2,0,80,80,89,,,['a'],0,[0.7505641960369758],2018_Jul_09_1155,60.093226307,go-nogo,001,12,
logos/3.jpg,properties3.xlsx,frogs/ab43.jpg,0,0,400,l,0,1,1,2,0,81,81,42,,,['l'],0,[0.7007181090575614],2018_Jul_09_1155,60.093226307,go-nogo,001,12,
logos/3.jpg,properties3.xlsx,logos/3.jpg,0,0,400,a,0,1,1,2,0,82,82,85,,,['a'],0,[0.5006243560883377],2018_Jul_09_1155,60.093226307,go-nogo,001,12,
logos/3.jpg,properties3.xlsx,frogs/ab75.jpg,0,0,400,l,0,1,1,2,0,83,83,73,,,['l'],0,[0.6174099490790468],2018_Jul_09_1155,60.093226307,go-nogo,001,12,
logos/3.jpg,properties3.xlsx,frogs/ab54.jpg,0,0,400,l,0,1,1,2,0,84,84,53,,,['l'],0,[0.6673834672783414],2018_Jul_09_1155,60.093226307,go-nogo,001,12,
logos/3.jpg,properties3.xlsx,logos/3.jpg,0,0,400,a,0,1,1,2,0,85,85,82,,,['a'],0,[0.3842517767834579],2018_Jul_09_1155,60.093226307,go-nogo,001,12,
logos/3.jpg,properties3.xlsx,frogs/ab58.jpg,0,0,400,l,0,1,1,2,0,86,86,57,,,['l'],0,[1.2669251699981032],2018_Jul_09_1155,60.093226307,go-nogo,001,12,
logos/3.jpg,properties3.xlsx,frogs/ab51.jpg,0,0,400,l,0,1,1,2,0,87,87,50,,,['l'],0,[0.717455403339045],2018_Jul_09_1155,60.093226307,go-nogo,001,12,
logos/3.jpg,properties3.xlsx,frogs/ab25.jpg,0,0,400,l,0,1,1,2,0,88,88,24,,,['l'],0,[0.7339179240543672],2018_Jul_09_1155,60.093226307,go-nogo,001,12,
logos/3.jpg,properties3.xlsx,frogs/ab15.jpg,0,0,400,l,0,1,1,2,0,89,89,14,,,['l'],0,[0.7175879545638963],2018_Jul_09_1155,60.093226307,go-nogo,001,12,
logos/3.jpg,properties3.xlsx,,,,,,0,1,1,2,,,,,,,,,,2018_Jul_09_1155,60.093226307,go-nogo,001,12,
logos/4.jpg,properties4.xlsx,frogs/ab67.jpg,0,0,400,l,0,2,2,3,0,0,0,65,space,4.0583629298,['l'],0,[0.40087244874393946],2018_Jul_09_1155,60.093226307,go-nogo,001,12,
logos/4.jpg,properties4.xlsx,frogs/ab41.jpg,0,0,400,l,0,2,2,3,0,1,1,40,,,['l'],0,[0.3501815610443373],2018_Jul_09_1155,60.093226307,go-nogo,001,12,
logos/4.jpg,properties4.xlsx,frogs/ab37.jpg,0,0,400,l,0,2,2,3,0,2,2,36,,,['l'],0,[0.4675610745407539],2018_Jul_09_1155,60.093226307,go-nogo,001,12,
logos/4.jpg,properties4.xlsx,frogs/ab43.jpg,0,0,400,l,0,2,2,3,0,3,3,42,,,['l'],0,[0.43398351699943305],2018_Jul_09_1155,60.093226307,go-nogo,001,12,
logos/4.jpg,properties4.xlsx,frogs/ab24.jpg,0,0,400,l,0,2,2,3,0,4,4,23,,,['l'],0,[0.43409445042743755],2018_Jul_09_1155,60.093226307,go-nogo,001,12,
logos/4.jpg,properties4.xlsx,frogs/ab58.jpg,0,0,400,l,0,2,2,3,0,5,5,57,,,['l'],0,[0.3847148527338504],2018_Jul_09_1155,60.093226307,go-nogo,001,12,
logos/4.jpg,properties4.xlsx,frogs/ab70.jpg,0,0,400,l,0,2,2,3,0,6,6,68,,,['l'],0,[0.35097174838483625],2018_Jul_09_1155,60.093226307,go-nogo,001,12,
logos/4.jpg,properties4.xlsx,frogs/ab78.jpg,0,0,400,l,0,2,2,3,0,7,7,76,,,['l'],0,[0.38344850498742744],2018_Jul_09_1155,60.093226307,go-nogo,001,12,
logos/4.jpg,properties4.xlsx,frogs/ab65.jpg,0,0,400,l,0,2,2,3,0,8,8,63,,,['l'],0,[0.5509170212271783],2018_Jul_09_1155,60.093226307,go-nogo,001,12,
logos/4.jpg,properties4.xlsx,logos/4.jpg,0,0,400,a,0,2,2,3,0,9,9,88,,,['l'],0,[0.6343668346598861],2018_Jul_09_1155,60.093226307,go-nogo,001,12,
logos/4.jpg,properties4.xlsx,frogs/ab49.jpg,0,0,400,l,0,2,2,3,0,10,10,48,,,['l'],0,[0.384204558966303],2018_Jul_09_1155,60.093226307,go-nogo,001,12,
logos/4.jpg,properties4.xlsx,frogs/ab64.jpg,0,0,400,l,0,2,2,3,0,11,11,62,,,['l'],0,[0.4673363632382461],2018_Jul_09_1155,60.093226307,go-nogo,001,12,
logos/4.jpg,properties4.xlsx,frogs/ab72.jpg,0,0,400,l,0,2,2,3,0,12,12,70,,,['l'],0,[0.41741973397620313],2018_Jul_09_1155,60.093226307,go-nogo,001,12,
logos/4.jpg,properties4.xlsx,frogs/ab21.jpg,0,0,400,l,0,2,2,3,0,13,13,20,,,['l'],0,[0.4008952043195677],2018_Jul_09_1155,60.093226307,go-nogo,001,12,
logos/4.jpg,properties4.xlsx,frogs/ab20.jpg,0,0,400,l,0,2,2,3,0,14,14,19,,,['l'],0,[0.4337241034445469],2018_Jul_09_1155,60.093226307,go-nogo,001,12,
logos/4.jpg,properties4.xlsx,frogs/ab2.jpg,0,0,400,l,0,2,2,3,0,15,15,1,,,['l'],0,[0.40069267970193323],2018_Jul_09_1155,60.093226307,go-nogo,001,12,
logos/4.jpg,properties4.xlsx,frogs/ab38.jpg,0,0,400,l,0,2,2,3,0,16,16,37,,,['l'],0,[0.33438919201216777],2018_Jul_09_1155,60.093226307,go-nogo,001,12,
logos/4.jpg,properties4.xlsx,frogs/ab11.jpg,0,0,400,l,0,2,2,3,0,17,17,10,,,['l'],0,[0.38348377612783224],2018_Jul_09_1155,60.093226307,go-nogo,001,12,
logos/4.jpg,properties4.xlsx,frogs/ab79.jpg,0,0,400,l,0,2,2,3,0,18,18,77,,,['l'],0,[0.500684658362843],2018_Jul_09_1155,60.093226307,go-nogo,001,12,
logos/4.jpg,properties4.xlsx,frogs/ab30.jpg,0,0,400,l,0,2,2,3,0,19,19,29,,,['l'],0,[0.46768054131007375],2018_Jul_09_1155,60.093226307,go-nogo,001,12,
logos/4.jpg,properties4.xlsx,frogs/ab50.jpg,0,0,400,l,0,2,2,3,0,20,20,49,,,['l'],0,[0.4674751722459405],2018_Jul_09_1155,60.093226307,go-nogo,001,12,
logos/4.jpg,properties4.xlsx,frogs/ab15.jpg,0,0,400,l,0,2,2,3,0,21,21,14,,,['l'],0,[0.4678694125814218],2018_Jul_09_1155,60.093226307,go-nogo,001,12,
logos/4.jpg,properties4.xlsx,logos/4.jpg,0,0,400,a,0,2,2,3,0,22,22,87,,,['l'],0,[1.0997831962595228],2018_Jul_09_1155,60.093226307,go-nogo,001,12,
logos/4.jpg,properties4.xlsx,frogs/ab26.jpg,0,0,400,l,0,2,2,3,0,23,23,25,,,['l'],0,[0.45084767361186096],2018_Jul_09_1155,60.093226307,go-nogo,001,12,
logos/4.jpg,properties4.xlsx,frogs/ab13.jpg,0,0,400,l,0,2,2,3,0,24,24,12,,,['l'],0,[0.4841003953206382],2018_Jul_09_1155,60.093226307,go-nogo,001,12,
logos/4.jpg,properties4.xlsx,frogs/ab71.jpg,0,0,400,l,0,2,2,3,0,25,25,69,,,['l'],0,[0.48404635083079484],2018_Jul_09_1155,60.093226307,go-nogo,001,12,
logos/4.jpg,properties4.xlsx,frogs/ab32.jpg,0,0,400,l,0,2,2,3,0,26,26,31,,,['l'],0,[0.46744957222381345],2018_Jul_09_1155,60.093226307,go-nogo,001,12,
logos/4.jpg,properties4.xlsx,frogs/ab57.jpg,0,0,400,l,0,2,2,3,0,27,27,56,,,['l'],0,[0.48416752426783205],2018_Jul_09_1155,60.093226307,go-nogo,001,12,
logos/4.jpg,properties4.xlsx,frogs/ab33.jpg,0,0,400,l,0,2,2,3,0,28,28,32,,,['l'],0,[0.40057207515474147],2018_Jul_09_1155,60.093226307,go-nogo,001,12,
logos/4.jpg,properties4.xlsx,logos/4.jpg,0,0,400,a,0,2,2,3,0,29,29,80,,,['a'],0,[0.4509722603852424],2018_Jul_09_1155,60.093226307,go-nogo,001,12,
logos/4.jpg,properties4.xlsx,frogs/ab73.jpg,0,0,400,l,0,2,2,3,0,30,30,71,,,['l'],0,[0.4005419240174888],2018_Jul_09_1155,60.093226307,go-nogo,001,12,
logos/4.jpg,properties4.xlsx,logos/4.jpg,0,0,400,a,0,2,2,3,0,31,31,89,,,['a'],0,[0.5174162637504196],2018_Jul_09_1155,60.093226307,go-nogo,001,12,
logos/4.jpg,properties4.xlsx,frogs/ab60.jpg,0,0,400,l,0,2,2,3,0,32,32,58,,,['l'],0,[0.46844285307088285],2018_Jul_09_1155,60.093226307,go-nogo,001,12,
logos/4.jpg,properties4.xlsx,frogs/ab39.jpg,0,0,400,l,0,2,2,3,0,33,33,38,,,['l'],0,[0.46744046999356215],2018_Jul_09_1155,60.093226307,go-nogo,001,12,
logos/4.jpg,properties4.xlsx,frogs/ab3.jpg,0,0,400,l,0,2,2,3,0,34,34,2,,,['l'],0,[0.534058553507748],2018_Jul_09_1155,60.093226307,go-nogo,001,12,
logos/4.jpg,properties4.xlsx,frogs/ab4.jpg,0,0,400,l,0,2,2,3,0,35,35,3,,,['l'],0,[0.551000079075493],2018_Jul_09_1155,60.093226307,go-nogo,001,12,
logos/4.jpg,properties4.xlsx,frogs/ab56.jpg,0,0,400,l,0,2,2,3,0,36,36,55,,,['l'],0,[0.45174026104086806],2018_Jul_09_1155,60.093226307,go-nogo,001,12,
logos/4.jpg,properties4.xlsx,frogs/ab17.jpg,0,0,400,l,0,2,2,3,0,37,37,16,,,['l'],0,[0.4189932819854221],2018_Jul_09_1155,60.093226307,go-nogo,001,12,
logos/4.jpg,properties4.xlsx,frogs/ab18.jpg,0,0,400,l,0,2,2,3,0,38,38,17,,,['l'],0,[0.45098989595589956],2018_Jul_09_1155,60.093226307,go-nogo,001,12,
logos/4.jpg,properties4.xlsx,frogs/ab8.jpg,0,0,400,l,0,2,2,3,0,39,39,7,,,['l'],0,[0.4510587315699013],2018_Jul_09_1155,60.093226307,go-nogo,001,12,
logos/4.jpg,properties4.xlsx,frogs/ab14.jpg,0,0,400,l,0,2,2,3,0,40,40,13,,,['l'],0,[0.3850374130097407],2018_Jul_09_1155,60.093226307,go-nogo,001,12,
logos/4.jpg,properties4.xlsx,frogs/ab36.jpg,0,0,400,l,0,2,2,3,0,41,41,35,,,['l'],0,[0.5677362355791047],2018_Jul_09_1155,60.093226307,go-nogo,001,12,
logos/4.jpg,properties4.xlsx,frogs/ab68.jpg,0,0,400,l,0,2,2,3,0,42,42,66,,,['l'],0,[0.501233067719113],2018_Jul_09_1155,60.093226307,go-nogo,001,12,
logos/4.jpg,properties4.xlsx,frogs/ab29.jpg,0,0,400,l,0,2,2,3,0,43,43,28,,,['l'],0,[0.48465961357578635],2018_Jul_09_1155,60.093226307,go-nogo,001,12,
logos/4.jpg,properties4.xlsx,frogs/ab66.jpg,0,0,400,l,0,2,2,3,0,44,44,64,,,['l'],0,[0.4346644775805544],2018_Jul_09_1155,60.093226307,go-nogo,001,12,
logos/4.jpg,properties4.xlsx,logos/4.jpg,0,0,400,a,0,2,2,3,0,45,45,85,,,['a'],0,[0.4502503397698092],2018_Jul_09_1155,60.093226307,go-nogo,001,12,
logos/4.jpg,properties4.xlsx,frogs/ab63.jpg,0,0,400,l,0,2,2,3,0,46,46,61,,,['l'],0,[0.7671456146308628],2018_Jul_09_1155,60.093226307,go-nogo,001,12,
logos/4.jpg,properties4.xlsx,frogs/ab52.jpg,0,0,400,l,0,2,2,3,0,47,47,51,,,['l'],0,[0.41771555645027547],2018_Jul_09_1155,60.093226307,go-nogo,001,12,
logos/4.jpg,properties4.xlsx,frogs/ab19.jpg,0,0,400,l,0,2,2,3,0,48,48,18,,,['l'],0,[0.4352800158840182],2018_Jul_09_1155,60.093226307,go-nogo,001,12,
logos/4.jpg,properties4.xlsx,frogs/ab81.jpg,0,0,400,l,0,2,2,3,0,49,49,79,,,['l'],0,[0.4193203933755285],2018_Jul_09_1155,60.093226307,go-nogo,001,12,
logos/4.jpg,properties4.xlsx,frogs/ab6.jpg,0,0,400,l,0,2,2,3,0,50,50,5,,,['l'],0,[0.4509722603852424],2018_Jul_09_1155,60.093226307,go-nogo,001,12,
logos/4.jpg,properties4.xlsx,frogs/ab46.jpg,0,0,400,l,0,2,2,3,0,51,51,45,,,['l'],0,[0.4177713076096552],2018_Jul_09_1155,60.093226307,go-nogo,001,12,
logos/4.jpg,properties4.xlsx,logos/4.jpg,0,0,400,a,0,2,2,3,0,52,52,86,,,['a'],0,[0.43586142082403967],2018_Jul_09_1155,60.093226307,go-nogo,001,12,
logos/4.jpg,properties4.xlsx,logos/4.jpg,0,0,400,a,0,2,2,3,0,53,53,83,,,['l'],0,[0.5509056434393642],2018_Jul_09_1155,60.093226307,go-nogo,001,12,
logos/4.jpg,properties4.xlsx,frogs/ab5.jpg,0,0,400,l,0,2,2,3,0,54,54,4,,,['l'],0,[0.6843716417743053],2018_Jul_09_1155,60.093226307,go-nogo,001,12,
logos/4.jpg,properties4.xlsx,frogs/ab9.jpg,0,0,400,l,0,2,2,3,0,55,55,8,,,['l'],0,[0.41762851637577114],2018_Jul_09_1155,60.093226307,go-nogo,001,12,
logos/4.jpg,properties4.xlsx,frogs/ab10.jpg,0,0,400,l,0,2,2,3,0,56,56,9,,,['l'],0,[0.5009713786066641],2018_Jul_09_1155,60.093226307,go-nogo,001,12,
logos/4.jpg,properties4.xlsx,frogs/ab28.jpg,0,0,400,l,0,2,2,3,0,57,57,27,,,['l'],0,[0.434623517545333],2018_Jul_09_1155,60.093226307,go-nogo,001,12,
logos/4.jpg,properties4.xlsx,frogs/ab7.jpg,0,0,400,l,0,2,2,3,0,58,58,6,,,['l'],0,[0.5174282104271697],2018_Jul_09_1155,60.093226307,go-nogo,001,12,
logos/4.jpg,properties4.xlsx,frogs/ab61.jpg,0,0,400,l,0,2,2,3,0,59,59,59,,,['l'],0,[0.4007711864360317],2018_Jul_09_1155,60.093226307,go-nogo,001,12,
logos/4.jpg,properties4.xlsx,frogs/ab53.jpg,0,0,400,l,0,2,2,3,0,60,60,52,,,['l'],0,[0.4008832576428176],2018_Jul_09_1155,60.093226307,go-nogo,001,12,
logos/4.jpg,properties4.xlsx,frogs/ab42.jpg,0,0,400,l,0,2,2,3,0,61,61,41,,,['l'],0,[0.38411524333423586],2018_Jul_09_1155,60.093226307,go-nogo,001,12,
logos/4.jpg,properties4.xlsx,frogs/ab69.jpg,0,0,400,l,0,2,2,3,0,62,62,67,,,['l'],0,[0.41747036513061175],2018_Jul_09_1155,60.093226307,go-nogo,001,12,
logos/4.jpg,properties4.xlsx,frogs/ab12.jpg,0,0,400,l,0,2,2,3,0,63,63,11,,,['l'],0,[0.3507345215157329],2018_Jul_09_1155,60.093226307,go-nogo,001,12,
logos/4.jpg,properties4.xlsx,frogs/ab23.jpg,0,0,400,l,0,2,2,3,0,64,64,22,,,['l'],0,[0.3341616362631612],2018_Jul_09_1155,60.093226307,go-nogo,001,12,
logos/4.jpg,properties4.xlsx,frogs/ab48.jpg,0,0,400,l,0,2,2,3,0,65,65,47,,,['l'],0,[0.40057890182742995],2018_Jul_09_1155,60.093226307,go-nogo,001,12,
logos/4.jpg,properties4.xlsx,frogs/ab76.jpg,0,0,400,l,0,2,2,3,0,66,66,74,,,['l'],0,[0.33342492452175065],2018_Jul_09_1155,60.093226307,go-nogo,001,12,
logos/4.jpg,properties4.xlsx,frogs/ab74.jpg,0,0,400,l,0,2,2,3,0,67,67,72,,,['l'],0,[0.4340352859326231],2018_Jul_09_1155,60.093226307,go-nogo,001,12,
logos/4.jpg,properties4.xlsx,frogs/ab55.jpg,0,0,400,l,0,2,2,3,0,68,68,54,,,['l'],0,[0.3675452025272534],2018_Jul_09_1155,60.093226307,go-nogo,001,12,
logos/4.jpg,properties4.xlsx,logos/4.jpg,0,0,400,a,0,2,2,3,0,69,69,81,,,['a'],0,[0.35082269936901866],2018_Jul_09_1155,60.093226307,go-nogo,001,12,
logos/4.jpg,properties4.xlsx,frogs/ab80.jpg,0,0,400,l,0,2,2,3,0,70,70,78,,,['l'],0,[0.40080475090871914],2018_Jul_09_1155,60.093226307,go-nogo,001,12,
logos/4.jpg,properties4.xlsx,frogs/ab16.jpg,0,0,400,l,0,2,2,3,0,71,71,15,,,['l'],0,[0.417590969676894],2018_Jul_09_1155,60.093226307,go-nogo,001,12,
logos/4.jpg,properties4.xlsx,frogs/ab45.jpg,0,0,400,l,0,2,2,3,0,72,72,44,,,['l'],0,[0.3842409678854892],2018_Jul_09_1155,60.093226307,go-nogo,001,12,
logos/4.jpg,properties4.xlsx,frogs/ab31.jpg,0,0,400,l,0,2,2,3,0,73,73,30,,,['l'],0,[0.484141924245705],2018_Jul_09_1155,60.093226307,go-nogo,001,12,
logos/4.jpg,properties4.xlsx,logos/4.jpg,0,0,400,a,0,2,2,3,0,74,74,82,,,['a'],0,[0.35081757936495706],2018_Jul_09_1155,60.093226307,go-nogo,001,12,
logos/4.jpg,properties4.xlsx,frogs/ab47.jpg,0,0,400,l,0,2,2,3,0,75,75,46,,,['l'],0,[0.5341143046662182],2018_Jul_09_1155,60.093226307,go-nogo,001,12,
logos/4.jpg,properties4.xlsx,frogs/ab35.jpg,0,0,400,l,0,2,2,3,0,76,76,34,,,['l'],0,[0.4338156946332674],2018_Jul_09_1155,60.093226307,go-nogo,001,12,
logos/4.jpg,properties4.xlsx,frogs/ab1.jpg,0,0,400,l,0,2,2,3,0,77,77,0,,,['l'],0,[0.3675742158857247],2018_Jul_09_1155,60.093226307,go-nogo,001,12,
logos/4.jpg,properties4.xlsx,frogs/ab75.jpg,0,0,400,l,0,2,2,3,0,78,78,73,,,['l'],0,[0.4526794973980941],2018_Jul_09_1155,60.093226307,go-nogo,001,12,
logos/4.jpg,properties4.xlsx,frogs/ab62.jpg,0,0,400,l,0,2,2,3,0,79,79,60,,,['l'],0,[0.4341445126920007],2018_Jul_09_1155,60.093226307,go-nogo,001,12,
logos/4.jpg,properties4.xlsx,frogs/ab77.jpg,0,0,400,l,0,2,2,3,0,80,80,75,,,['l'],0,[0.4007581019805002],2018_Jul_09_1155,60.093226307,go-nogo,001,12,
logos/4.jpg,properties4.xlsx,frogs/ab34.jpg,0,0,400,l,0,2,2,3,0,81,81,33,,,['l'],0,[0.4841356664619525],2018_Jul_09_1155,60.093226307,go-nogo,001,12,
logos/4.jpg,properties4.xlsx,frogs/ab40.jpg,0,0,400,l,0,2,2,3,0,82,82,39,,,['l'],0,[0.4008405909389694],2018_Jul_09_1155,60.093226307,go-nogo,001,12,
logos/4.jpg,properties4.xlsx,frogs/ab27.jpg,0,0,400,l,0,2,2,3,0,83,83,26,,,['l'],0,[0.4175426140809577],2018_Jul_09_1155,60.093226307,go-nogo,001,12,
logos/4.jpg,properties4.xlsx,frogs/ab25.jpg,0,0,400,l,0,2,2,3,0,84,84,24,,,['l'],0,[0.4673545676987487],2018_Jul_09_1155,60.093226307,go-nogo,001,12,
logos/4.jpg,properties4.xlsx,frogs/ab54.jpg,0,0,400,l,0,2,2,3,0,85,85,53,,,['l'],0,[0.4332934541880604],2018_Jul_09_1155,60.093226307,go-nogo,001,12,
logos/4.jpg,properties4.xlsx,frogs/ab51.jpg,0,0,400,l,0,2,2,3,0,86,86,50,,,['l'],0,[0.4341092415506864],2018_Jul_09_1155,60.093226307,go-nogo,001,12,
logos/4.jpg,properties4.xlsx,logos/4.jpg,0,0,400,a,0,2,2,3,0,87,87,84,,,['a'],0,[0.4343117661683209],2018_Jul_09_1155,60.093226307,go-nogo,001,12,
logos/4.jpg,properties4.xlsx,frogs/ab22.jpg,0,0,400,l,0,2,2,3,0,88,88,21,,,['l'],0,[0.38426656790761626],2018_Jul_09_1155,60.093226307,go-nogo,001,12,
logos/4.jpg,properties4.xlsx,frogs/ab44.jpg,0,0,400,l,0,2,2,3,0,89,89,43,,,['l'],0,[0.3509046194394614],2018_Jul_09_1155,60.093226307,go-nogo,001,12,
logos/4.jpg,properties4.xlsx,,,,,,0,2,2,3,,,,,,,,,,2018_Jul_09_1155,60.093226307,go-nogo,001,12,
logos/2.jpg,properties2.xlsx,frogs/ab10.jpg,0,0,400,l,0,3,3,1,0,0,0,9,space,4.99195249091,['l'],0,[0.18409203264764074],2018_Jul_09_1155,60.093226307,go-nogo,001,12,
logos/2.jpg,properties2.xlsx,frogs/ab60.jpg,0,0,400,l,0,3,3,1,0,1,1,58,,,['l'],0,[0.35099109062321077],2018_Jul_09_1155,60.093226307,go-nogo,001,12,
logos/2.jpg,properties2.xlsx,frogs/ab50.jpg,0,0,400,l,0,3,3,1,0,2,2,49,,,['l'],0,[0.2509570141501172],2018_Jul_09_1155,60.093226307,go-nogo,001,12,
logos/2.jpg,properties2.xlsx,frogs/ab32.jpg,0,0,400,l,0,3,3,1,0,3,3,31,,,['l'],0,[0.3676953893227619],2018_Jul_09_1155,60.093226307,go-nogo,001,12,
logos/2.jpg,properties2.xlsx,frogs/ab40.jpg,0,0,400,l,0,3,3,1,0,4,4,39,,,['l'],0,[0.40108009336654504],2018_Jul_09_1155,60.093226307,go-nogo,001,12,
logos/2.jpg,properties2.xlsx,frogs/ab14.jpg,0,0,400,l,0,3,3,1,0,5,5,13,,,['l'],0,[0.3510047439685877],2018_Jul_09_1155,60.093226307,go-nogo,001,12,
logos/2.jpg,properties2.xlsx,frogs/ab24.jpg,0,0,400,l,0,3,3,1,0,6,6,23,,,['l'],0,[0.3696614709997448],2018_Jul_09_1155,60.093226307,go-nogo,001,12,
logos/2.jpg,properties2.xlsx,frogs/ab77.jpg,0,0,400,l,0,3,3,1,0,7,7,75,,,['l'],0,[0.3176240221509943],2018_Jul_09_1155,60.093226307,go-nogo,001,12,
logos/2.jpg,properties2.xlsx,frogs/ab19.jpg,0,0,400,l,0,3,3,1,0,8,8,18,,,['l'],0,[0.5844206231504359],2018_Jul_09_1155,60.093226307,go-nogo,001,12,
logos/2.jpg,properties2.xlsx,frogs/ab69.jpg,0,0,400,l,0,3,3,1,0,9,9,67,,,['l'],0,[0.43400854813262413],2018_Jul_09_1155,60.093226307,go-nogo,001,12,
logos/2.jpg,properties2.xlsx,frogs/ab21.jpg,0,0,400,l,0,3,3,1,0,10,10,20,,,['l'],0,[0.38456694149772375],2018_Jul_09_1155,60.093226307,go-nogo,001,12,
logos/2.jpg,properties2.xlsx,logos/2.jpg,0,0,400,a,0,3,3,1,0,11,11,84,,,['a'],0,[0.3514615621361372],2018_Jul_09_1155,60.093226307,go-nogo,001,12,
logos/2.jpg,properties2.xlsx,frogs/ab55.jpg,0,0,400,l,0,3,3,1,0,12,12,54,,,['l'],0,[0.3341798407227543],2018_Jul_09_1155,60.093226307,go-nogo,001,12,
logos/2.jpg,properties2.xlsx,frogs/ab41.jpg,0,0,400,l,0,3,3,1,0,13,13,40,,,['l'],0,[0.450788509117956],2018_Jul_09_1155,60.093226307,go-nogo,001,12,
logos/2.jpg,properties2.xlsx,logos/2.jpg,0,0,400,a,0,3,3,1,0,14,14,82,,,['a'],0,[0.3340950762058128],2018_Jul_09_1155,60.093226307,go-nogo,001,12,
logos/2.jpg,properties2.xlsx,frogs/ab61.jpg,0,0,400,l,0,3,3,1,0,15,15,59,,,['l'],0,[0.3843012701599946],2018_Jul_09_1155,60.093226307,go-nogo,001,12,
logos/2.jpg,properties2.xlsx,frogs/ab2.jpg,0,0,400,l,0,3,3,1,0,16,16,1,,,['l'],0,[0.4511292738525299],2018_Jul_09_1155,60.093226307,go-nogo,001,12,
logos/2.jpg,properties2.xlsx,frogs/ab30.jpg,0,0,400,l,0,3,3,1,0,17,17,29,,,['l'],0,[0.4675752967750668],2018_Jul_09_1155,60.093226307,go-nogo,001,12,
logos/2.jpg,properties2.xlsx,frogs/ab70.jpg,0,0,400,l,0,3,3,1,0,18,18,68,,,['l'],0,[0.9339985925680594],2018_Jul_09_1155,60.093226307,go-nogo,001,12,
logos/2.jpg,properties2.xlsx,frogs/ab17.jpg,0,0,400,l,0,3,3,1,0,19,19,16,,,['l'],0,[0.3841436878019522],2018_Jul_09_1155,60.093226307,go-nogo,001,12,
logos/2.jpg,properties2.xlsx,logos/2.jpg,0,0,400,a,0,3,3,1,0,20,20,81,,,['a'],0,[0.3676760470834779],2018_Jul_09_1155,60.093226307,go-nogo,001,12,
logos/2.jpg,properties2.xlsx,frogs/ab9.jpg,0,0,400,l,0,3,3,1,0,21,21,8,,,['l'],0,[0.5006385783226506],2018_Jul_09_1155,60.093226307,go-nogo,001,12,
logos/2.jpg,properties2.xlsx,logos/2.jpg,0,0,400,a,0,3,3,1,0,22,22,87,,,['a'],0,[0.5845264365734693],2018_Jul_09_1155,60.093226307,go-nogo,001,12,
logos/2.jpg,properties2.xlsx,frogs/ab67.jpg,0,0,400,l,0,3,3,1,0,23,23,65,,,['l'],0,[0.41718705822131597],2018_Jul_09_1155,60.093226307,go-nogo,001,12,
logos/2.jpg,properties2.xlsx,logos/2.jpg,0,0,400,a,0,3,3,1,0,24,24,80,,,['a'],0,[0.8498888674612317],2018_Jul_09_1155,60.093226307,go-nogo,001,12,
logos/2.jpg,properties2.xlsx,frogs/ab13.jpg,0,0,400,l,0,3,3,1,0,25,25,12,,,['l'],0,[0.4676822479777911],2018_Jul_09_1155,60.093226307,go-nogo,001,12,
logos/2.jpg,properties2.xlsx,frogs/ab28.jpg,0,0,400,l,0,3,3,1,0,26,26,27,,,['l'],0,[0.21741814108554536],2018_Jul_09_1155,60.093226307,go-nogo,001,12,
logos/2.jpg,properties2.xlsx,frogs/ab80.jpg,0,0,400,l,0,3,3,1,0,27,27,78,,,['l'],0,[0.38418863006245374],2018_Jul_09_1155,60.093226307,go-nogo,001,12,
logos/2.jpg,properties2.xlsx,frogs/ab66.jpg,0,0,400,l,0,3,3,1,0,28,28,64,,,['l'],0,[0.3508534193942978],2018_Jul_09_1155,60.093226307,go-nogo,001,12,
logos/2.jpg,properties2.xlsx,frogs/ab20.jpg,0,0,400,l,0,3,3,1,0,29,29,19,,,['l'],0,[0.33412977845819114],2018_Jul_09_1155,60.093226307,go-nogo,001,12,
logos/2.jpg,properties2.xlsx,frogs/ab22.jpg,0,0,400,l,0,3,3,1,0,30,30,21,,,['l'],0,[0.4343430550834455],2018_Jul_09_1155,60.093226307,go-nogo,001,12,
logos/2.jpg,properties2.xlsx,frogs/ab35.jpg,0,0,400,l,0,3,3,1,0,31,31,34,,,['l'],0,[0.4837033105377486],2018_Jul_09_1155,60.093226307,go-nogo,001,12,
logos/2.jpg,properties2.xlsx,frogs/ab12.jpg,0,0,400,l,0,3,3,1,0,32,32,11,,,['l'],0,[0.6008808683072857],2018_Jul_09_1155,60.093226307,go-nogo,001,12,
logos/2.jpg,properties2.xlsx,frogs/ab79.jpg,0,0,400,l,0,3,3,1,0,33,33,77,,,['l'],0,[0.43406714373759314],2018_Jul_09_1155,60.093226307,go-nogo,001,12,
logos/2.jpg,properties2.xlsx,frogs/ab47.jpg,0,0,400,l,0,3,3,1,0,34,34,46,,,['l'],0,[0.4839189196109146],2018_Jul_09_1155,60.093226307,go-nogo,001,12,
logos/2.jpg,properties2.xlsx,logos/2.jpg,0,0,400,a,0,3,3,1,0,35,35,88,,,['a'],0,[0.434323143956135],2018_Jul_09_1155,60.093226307,go-nogo,001,12,
logos/2.jpg,properties2.xlsx,frogs/ab27.jpg,0,0,400,l,0,3,3,1,0,36,36,26,,,['l'],0,[0.5339163311646189],2018_Jul_09_1155,60.093226307,go-nogo,001,12,
logos/2.jpg,properties2.xlsx,frogs/ab18.jpg,0,0,400,l,0,3,3,1,0,37,37,17,,,['l'],0,[0.5510825680348717],2018_Jul_09_1155,60.093226307,go-nogo,001,12,
logos/2.jpg,properties2.xlsx,frogs/ab68.jpg,0,0,400,l,0,3,3,1,0,38,38,66,,,['l'],0,[0.5340306779280581],2018_Jul_09_1155,60.093226307,go-nogo,001,12,
logos/2.jpg,properties2.xlsx,frogs/ab45.jpg,0,0,400,l,0,3,3,1,0,39,39,44,,,['l'],0,[0.5671224039442677],2018_Jul_09_1155,60.093226307,go-nogo,001,12,
logos/2.jpg,properties2.xlsx,frogs/ab39.jpg,0,0,400,l,0,3,3,1,0,40,40,38,,,['l'],0,[0.9683435818751605],2018_Jul_09_1155,60.093226307,go-nogo,001,12,
logos/2.jpg,properties2.xlsx,frogs/ab64.jpg,0,0,400,l,0,3,3,1,0,41,41,62,,,['l'],0,[0.4506093089648857],2018_Jul_09_1155,60.093226307,go-nogo,001,12,
logos/2.jpg,properties2.xlsx,frogs/ab5.jpg,0,0,400,l,0,3,3,1,0,42,42,4,,,['l'],0,[0.43424065499675635],2018_Jul_09_1155,60.093226307,go-nogo,001,12,
logos/2.jpg,properties2.xlsx,frogs/ab8.jpg,0,0,400,l,0,3,3,1,0,43,43,7,,,['l'],0,[0.4513966518588859],2018_Jul_09_1155,60.093226307,go-nogo,001,12,
logos/2.jpg,properties2.xlsx,frogs/ab25.jpg,0,0,400,l,0,3,3,1,0,44,44,24,,,['l'],0,[0.46797920823064487],2018_Jul_09_1155,60.093226307,go-nogo,001,12,
logos/2.jpg,properties2.xlsx,logos/2.jpg,0,0,400,a,0,3,3,1,0,45,45,85,,,['a'],0,[0.43423951721797494],2018_Jul_09_1155,60.093226307,go-nogo,001,12,
logos/2.jpg,properties2.xlsx,frogs/ab74.jpg,0,0,400,l,0,3,3,1,0,46,46,72,,,['l'],0,[0.6008529927275958],2018_Jul_09_1155,60.093226307,go-nogo,001,12,
logos/2.jpg,properties2.xlsx,frogs/ab6.jpg,0,0,400,l,0,3,3,1,0,47,47,5,,,['l'],0,[0.40094185324778664],2018_Jul_09_1155,60.093226307,go-nogo,001,12,
logos/2.jpg,properties2.xlsx,frogs/ab43.jpg,0,0,400,l,0,3,3,1,0,48,48,42,,,['l'],0,[0.567843186781829],2018_Jul_09_1155,60.093226307,go-nogo,001,12,
logos/2.jpg,properties2.xlsx,frogs/ab53.jpg,0,0,400,l,0,3,3,1,0,49,49,52,,,['l'],0,[0.534332758185883],2018_Jul_09_1155,60.093226307,go-nogo,001,12,
logos/2.jpg,properties2.xlsx,frogs/ab7.jpg,0,0,400,l,0,3,3,1,0,50,50,6,,,['l'],0,[0.3843900169022163],2018_Jul_09_1155,60.093226307,go-nogo,001,12,
logos/2.jpg,properties2.xlsx,frogs/ab15.jpg,0,0,400,l,0,3,3,1,0,51,51,14,,,['l'],0,[0.48401335524704336],2018_Jul_09_1155,60.093226307,go-nogo,001,12,
logos/2.jpg,properties2.xlsx,frogs/ab4.jpg,0,0,400,l,0,3,3,1,0,52,52,3,,,['l'],0,[0.634355456872072],2018_Jul_09_1155,60.093226307,go-nogo,001,12,
logos/2.jpg,properties2.xlsx,frogs/ab51.jpg,0,0,400,l,0,3,3,1,0,53,53,50,,,['l'],0,[0.46749906559944066],2018_Jul_09_1155,60.093226307,go-nogo,001,12,
logos/2.jpg,properties2.xlsx,frogs/ab78.jpg,0,0,400,l,0,3,3,1,0,54,54,76,,,['l'],0,[0.5006528005569635],2018_Jul_09_1155,60.093226307,go-nogo,001,12,
logos/2.jpg,properties2.xlsx,frogs/ab42.jpg,0,0,400,l,0,3,3,1,0,55,55,41,,,['l'],0,[0.40070291971096594],2018_Jul_09_1155,60.093226307,go-nogo,001,12,
logos/2.jpg,properties2.xlsx,frogs/ab65.jpg,0,0,400,l,0,3,3,1,0,56,56,63,,,['l'],0,[0.46696260291901126],2018_Jul_09_1155,60.093226307,go-nogo,001,12,
logos/2.jpg,properties2.xlsx,frogs/ab36.jpg,0,0,400,l,0,3,3,1,0,57,57,35,,,['l'],0,[0.500829156263535],2018_Jul_09_1155,60.093226307,go-nogo,001,12,
logos/2.jpg,properties2.xlsx,frogs/ab46.jpg,0,0,400,l,0,3,3,1,0,58,58,45,,,['l'],0,[0.48443262671571574],2018_Jul_09_1155,60.093226307,go-nogo,001,12,
logos/2.jpg,properties2.xlsx,frogs/ab72.jpg,0,0,400,l,0,3,3,1,0,59,59,70,,,['l'],0,[0.45144557634466764],2018_Jul_09_1155,60.093226307,go-nogo,001,12,
logos/2.jpg,properties2.xlsx,logos/2.jpg,0,0,400,a,0,3,3,1,0,60,60,89,,,['a'],0,[0.4340261837023718],2018_Jul_09_1155,60.093226307,go-nogo,001,12,
logos/2.jpg,properties2.xlsx,frogs/ab62.jpg,0,0,400,l,0,3,3,1,0,61,61,60,,,['l'],0,[0.35075272597532603],2018_Jul_09_1155,60.093226307,go-nogo,001,12,
logos/2.jpg,properties2.xlsx,frogs/ab49.jpg,0,0,400,l,0,3,3,1,0,62,62,48,,,['l'],0,[0.466757233854878],2018_Jul_09_1155,60.093226307,go-nogo,001,12,
logos/2.jpg,properties2.xlsx,frogs/ab3.jpg,0,0,400,l,0,3,3,1,0,63,63,2,,,['l'],0,[0.3675935581240992],2018_Jul_09_1155,60.093226307,go-nogo,001,12,
logos/2.jpg,properties2.xlsx,frogs/ab48.jpg,0,0,400,l,0,3,3,1,0,64,64,47,,,['l'],0,[0.3676208648148531],2018_Jul_09_1155,60.093226307,go-nogo,001,12,
logos/2.jpg,properties2.xlsx,frogs/ab75.jpg,0,0,400,l,0,3,3,1,0,65,65,73,,,['l'],0,[0.35087276163358183],2018_Jul_09_1155,60.093226307,go-nogo,001,12,
logos/2.jpg,properties2.xlsx,frogs/ab52.jpg,0,0,400,l,0,3,3,1,0,66,66,51,,,['l'],0,[0.43513210464607255],2018_Jul_09_1155,60.093226307,go-nogo,001,12,
logos/2.jpg,properties2.xlsx,frogs/ab73.jpg,0,0,400,l,0,3,3,1,0,67,67,71,,,['l'],0,[0.3519070025158726],2018_Jul_09_1155,60.093226307,go-nogo,001,12,
logos/2.jpg,properties2.xlsx,frogs/ab57.jpg,0,0,400,l,0,3,3,1,0,68,68,56,,,['l'],0,[0.517841224112999],2018_Jul_09_1155,60.093226307,go-nogo,001,12,
logos/2.jpg,properties2.xlsx,frogs/ab34.jpg,0,0,400,l,0,3,3,1,0,69,69,33,,,['l'],0,[0.36782168276295124],2018_Jul_09_1155,60.093226307,go-nogo,001,12,
logos/2.jpg,properties2.xlsx,frogs/ab38.jpg,0,0,400,l,0,3,3,1,0,70,70,37,,,['l'],0,[0.41741973397620313],2018_Jul_09_1155,60.093226307,go-nogo,001,12,
logos/2.jpg,properties2.xlsx,frogs/ab1.jpg,0,0,400,l,0,3,3,1,0,71,71,0,,,['l'],0,[0.36776422493676364],2018_Jul_09_1155,60.093226307,go-nogo,001,12,
logos/2.jpg,properties2.xlsx,frogs/ab26.jpg,0,0,400,l,0,3,3,1,0,72,72,25,,,['l'],0,[0.46752409673172224],2018_Jul_09_1155,60.093226307,go-nogo,001,12,
logos/2.jpg,properties2.xlsx,logos/2.jpg,0,0,400,a,0,3,3,1,0,73,73,86,,,['a'],0,[0.3673290245651515],2018_Jul_09_1155,60.093226307,go-nogo,001,12,
logos/2.jpg,properties2.xlsx,frogs/ab63.jpg,0,0,400,l,0,3,3,1,0,74,74,61,,,['l'],0,[0.4010271866536641],2018_Jul_09_1155,60.093226307,go-nogo,001,12,
logos/2.jpg,properties2.xlsx,frogs/ab31.jpg,0,0,400,l,0,3,3,1,0,75,75,30,,,['l'],0,[0.48489456488732685],2018_Jul_09_1155,60.093226307,go-nogo,001,12,
logos/2.jpg,properties2.xlsx,frogs/ab44.jpg,0,0,400,l,0,3,3,1,0,76,76,43,,,['l'],0,[0.5165834097060724],2018_Jul_09_1155,60.093226307,go-nogo,001,12,
logos/2.jpg,properties2.xlsx,frogs/ab71.jpg,0,0,400,l,0,3,3,1,0,77,77,69,,,['l'],0,[0.46753547451862687],2018_Jul_09_1155,60.093226307,go-nogo,001,12,
logos/2.jpg,properties2.xlsx,frogs/ab11.jpg,0,0,400,l,0,3,3,1,0,78,78,10,,,['l'],0,[0.4675935012346599],2018_Jul_09_1155,60.093226307,go-nogo,001,12,
logos/2.jpg,properties2.xlsx,frogs/ab33.jpg,0,0,400,l,0,3,3,1,0,79,79,32,,,['l'],0,[0.45090399366017664],2018_Jul_09_1155,60.093226307,go-nogo,001,12,
logos/2.jpg,properties2.xlsx,frogs/ab29.jpg,0,0,400,l,0,3,3,1,0,80,80,28,,,['l'],0,[0.41796643666475575],2018_Jul_09_1155,60.093226307,go-nogo,001,12,
logos/2.jpg,properties2.xlsx,frogs/ab58.jpg,0,0,400,l,0,3,3,1,0,81,81,57,,,['l'],0,[0.44996305063523323],2018_Jul_09_1155,60.093226307,go-nogo,001,12,
logos/2.jpg,properties2.xlsx,frogs/ab23.jpg,0,0,400,l,0,3,3,1,0,82,82,22,,,['l'],0,[0.5172188591377562],2018_Jul_09_1155,60.093226307,go-nogo,001,12,
logos/2.jpg,properties2.xlsx,frogs/ab16.jpg,0,0,400,l,0,3,3,1,0,83,83,15,,,['l'],0,[0.3677164382288538],2018_Jul_09_1155,60.093226307,go-nogo,001,12,
logos/2.jpg,properties2.xlsx,frogs/ab56.jpg,0,0,400,l,0,3,3,1,0,84,84,55,,,['l'],0,[0.46820391953406215],2018_Jul_09_1155,60.093226307,go-nogo,001,12,
logos/2.jpg,properties2.xlsx,frogs/ab37.jpg,0,0,400,l,0,3,3,1,0,85,85,36,,,['l'],0,[0.4674774478025938],2018_Jul_09_1155,60.093226307,go-nogo,001,12,
logos/2.jpg,properties2.xlsx,frogs/ab81.jpg,0,0,400,l,0,3,3,1,0,86,86,79,,,['l'],0,[0.384061198843483],2018_Jul_09_1155,60.093226307,go-nogo,001,12,
logos/2.jpg,properties2.xlsx,logos/2.jpg,0,0,400,a,0,3,3,1,0,87,87,83,,,['a'],0,[0.45087270474505203],2018_Jul_09_1155,60.093226307,go-nogo,001,12,
logos/2.jpg,properties2.xlsx,frogs/ab76.jpg,0,0,400,l,0,3,3,1,0,88,88,74,,,['l'],0,[0.3994126786101333],2018_Jul_09_1155,60.093226307,go-nogo,001,12,
logos/2.jpg,properties2.xlsx,frogs/ab54.jpg,0,0,400,l,0,3,3,1,0,89,89,53,,,['l'],0,[0.45091821589448955],2018_Jul_09_1155,60.093226307,go-nogo,001,12,
logos/2.jpg,properties2.xlsx,,,,,,0,3,3,1,,,,,,,,,,2018_Jul_09_1155,60.093226307,go-nogo,001,12,
