pix,source,image1,x,y,size,answer,trials_2.thisRepN,trials_2.thisTrialN,trials_2.thisN,trials_2.thisIndex,trials.thisRepN,trials.thisTrialN,trials.thisN,trials.thisIndex,key_resp_3.keys,key_resp_3.rt,key_resp_2.keys,key_resp_2.corr,key_resp_2.rt,date,frameRate,expName,session,participant,
logos/2.jpg,properties2.xlsx,frogs/ab56.jpg,0,0,400,l,0,0,0,1,0,0,0,55,space,25.6387222517,['l'],0,[0.9173506139168239],2018_Jul_09_1202,60.0203845404,go-nogo,001,13,
logos/2.jpg,properties2.xlsx,frogs/ab33.jpg,0,0,400,l,0,0,0,1,0,1,1,32,,,['l'],0,[0.43412460156378074],2018_Jul_09_1202,60.0203845404,go-nogo,001,13,
logos/2.jpg,properties2.xlsx,frogs/ab63.jpg,0,0,400,l,0,0,0,1,0,2,2,61,,,['l'],0,[0.26694451223738724],2018_Jul_09_1202,60.0203845404,go-nogo,001,13,
logos/2.jpg,properties2.xlsx,frogs/ab14.jpg,0,0,400,l,0,0,0,1,0,3,3,13,,,['l'],0,[0.21762180348196125],2018_Jul_09_1202,60.0203845404,go-nogo,001,13,
logos/2.jpg,properties2.xlsx,frogs/ab12.jpg,0,0,400,l,0,0,0,1,0,4,4,11,,,['l'],0,[0.05099467462696339],2018_Jul_09_1202,60.0203845404,go-nogo,001,13,
logos/2.jpg,properties2.xlsx,logos/2.jpg,0,0,400,a,0,0,0,1,0,5,5,85,,,['a'],0,[0.5841623473743311],2018_Jul_09_1202,60.0203845404,go-nogo,001,13,
logos/2.jpg,properties2.xlsx,frogs/ab77.jpg,0,0,400,l,0,0,0,1,0,6,6,75,,,['l'],0,[0.3501178454334877],2018_Jul_09_1202,60.0203845404,go-nogo,001,13,
logos/2.jpg,properties2.xlsx,frogs/ab73.jpg,0,0,400,l,0,0,0,1,0,7,7,71,,,['l'],0,[0.20224984369724552],2018_Jul_09_1202,60.0203845404,go-nogo,001,13,
logos/2.jpg,properties2.xlsx,frogs/ab8.jpg,0,0,400,l,0,0,0,1,0,8,8,7,,,['l'],0,[0.3341946318460032],2018_Jul_09_1202,60.0203845404,go-nogo,001,13,
logos/2.jpg,properties2.xlsx,frogs/ab49.jpg,0,0,400,l,0,0,0,1,0,9,9,48,,,['l'],0,[0.40022903486260475],2018_Jul_09_1202,60.0203845404,go-nogo,001,13,
logos/2.jpg,properties2.xlsx,frogs/ab67.jpg,0,0,400,l,0,0,0,1,0,10,10,65,,,['l'],0,[0.3839400254064458],2018_Jul_09_1202,60.0203845404,go-nogo,001,13,
logos/2.jpg,properties2.xlsx,frogs/ab23.jpg,0,0,400,l,0,0,0,1,0,11,11,22,,,['l'],0,[0.46744558999762376],2018_Jul_09_1202,60.0203845404,go-nogo,001,13,
logos/2.jpg,properties2.xlsx,frogs/ab2.jpg,0,0,400,l,0,0,0,1,0,12,12,1,,,['l'],0,[0.43415987270600453],2018_Jul_09_1202,60.0203845404,go-nogo,001,13,
logos/2.jpg,properties2.xlsx,logos/2.jpg,0,0,400,a,0,0,0,1,0,13,13,83,,,['a'],0,[0.6010486906725419],2018_Jul_09_1202,60.0203845404,go-nogo,001,13,
logos/2.jpg,properties2.xlsx,frogs/ab18.jpg,0,0,400,l,0,0,0,1,0,14,14,17,,,['l'],0,[0.500769991767811],2018_Jul_09_1202,60.0203845404,go-nogo,001,13,
logos/2.jpg,properties2.xlsx,frogs/ab72.jpg,0,0,400,l,0,0,0,1,0,15,15,70,,,['l'],0,[0.39585939557764505],2018_Jul_09_1202,60.0203845404,go-nogo,001,13,
logos/2.jpg,properties2.xlsx,frogs/ab45.jpg,0,0,400,l,0,0,0,1,0,16,16,44,,,['l'],0,[0.416716586709299],2018_Jul_09_1202,60.0203845404,go-nogo,001,13,
logos/2.jpg,properties2.xlsx,frogs/ab43.jpg,0,0,400,l,0,0,0,1,0,17,17,42,,,['l'],0,[0.4337963523948929],2018_Jul_09_1202,60.0203845404,go-nogo,001,13,
logos/2.jpg,properties2.xlsx,frogs/ab40.jpg,0,0,400,l,0,0,0,1,0,18,18,39,,,['l'],0,[0.8171942262279117],2018_Jul_09_1202,60.0203845404,go-nogo,001,13,
logos/2.jpg,properties2.xlsx,frogs/ab7.jpg,0,0,400,l,0,0,0,1,0,19,19,6,,,['l'],0,[0.5999467519541213],2018_Jul_09_1202,60.0203845404,go-nogo,001,13,
logos/2.jpg,properties2.xlsx,frogs/ab55.jpg,0,0,400,l,0,0,0,1,0,20,20,54,,,['l'],0,[0.41827420581648767],2018_Jul_09_1202,60.0203845404,go-nogo,001,13,
logos/2.jpg,properties2.xlsx,frogs/ab64.jpg,0,0,400,l,0,0,0,1,0,21,21,62,,,['l'],0,[0.6173029978763225],2018_Jul_09_1202,60.0203845404,go-nogo,001,13,
logos/2.jpg,properties2.xlsx,frogs/ab60.jpg,0,0,400,l,0,0,0,1,0,22,22,58,,,['l'],0,[0.6506330885404168],2018_Jul_09_1202,60.0203845404,go-nogo,001,13,
logos/2.jpg,properties2.xlsx,frogs/ab36.jpg,0,0,400,l,0,0,0,1,0,23,23,35,,,['l'],0,[0.5168735432871472],2018_Jul_09_1202,60.0203845404,go-nogo,001,13,
logos/2.jpg,properties2.xlsx,frogs/ab24.jpg,0,0,400,l,0,0,0,1,0,24,24,23,,,['l'],0,[0.4008917909832235],2018_Jul_09_1202,60.0203845404,go-nogo,001,13,
logos/2.jpg,properties2.xlsx,frogs/ab52.jpg,0,0,400,l,0,0,0,1,0,25,25,51,,,['l'],0,[0.7339213373898019],2018_Jul_09_1202,60.0203845404,go-nogo,001,13,
logos/2.jpg,properties2.xlsx,logos/2.jpg,0,0,400,a,0,0,0,1,0,26,26,84,,,['a'],0,[0.4342110727493491],2018_Jul_09_1202,60.0203845404,go-nogo,001,13,
logos/2.jpg,properties2.xlsx,frogs/ab75.jpg,0,0,400,l,0,0,0,1,0,27,27,73,,,['l'],0,[0.4673329499019019],2018_Jul_09_1202,60.0203845404,go-nogo,001,13,
logos/2.jpg,properties2.xlsx,logos/2.jpg,0,0,400,a,0,0,0,1,0,28,28,89,,,['a'],0,[0.5672919329781507],2018_Jul_09_1202,60.0203845404,go-nogo,001,13,
logos/2.jpg,properties2.xlsx,logos/2.jpg,0,0,400,a,0,0,0,1,0,29,29,81,,,['a'],0,[0.45073275795857626],2018_Jul_09_1202,60.0203845404,go-nogo,001,13,
logos/2.jpg,properties2.xlsx,frogs/ab44.jpg,0,0,400,l,0,0,0,1,0,30,30,43,,,['l'],0,[0.3676123314735378],2018_Jul_09_1202,60.0203845404,go-nogo,001,13,
logos/2.jpg,properties2.xlsx,frogs/ab74.jpg,0,0,400,l,0,0,0,1,0,31,31,72,,,['l'],0,[0.31759557768145896],2018_Jul_09_1202,60.0203845404,go-nogo,001,13,
logos/2.jpg,properties2.xlsx,frogs/ab30.jpg,0,0,400,l,0,0,0,1,0,32,32,29,,,['l'],0,[0.4841430620244864],2018_Jul_09_1202,60.0203845404,go-nogo,001,13,
logos/2.jpg,properties2.xlsx,frogs/ab41.jpg,0,0,400,l,0,0,0,1,0,33,33,40,,,['l'],0,[0.5000696889483152],2018_Jul_09_1202,60.0203845404,go-nogo,001,13,
logos/2.jpg,properties2.xlsx,logos/2.jpg,0,0,400,a,0,0,0,1,0,34,34,87,,,['a'],0,[0.567223666253085],2018_Jul_09_1202,60.0203845404,go-nogo,001,13,
logos/2.jpg,properties2.xlsx,frogs/ab79.jpg,0,0,400,l,0,0,0,1,0,35,35,77,,,['l'],0,[0.3672960289814],2018_Jul_09_1202,60.0203845404,go-nogo,001,13,
logos/2.jpg,properties2.xlsx,frogs/ab53.jpg,0,0,400,l,0,0,0,1,0,36,36,52,,,['l'],0,[0.28417560249636153],2018_Jul_09_1202,60.0203845404,go-nogo,001,13,
logos/2.jpg,properties2.xlsx,frogs/ab16.jpg,0,0,400,l,0,0,0,1,0,37,37,15,,,['l'],0,[0.36765841151282075],2018_Jul_09_1202,60.0203845404,go-nogo,001,13,
logos/2.jpg,properties2.xlsx,frogs/ab62.jpg,0,0,400,l,0,0,0,1,0,38,38,60,,,['l'],0,[0.5008143651393766],2018_Jul_09_1202,60.0203845404,go-nogo,001,13,
logos/2.jpg,properties2.xlsx,frogs/ab68.jpg,0,0,400,l,0,0,0,1,0,39,39,66,,,['l'],0,[0.5341620913741281],2018_Jul_09_1202,60.0203845404,go-nogo,001,13,
logos/2.jpg,properties2.xlsx,frogs/ab1.jpg,0,0,400,l,0,0,0,1,0,40,40,0,,,['l'],0,[0.5007495117506551],2018_Jul_09_1202,60.0203845404,go-nogo,001,13,
logos/2.jpg,properties2.xlsx,frogs/ab71.jpg,0,0,400,l,0,0,0,1,0,41,41,69,,,['l'],0,[0.7671399257369558],2018_Jul_09_1202,60.0203845404,go-nogo,001,13,
logos/2.jpg,properties2.xlsx,frogs/ab58.jpg,0,0,400,l,0,0,0,1,0,42,42,57,,,['l'],0,[0.41757902300105343],2018_Jul_09_1202,60.0203845404,go-nogo,001,13,
logos/2.jpg,properties2.xlsx,frogs/ab26.jpg,0,0,400,l,0,0,0,1,0,43,43,25,,,['l'],0,[0.3674712469091901],2018_Jul_09_1202,60.0203845404,go-nogo,001,13,
logos/2.jpg,properties2.xlsx,frogs/ab48.jpg,0,0,400,l,0,0,0,1,0,44,44,47,,,['l'],0,[1.167082809243766],2018_Jul_09_1202,60.0203845404,go-nogo,001,13,
logos/2.jpg,properties2.xlsx,frogs/ab9.jpg,0,0,400,l,0,0,0,1,0,45,45,8,,,['l'],0,[0.4673494476937776],2018_Jul_09_1202,60.0203845404,go-nogo,001,13,
logos/2.jpg,properties2.xlsx,frogs/ab80.jpg,0,0,400,l,0,0,0,1,0,46,46,78,,,['l'],0,[0.9506602245637623],2018_Jul_09_1202,60.0203845404,go-nogo,001,13,
logos/2.jpg,properties2.xlsx,frogs/ab22.jpg,0,0,400,l,0,0,0,1,0,47,47,21,,,['l'],0,[0.4341615793737219],2018_Jul_09_1202,60.0203845404,go-nogo,001,13,
logos/2.jpg,properties2.xlsx,frogs/ab13.jpg,0,0,400,l,0,0,0,1,0,48,48,12,,,['l'],0,[0.4175312362931436],2018_Jul_09_1202,60.0203845404,go-nogo,001,13,
logos/2.jpg,properties2.xlsx,frogs/ab57.jpg,0,0,400,l,0,0,0,1,0,49,49,56,,,['l'],0,[0.7004882777500825],2018_Jul_09_1202,60.0203845404,go-nogo,001,13,
logos/2.jpg,properties2.xlsx,logos/2.jpg,0,0,400,a,0,0,0,1,0,50,50,86,,,['a'],0,[0.3841579100371746],2018_Jul_09_1202,60.0203845404,go-nogo,001,13,
logos/2.jpg,properties2.xlsx,frogs/ab15.jpg,0,0,400,l,0,0,0,1,0,51,51,14,,,['l'],0,[0.41759950301820936],2018_Jul_09_1202,60.0203845404,go-nogo,001,13,
logos/2.jpg,properties2.xlsx,frogs/ab76.jpg,0,0,400,l,0,0,0,1,0,52,52,74,,,['l'],0,[0.5007278939538082],2018_Jul_09_1202,60.0203845404,go-nogo,001,13,
logos/2.jpg,properties2.xlsx,frogs/ab66.jpg,0,0,400,l,0,0,0,1,0,53,53,64,,,['l'],0,[0.4008832576428176],2018_Jul_09_1202,60.0203845404,go-nogo,001,13,
logos/2.jpg,properties2.xlsx,frogs/ab17.jpg,0,0,400,l,0,0,0,1,0,54,54,16,,,['l'],0,[0.4174646762367047],2018_Jul_09_1202,60.0203845404,go-nogo,001,13,
logos/2.jpg,properties2.xlsx,frogs/ab42.jpg,0,0,400,l,0,0,0,1,0,55,55,41,,,['l'],0,[0.5341694869357525],2018_Jul_09_1202,60.0203845404,go-nogo,001,13,
logos/2.jpg,properties2.xlsx,frogs/ab50.jpg,0,0,400,l,0,0,0,1,0,56,56,49,,,['l'],0,[0.45067018012741755],2018_Jul_09_1202,60.0203845404,go-nogo,001,13,
logos/2.jpg,properties2.xlsx,frogs/ab34.jpg,0,0,400,l,0,0,0,1,0,57,57,33,,,['l'],0,[0.4175392007446135],2018_Jul_09_1202,60.0203845404,go-nogo,001,13,
logos/2.jpg,properties2.xlsx,frogs/ab27.jpg,0,0,400,l,0,0,0,1,0,58,58,26,,,['l'],0,[0.633995349898214],2018_Jul_09_1202,60.0203845404,go-nogo,001,13,
logos/2.jpg,properties2.xlsx,frogs/ab6.jpg,0,0,400,l,0,0,0,1,0,59,59,5,,,['l'],0,[0.48395362186238344],2018_Jul_09_1202,60.0203845404,go-nogo,001,13,
logos/2.jpg,properties2.xlsx,frogs/ab38.jpg,0,0,400,l,0,0,0,1,0,60,60,37,,,['l'],0,[0.4684929153363555],2018_Jul_09_1202,60.0203845404,go-nogo,001,13,
logos/2.jpg,properties2.xlsx,logos/2.jpg,0,0,400,a,0,0,0,1,0,61,61,82,,,['a'],0,[0.38407371441007854],2018_Jul_09_1202,60.0203845404,go-nogo,001,13,
logos/2.jpg,properties2.xlsx,frogs/ab3.jpg,0,0,400,l,0,0,0,1,0,62,62,2,,,['l'],0,[0.31783337344040774],2018_Jul_09_1202,60.0203845404,go-nogo,001,13,
logos/2.jpg,properties2.xlsx,frogs/ab78.jpg,0,0,400,l,0,0,0,1,0,63,63,76,,,['l'],0,[0.734024306367246],2018_Jul_09_1202,60.0203845404,go-nogo,001,13,
logos/2.jpg,properties2.xlsx,frogs/ab54.jpg,0,0,400,l,0,0,0,1,0,64,64,53,,,['l'],0,[0.33417415182884724],2018_Jul_09_1202,60.0203845404,go-nogo,001,13,
logos/2.jpg,properties2.xlsx,frogs/ab39.jpg,0,0,400,l,0,0,0,1,0,65,65,38,,,['l'],0,[0.3497674095797265],2018_Jul_09_1202,60.0203845404,go-nogo,001,13,
logos/2.jpg,properties2.xlsx,frogs/ab19.jpg,0,0,400,l,0,0,0,1,0,66,66,18,,,['l'],0,[0.31681790590664605],2018_Jul_09_1202,60.0203845404,go-nogo,001,13,
logos/2.jpg,properties2.xlsx,frogs/ab51.jpg,0,0,400,l,0,0,0,1,0,67,67,50,,,['l'],0,[0.43341178317859885],2018_Jul_09_1202,60.0203845404,go-nogo,001,13,
logos/2.jpg,properties2.xlsx,frogs/ab10.jpg,0,0,400,l,0,0,0,1,0,68,68,9,,,['l'],0,[0.4833710791426711],2018_Jul_09_1202,60.0203845404,go-nogo,001,13,
logos/2.jpg,properties2.xlsx,logos/2.jpg,0,0,400,a,0,0,0,1,0,69,69,88,,,['a'],0,[0.3009891279552903],2018_Jul_09_1202,60.0203845404,go-nogo,001,13,
logos/2.jpg,properties2.xlsx,frogs/ab35.jpg,0,0,400,l,0,0,0,1,0,70,70,34,,,['l'],0,[0.28432294484446174],2018_Jul_09_1202,60.0203845404,go-nogo,001,13,
logos/2.jpg,properties2.xlsx,frogs/ab46.jpg,0,0,400,l,0,0,0,1,0,71,71,45,,,['l'],0,[0.33409052509068715],2018_Jul_09_1202,60.0203845404,go-nogo,001,13,
logos/2.jpg,properties2.xlsx,frogs/ab25.jpg,0,0,400,l,0,0,0,1,0,72,72,24,,,['l'],0,[0.3008941234293161],2018_Jul_09_1202,60.0203845404,go-nogo,001,13,
logos/2.jpg,properties2.xlsx,logos/2.jpg,0,0,400,a,0,0,0,1,0,73,73,80,,,['a'],0,[0.334203165186409],2018_Jul_09_1202,60.0203845404,go-nogo,001,13,
logos/2.jpg,properties2.xlsx,frogs/ab11.jpg,0,0,400,l,0,0,0,1,0,74,74,10,,,['l'],0,[0.33427086302162934],2018_Jul_09_1202,60.0203845404,go-nogo,001,13,
logos/2.jpg,properties2.xlsx,frogs/ab61.jpg,0,0,400,l,0,0,0,1,0,75,75,59,,,['l'],0,[0.3507737748823274],2018_Jul_09_1202,60.0203845404,go-nogo,001,13,
logos/2.jpg,properties2.xlsx,frogs/ab21.jpg,0,0,400,l,0,0,0,1,0,76,76,20,,,['l'],0,[0.5175169571703009],2018_Jul_09_1202,60.0203845404,go-nogo,001,13,
logos/2.jpg,properties2.xlsx,frogs/ab5.jpg,0,0,400,l,0,0,0,1,0,77,77,4,,,['l'],0,[0.9005507418032721],2018_Jul_09_1202,60.0203845404,go-nogo,001,13,
logos/2.jpg,properties2.xlsx,frogs/ab20.jpg,0,0,400,l,0,0,0,1,0,78,78,19,,,['l'],0,[0.43424179277553776],2018_Jul_09_1202,60.0203845404,go-nogo,001,13,
logos/2.jpg,properties2.xlsx,frogs/ab81.jpg,0,0,400,l,0,0,0,1,0,79,79,79,,,['l'],0,[0.5507588699811095],2018_Jul_09_1202,60.0203845404,go-nogo,001,13,
logos/2.jpg,properties2.xlsx,frogs/ab70.jpg,0,0,400,l,0,0,0,1,0,80,80,68,,,['l'],0,[0.6007784682196871],2018_Jul_09_1202,60.0203845404,go-nogo,001,13,
logos/2.jpg,properties2.xlsx,frogs/ab32.jpg,0,0,400,l,0,0,0,1,0,81,81,31,,,['l'],0,[0.6837049034284064],2018_Jul_09_1202,60.0203845404,go-nogo,001,13,
logos/2.jpg,properties2.xlsx,frogs/ab47.jpg,0,0,400,l,0,0,0,1,0,82,82,46,,,['l'],0,[0.4009281999033192],2018_Jul_09_1202,60.0203845404,go-nogo,001,13,
logos/2.jpg,properties2.xlsx,frogs/ab4.jpg,0,0,400,l,0,0,0,1,0,83,83,3,,,['l'],0,[0.36749002025862865],2018_Jul_09_1202,60.0203845404,go-nogo,001,13,
logos/2.jpg,properties2.xlsx,frogs/ab37.jpg,0,0,400,l,0,0,0,1,0,84,84,36,,,['l'],0,[0.41743680065701483],2018_Jul_09_1202,60.0203845404,go-nogo,001,13,
logos/2.jpg,properties2.xlsx,frogs/ab65.jpg,0,0,400,l,0,0,0,1,0,85,85,63,,,['l'],0,[0.31694988824165193],2018_Jul_09_1202,60.0203845404,go-nogo,001,13,
logos/2.jpg,properties2.xlsx,frogs/ab69.jpg,0,0,400,l,0,0,0,1,0,86,86,67,,,['l'],0,[0.36773009157423076],2018_Jul_09_1202,60.0203845404,go-nogo,001,13,
logos/2.jpg,properties2.xlsx,frogs/ab28.jpg,0,0,400,l,0,0,0,1,0,87,87,27,,,['l'],0,[0.5338298599790505],2018_Jul_09_1202,60.0203845404,go-nogo,001,13,
logos/2.jpg,properties2.xlsx,frogs/ab29.jpg,0,0,400,l,0,0,0,1,0,88,88,28,,,['l'],0,[0.2842506958941158],2018_Jul_09_1202,60.0203845404,go-nogo,001,13,
logos/2.jpg,properties2.xlsx,frogs/ab31.jpg,0,0,400,l,0,0,0,1,0,89,89,30,,,['l'],0,[0.3509592328191502],2018_Jul_09_1202,60.0203845404,go-nogo,001,13,
logos/2.jpg,properties2.xlsx,,,,,,0,0,0,1,,,,,,,,,,2018_Jul_09_1202,60.0203845404,go-nogo,001,13,
logos/4.jpg,properties4.xlsx,frogs/ab55.jpg,0,0,400,l,0,1,1,3,0,0,0,54,space,13.8833037226,['l'],0,[0.4009498176992565],2018_Jul_09_1202,60.0203845404,go-nogo,001,13,
logos/4.jpg,properties4.xlsx,frogs/ab7.jpg,0,0,400,l,0,1,1,3,0,1,1,6,,,['l'],0,[0.25059690717534977],2018_Jul_09_1202,60.0203845404,go-nogo,001,13,
logos/4.jpg,properties4.xlsx,frogs/ab62.jpg,0,0,400,l,0,1,1,3,0,2,2,60,,,['l'],0,[0.25113905874968623],2018_Jul_09_1202,60.0203845404,go-nogo,001,13,
logos/4.jpg,properties4.xlsx,frogs/ab6.jpg,0,0,400,l,0,1,1,3,0,3,3,5,,,['l'],0,[0.3174527864484844],2018_Jul_09_1202,60.0203845404,go-nogo,001,13,
logos/4.jpg,properties4.xlsx,frogs/ab57.jpg,0,0,400,l,0,1,1,3,0,4,4,56,,,['l'],0,[0.36681531746035034],2018_Jul_09_1202,60.0203845404,go-nogo,001,13,
logos/4.jpg,properties4.xlsx,frogs/ab71.jpg,0,0,400,l,0,1,1,3,0,5,5,69,,,['l'],0,[0.30089981232322316],2018_Jul_09_1202,60.0203845404,go-nogo,001,13,
logos/4.jpg,properties4.xlsx,frogs/ab29.jpg,0,0,400,l,0,1,1,3,0,6,6,28,,,['l'],0,[0.4355957494863105],2018_Jul_09_1202,60.0203845404,go-nogo,001,13,
logos/4.jpg,properties4.xlsx,frogs/ab32.jpg,0,0,400,l,0,1,1,3,0,7,7,31,,,['l'],0,[0.31743515087782725],2018_Jul_09_1202,60.0203845404,go-nogo,001,13,
logos/4.jpg,properties4.xlsx,frogs/ab43.jpg,0,0,400,l,0,1,1,3,0,8,8,42,,,['l'],0,[0.7173296787877916],2018_Jul_09_1202,60.0203845404,go-nogo,001,13,
logos/4.jpg,properties4.xlsx,frogs/ab72.jpg,0,0,400,l,0,1,1,3,0,9,9,70,,,['l'],0,[0.3508198549216104],2018_Jul_09_1202,60.0203845404,go-nogo,001,13,
logos/4.jpg,properties4.xlsx,frogs/ab4.jpg,0,0,400,l,0,1,1,3,0,10,10,3,,,['l'],0,[0.3511549307631867],2018_Jul_09_1202,60.0203845404,go-nogo,001,13,
logos/4.jpg,properties4.xlsx,frogs/ab63.jpg,0,0,400,l,0,1,1,3,0,11,11,61,,,['l'],0,[0.43413996157778456],2018_Jul_09_1202,60.0203845404,go-nogo,001,13,
logos/4.jpg,properties4.xlsx,frogs/ab37.jpg,0,0,400,l,0,1,1,3,0,12,12,36,,,['l'],0,[0.3340910939796231],2018_Jul_09_1202,60.0203845404,go-nogo,001,13,
logos/4.jpg,properties4.xlsx,frogs/ab36.jpg,0,0,400,l,0,1,1,3,0,13,13,35,,,['l'],0,[0.3342384363286328],2018_Jul_09_1202,60.0203845404,go-nogo,001,13,
logos/4.jpg,properties4.xlsx,frogs/ab52.jpg,0,0,400,l,0,1,1,3,0,14,14,51,,,['l'],0,[0.4840298530380096],2018_Jul_09_1202,60.0203845404,go-nogo,001,13,
logos/4.jpg,properties4.xlsx,frogs/ab26.jpg,0,0,400,l,0,1,1,3,0,15,15,25,,,['l'],0,[0.3674160646396558],2018_Jul_09_1202,60.0203845404,go-nogo,001,13,
logos/4.jpg,properties4.xlsx,logos/4.jpg,0,0,400,a,0,1,1,3,0,16,16,84,,,['a'],0,[0.3176097999157719],2018_Jul_09_1202,60.0203845404,go-nogo,001,13,
logos/4.jpg,properties4.xlsx,frogs/ab74.jpg,0,0,400,l,0,1,1,3,0,17,17,72,,,['l'],0,[0.2507664362101423],2018_Jul_09_1202,60.0203845404,go-nogo,001,13,
logos/4.jpg,properties4.xlsx,frogs/ab30.jpg,0,0,400,l,0,1,1,3,0,18,18,29,,,['l'],0,[0.5009560185935698],2018_Jul_09_1202,60.0203845404,go-nogo,001,13,
logos/4.jpg,properties4.xlsx,frogs/ab1.jpg,0,0,400,l,0,1,1,3,0,19,19,0,,,['l'],0,[0.450873273633988],2018_Jul_09_1202,60.0203845404,go-nogo,001,13,
logos/4.jpg,properties4.xlsx,frogs/ab8.jpg,0,0,400,l,0,1,1,3,0,20,20,7,,,['l'],0,[0.400636928543463],2018_Jul_09_1202,60.0203845404,go-nogo,001,13,
logos/4.jpg,properties4.xlsx,frogs/ab79.jpg,0,0,400,l,0,1,1,3,0,21,21,77,,,['l'],0,[0.5008052629100348],2018_Jul_09_1202,60.0203845404,go-nogo,001,13,
logos/4.jpg,properties4.xlsx,frogs/ab44.jpg,0,0,400,l,0,1,1,3,0,22,22,43,,,['l'],0,[0.6839398547399469],2018_Jul_09_1202,60.0203845404,go-nogo,001,13,
logos/4.jpg,properties4.xlsx,frogs/ab76.jpg,0,0,400,l,0,1,1,3,0,23,23,74,,,['l'],0,[0.900251505991946],2018_Jul_09_1202,60.0203845404,go-nogo,001,13,
logos/4.jpg,properties4.xlsx,frogs/ab61.jpg,0,0,400,l,0,1,1,3,0,24,24,59,,,['l'],0,[0.8005644520371789],2018_Jul_09_1202,60.0203845404,go-nogo,001,13,
logos/4.jpg,properties4.xlsx,frogs/ab15.jpg,0,0,400,l,0,1,1,3,0,25,25,14,,,['l'],0,[0.9339132591612724],2018_Jul_09_1202,60.0203845404,go-nogo,001,13,
logos/4.jpg,properties4.xlsx,frogs/ab64.jpg,0,0,400,l,0,1,1,3,0,26,26,62,,,['l'],0,[1.0171821657731925],2018_Jul_09_1202,60.0203845404,go-nogo,001,13,
logos/4.jpg,properties4.xlsx,frogs/ab22.jpg,0,0,400,l,0,1,1,3,0,27,27,21,,,['l'],0,[0.8337745070430174],2018_Jul_09_1202,60.0203845404,go-nogo,001,13,
logos/4.jpg,properties4.xlsx,frogs/ab81.jpg,0,0,400,l,0,1,1,3,0,28,28,79,,,['l'],0,[0.48415842203667125],2018_Jul_09_1202,60.0203845404,go-nogo,001,13,
logos/4.jpg,properties4.xlsx,frogs/ab78.jpg,0,0,400,l,0,1,1,3,0,29,29,76,,,['l'],0,[0.5840827028623607],2018_Jul_09_1202,60.0203845404,go-nogo,001,13,
logos/4.jpg,properties4.xlsx,frogs/ab60.jpg,0,0,400,l,0,1,1,3,0,30,30,58,,,['l'],0,[0.5340437623835896],2018_Jul_09_1202,60.0203845404,go-nogo,001,13,
logos/4.jpg,properties4.xlsx,frogs/ab24.jpg,0,0,400,l,0,1,1,3,0,31,31,23,,,['l'],0,[0.500672142795338],2018_Jul_09_1202,60.0203845404,go-nogo,001,13,
logos/4.jpg,properties4.xlsx,frogs/ab14.jpg,0,0,400,l,0,1,1,3,0,32,32,13,,,['l'],0,[0.48399799523394904],2018_Jul_09_1202,60.0203845404,go-nogo,001,13,
logos/4.jpg,properties4.xlsx,frogs/ab38.jpg,0,0,400,l,0,1,1,3,0,33,33,37,,,['l'],0,[0.4674450211086878],2018_Jul_09_1202,60.0203845404,go-nogo,001,13,
logos/4.jpg,properties4.xlsx,frogs/ab80.jpg,0,0,400,l,0,1,1,3,0,34,34,78,,,['l'],0,[0.7340248752570915],2018_Jul_09_1202,60.0203845404,go-nogo,001,13,
logos/4.jpg,properties4.xlsx,frogs/ab68.jpg,0,0,400,l,0,1,1,3,0,35,35,66,,,['l'],0,[0.7839159044970074],2018_Jul_09_1202,60.0203845404,go-nogo,001,13,
logos/4.jpg,properties4.xlsx,frogs/ab18.jpg,0,0,400,l,0,1,1,3,0,36,36,17,,,['l'],0,[0.7174178566410774],2018_Jul_09_1202,60.0203845404,go-nogo,001,13,
logos/4.jpg,properties4.xlsx,logos/4.jpg,0,0,400,a,0,1,1,3,0,37,37,86,,,['a'],0,[0.3509108772213949],2018_Jul_09_1202,60.0203845404,go-nogo,001,13,
logos/4.jpg,properties4.xlsx,frogs/ab9.jpg,0,0,400,l,0,1,1,3,0,38,38,8,,,['l'],0,[0.5173229658930723],2018_Jul_09_1202,60.0203845404,go-nogo,001,13,
logos/4.jpg,properties4.xlsx,frogs/ab50.jpg,0,0,400,l,0,1,1,3,0,39,39,49,,,['l'],0,[0.3834382649783947],2018_Jul_09_1202,60.0203845404,go-nogo,001,13,
logos/4.jpg,properties4.xlsx,frogs/ab19.jpg,0,0,400,l,0,1,1,3,0,40,40,18,,,['l'],0,[0.3512254730458153],2018_Jul_09_1202,60.0203845404,go-nogo,001,13,
logos/4.jpg,properties4.xlsx,frogs/ab75.jpg,0,0,400,l,0,1,1,3,0,41,41,73,,,['l'],0,[0.6507167152785769],2018_Jul_09_1202,60.0203845404,go-nogo,001,13,
logos/4.jpg,properties4.xlsx,logos/4.jpg,0,0,400,a,0,1,1,3,0,42,42,87,,,['a'],0,[0.2176889324273361],2018_Jul_09_1202,60.0203845404,go-nogo,001,13,
logos/4.jpg,properties4.xlsx,frogs/ab2.jpg,0,0,400,l,0,1,1,3,0,43,43,1,,,['l'],0,[1.0337982866185484],2018_Jul_09_1202,60.0203845404,go-nogo,001,13,
logos/4.jpg,properties4.xlsx,logos/4.jpg,0,0,400,a,0,1,1,3,0,44,44,85,,,['a'],0,[0.3341366051299701],2018_Jul_09_1202,60.0203845404,go-nogo,001,13,
logos/4.jpg,properties4.xlsx,frogs/ab33.jpg,0,0,400,l,0,1,1,3,0,45,45,32,,,['l'],0,[1.0005381693481468],2018_Jul_09_1202,60.0203845404,go-nogo,001,13,
logos/4.jpg,properties4.xlsx,frogs/ab77.jpg,0,0,400,l,0,1,1,3,0,46,46,75,,,['l'],0,[1.0338079577386452],2018_Jul_09_1202,60.0203845404,go-nogo,001,13,
logos/4.jpg,properties4.xlsx,frogs/ab5.jpg,0,0,400,l,0,1,1,3,0,47,47,4,,,['l'],0,[0.7172870120848529],2018_Jul_09_1202,60.0203845404,go-nogo,001,13,
logos/4.jpg,properties4.xlsx,frogs/ab54.jpg,0,0,400,l,0,1,1,3,0,48,48,53,,,['l'],0,[0.700429682144204],2018_Jul_09_1202,60.0203845404,go-nogo,001,13,
logos/4.jpg,properties4.xlsx,frogs/ab31.jpg,0,0,400,l,0,1,1,3,0,49,49,30,,,['l'],0,[0.5175385749662382],2018_Jul_09_1202,60.0203845404,go-nogo,001,13,
logos/4.jpg,properties4.xlsx,frogs/ab13.jpg,0,0,400,l,0,1,1,3,0,50,50,12,,,['l'],0,[0.4509278870136768],2018_Jul_09_1202,60.0203845404,go-nogo,001,13,
logos/4.jpg,properties4.xlsx,frogs/ab28.jpg,0,0,400,l,0,1,1,3,0,51,51,27,,,['l'],0,[0.8171617995340057],2018_Jul_09_1202,60.0203845404,go-nogo,001,13,
logos/4.jpg,properties4.xlsx,frogs/ab12.jpg,0,0,400,l,0,1,1,3,0,52,52,11,,,['l'],0,[0.7006993357081228],2018_Jul_09_1202,60.0203845404,go-nogo,001,13,
logos/4.jpg,properties4.xlsx,logos/4.jpg,0,0,400,a,0,1,1,3,0,53,53,80,,,['a'],0,[0.5175419883025825],2018_Jul_09_1202,60.0203845404,go-nogo,001,13,
logos/4.jpg,properties4.xlsx,frogs/ab20.jpg,0,0,400,l,0,1,1,3,0,54,54,19,,,['l'],0,[0.5008467918332826],2018_Jul_09_1202,60.0203845404,go-nogo,001,13,
logos/4.jpg,properties4.xlsx,frogs/ab25.jpg,0,0,400,l,0,1,1,3,0,55,55,24,,,['l'],0,[0.5840804273038884],2018_Jul_09_1202,60.0203845404,go-nogo,001,13,
logos/4.jpg,properties4.xlsx,frogs/ab48.jpg,0,0,400,l,0,1,1,3,0,56,56,47,,,['l'],0,[0.5007631650951225],2018_Jul_09_1202,60.0203845404,go-nogo,001,13,
logos/4.jpg,properties4.xlsx,frogs/ab70.jpg,0,0,400,l,0,1,1,3,0,57,57,68,,,['l'],0,[0.6675029340467518],2018_Jul_09_1202,60.0203845404,go-nogo,001,13,
logos/4.jpg,properties4.xlsx,frogs/ab17.jpg,0,0,400,l,0,1,1,3,0,58,58,16,,,['l'],0,[0.5339709445443077],2018_Jul_09_1202,60.0203845404,go-nogo,001,13,
logos/4.jpg,properties4.xlsx,frogs/ab10.jpg,0,0,400,l,0,1,1,3,0,59,59,9,,,['l'],0,[0.6174190513092981],2018_Jul_09_1202,60.0203845404,go-nogo,001,13,
logos/4.jpg,properties4.xlsx,frogs/ab23.jpg,0,0,400,l,0,1,1,3,0,60,60,22,,,['l'],0,[0.9005951151748377],2018_Jul_09_1202,60.0203845404,go-nogo,001,13,
logos/4.jpg,properties4.xlsx,frogs/ab66.jpg,0,0,400,l,0,1,1,3,0,61,61,64,,,['l'],0,[0.7007567935343104],2018_Jul_09_1202,60.0203845404,go-nogo,001,13,
logos/4.jpg,properties4.xlsx,logos/4.jpg,0,0,400,a,0,1,1,3,0,62,62,88,,,['a'],0,[0.6342763812490375],2018_Jul_09_1202,60.0203845404,go-nogo,001,13,
logos/4.jpg,properties4.xlsx,frogs/ab47.jpg,0,0,400,l,0,1,1,3,0,63,63,46,,,['l'],0,[5.51481643931038],2018_Jul_09_1202,60.0203845404,go-nogo,001,13,
logos/4.jpg,properties4.xlsx,frogs/ab58.jpg,0,0,400,l,0,1,1,3,0,64,64,57,,,['l'],0,[1.117133753287817],2018_Jul_09_1202,60.0203845404,go-nogo,001,13,
logos/4.jpg,properties4.xlsx,frogs/ab35.jpg,0,0,400,l,0,1,1,3,0,65,65,34,,,['l'],0,[0.36727611785408953],2018_Jul_09_1202,60.0203845404,go-nogo,001,13,
logos/4.jpg,properties4.xlsx,frogs/ab45.jpg,0,0,400,l,0,1,1,3,0,66,66,44,,,['l'],0,[0.5671718973208044],2018_Jul_09_1202,60.0203845404,go-nogo,001,13,
logos/4.jpg,properties4.xlsx,frogs/ab65.jpg,0,0,400,l,0,1,1,3,0,67,67,63,,,['l'],0,[0.6339452876327414],2018_Jul_09_1202,60.0203845404,go-nogo,001,13,
logos/4.jpg,properties4.xlsx,frogs/ab51.jpg,0,0,400,l,0,1,1,3,0,68,68,50,,,['l'],0,[0.6174452202203611],2018_Jul_09_1202,60.0203845404,go-nogo,001,13,
logos/4.jpg,properties4.xlsx,frogs/ab16.jpg,0,0,400,l,0,1,1,3,0,69,69,15,,,['l'],0,[0.5832970666351684],2018_Jul_09_1202,60.0203845404,go-nogo,001,13,
logos/4.jpg,properties4.xlsx,frogs/ab46.jpg,0,0,400,l,0,1,1,3,0,70,70,45,,,['l'],0,[0.5172296680357249],2018_Jul_09_1202,60.0203845404,go-nogo,001,13,
logos/4.jpg,properties4.xlsx,frogs/ab42.jpg,0,0,400,l,0,1,1,3,0,71,71,41,,,['l'],0,[0.5174868060330482],2018_Jul_09_1202,60.0203845404,go-nogo,001,13,
logos/4.jpg,properties4.xlsx,frogs/ab21.jpg,0,0,400,l,0,1,1,3,0,72,72,20,,,['l'],0,[0.6840416859377001],2018_Jul_09_1202,60.0203845404,go-nogo,001,13,
logos/4.jpg,properties4.xlsx,logos/4.jpg,0,0,400,a,0,1,1,3,0,73,73,82,,,['a'],0,[1.9498905172404193],2018_Jul_09_1202,60.0203845404,go-nogo,001,13,
logos/4.jpg,properties4.xlsx,frogs/ab27.jpg,0,0,400,l,0,1,1,3,0,74,74,26,,,['l'],0,[1.1004118190176087],2018_Jul_09_1202,60.0203845404,go-nogo,001,13,
logos/4.jpg,properties4.xlsx,logos/4.jpg,0,0,400,a,0,1,1,3,0,75,75,83,,,['a'],0,[1.003215931633349],2018_Jul_09_1202,60.0203845404,go-nogo,001,13,
logos/4.jpg,properties4.xlsx,frogs/ab49.jpg,0,0,400,l,0,1,1,3,0,76,76,48,,,['l'],0,[0.8175304398482695],2018_Jul_09_1202,60.0203845404,go-nogo,001,13,
logos/4.jpg,properties4.xlsx,logos/4.jpg,0,0,400,a,0,1,1,3,0,77,77,81,,,['a'],0,[0.5341256824540324],2018_Jul_09_1202,60.0203845404,go-nogo,001,13,
logos/4.jpg,properties4.xlsx,frogs/ab40.jpg,0,0,400,l,0,1,1,3,0,78,78,39,,,['l'],0,[1.683155925182291],2018_Jul_09_1202,60.0203845404,go-nogo,001,13,
logos/4.jpg,properties4.xlsx,frogs/ab34.jpg,0,0,400,l,0,1,1,3,0,79,79,33,,,['l'],0,[0.602260993930031],2018_Jul_09_1202,60.0203845404,go-nogo,001,13,
logos/4.jpg,properties4.xlsx,frogs/ab39.jpg,0,0,400,l,0,1,1,3,0,80,80,38,,,['l'],0,[0.5005913605045862],2018_Jul_09_1202,60.0203845404,go-nogo,001,13,
logos/4.jpg,properties4.xlsx,frogs/ab53.jpg,0,0,400,l,0,1,1,3,0,81,81,52,,,['l'],0,[0.5507361144063907],2018_Jul_09_1202,60.0203845404,go-nogo,001,13,
logos/4.jpg,properties4.xlsx,frogs/ab3.jpg,0,0,400,l,0,1,1,3,0,82,82,2,,,['l'],0,[0.5186803359401893],2018_Jul_09_1202,60.0203845404,go-nogo,001,13,
logos/4.jpg,properties4.xlsx,frogs/ab41.jpg,0,0,400,l,0,1,1,3,0,83,83,40,,,['l'],0,[0.46732839878677623],2018_Jul_09_1202,60.0203845404,go-nogo,001,13,
logos/4.jpg,properties4.xlsx,frogs/ab56.jpg,0,0,400,l,0,1,1,3,0,84,84,55,,,['l'],0,[0.5174885127016751],2018_Jul_09_1202,60.0203845404,go-nogo,001,13,
logos/4.jpg,properties4.xlsx,frogs/ab69.jpg,0,0,400,l,0,1,1,3,0,85,85,67,,,['l'],0,[0.3509120150001763],2018_Jul_09_1202,60.0203845404,go-nogo,001,13,
logos/4.jpg,properties4.xlsx,frogs/ab67.jpg,0,0,400,l,0,1,1,3,0,86,86,65,,,['l'],0,[0.40075525753400143],2018_Jul_09_1202,60.0203845404,go-nogo,001,13,
logos/4.jpg,properties4.xlsx,frogs/ab11.jpg,0,0,400,l,0,1,1,3,0,87,87,10,,,['l'],0,[0.4500466773733933],2018_Jul_09_1202,60.0203845404,go-nogo,001,13,
logos/4.jpg,properties4.xlsx,frogs/ab73.jpg,0,0,400,l,0,1,1,3,0,88,88,71,,,['l'],0,[0.6840581837295758],2018_Jul_09_1202,60.0203845404,go-nogo,001,13,
logos/4.jpg,properties4.xlsx,logos/4.jpg,0,0,400,a,0,1,1,3,0,89,89,89,,,['a'],0,[1.0006257783124965],2018_Jul_09_1202,60.0203845404,go-nogo,001,13,
logos/4.jpg,properties4.xlsx,,,,,,0,1,1,3,,,,,,,,,,2018_Jul_09_1202,60.0203845404,go-nogo,001,13,
logos/3.jpg,properties3.xlsx,logos/3.jpg,0,0,400,a,0,2,2,2,0,0,0,81,space,16.0312963112,['a'],0,[0.7673538281424044],2018_Jul_09_1202,60.0203845404,go-nogo,001,13,
logos/3.jpg,properties3.xlsx,frogs/ab5.jpg,0,0,400,l,0,2,2,2,0,1,1,4,,,['l'],0,[0.9003726794298927],2018_Jul_09_1202,60.0203845404,go-nogo,001,13,
logos/3.jpg,properties3.xlsx,frogs/ab24.jpg,0,0,400,l,0,2,2,2,0,2,2,23,,,['l'],0,[0.4842318087667081],2018_Jul_09_1202,60.0203845404,go-nogo,001,13,
logos/3.jpg,properties3.xlsx,frogs/ab18.jpg,0,0,400,l,0,2,2,2,0,3,3,17,,,['l'],0,[0.7507132450527934],2018_Jul_09_1202,60.0203845404,go-nogo,001,13,
logos/3.jpg,properties3.xlsx,logos/3.jpg,0,0,400,a,0,2,2,2,0,4,4,87,,,['a'],0,[0.5339675312079635],2018_Jul_09_1202,60.0203845404,go-nogo,001,13,
logos/3.jpg,properties3.xlsx,frogs/ab4.jpg,0,0,400,l,0,2,2,2,0,5,5,3,,,['l'],0,[0.5166897920198608],2018_Jul_09_1202,60.0203845404,go-nogo,001,13,
logos/3.jpg,properties3.xlsx,frogs/ab47.jpg,0,0,400,l,0,2,2,2,0,6,6,46,,,['l'],0,[0.5008018495736906],2018_Jul_09_1202,60.0203845404,go-nogo,001,13,
logos/3.jpg,properties3.xlsx,frogs/ab2.jpg,0,0,400,l,0,2,2,2,0,7,7,1,,,['l'],0,[0.5006823828043707],2018_Jul_09_1202,60.0203845404,go-nogo,001,13,
logos/3.jpg,properties3.xlsx,frogs/ab62.jpg,0,0,400,l,0,2,2,2,0,8,8,60,,,['l'],0,[0.5339646867605552],2018_Jul_09_1202,60.0203845404,go-nogo,001,13,
logos/3.jpg,properties3.xlsx,frogs/ab54.jpg,0,0,400,l,0,2,2,2,0,9,9,53,,,['l'],0,[0.8844972525484991],2018_Jul_09_1202,60.0203845404,go-nogo,001,13,
logos/3.jpg,properties3.xlsx,frogs/ab79.jpg,0,0,400,l,0,2,2,2,0,10,10,77,,,['l'],0,[0.5504283452537493],2018_Jul_09_1202,60.0203845404,go-nogo,001,13,
logos/3.jpg,properties3.xlsx,frogs/ab42.jpg,0,0,400,l,0,2,2,2,0,11,11,41,,,['l'],0,[0.533889024473865],2018_Jul_09_1202,60.0203845404,go-nogo,001,13,
logos/3.jpg,properties3.xlsx,frogs/ab70.jpg,0,0,400,l,0,2,2,2,0,12,12,68,,,['l'],0,[1.9832308479117273],2018_Jul_09_1202,60.0203845404,go-nogo,001,13,
logos/3.jpg,properties3.xlsx,frogs/ab41.jpg,0,0,400,l,0,2,2,2,0,13,13,40,,,['l'],0,[0.333427200080223],2018_Jul_09_1202,60.0203845404,go-nogo,001,13,
logos/3.jpg,properties3.xlsx,logos/3.jpg,0,0,400,a,0,2,2,2,0,14,14,83,,,['a'],0,[0.450605326738696],2018_Jul_09_1202,60.0203845404,go-nogo,001,13,
logos/3.jpg,properties3.xlsx,frogs/ab12.jpg,0,0,400,l,0,2,2,2,0,15,15,11,,,['l'],0,[0.4008832576428176],2018_Jul_09_1202,60.0203845404,go-nogo,001,13,
logos/3.jpg,properties3.xlsx,frogs/ab71.jpg,0,0,400,l,0,2,2,2,0,16,16,69,,,['l'],0,[0.4008838265317536],2018_Jul_09_1202,60.0203845404,go-nogo,001,13,
logos/3.jpg,properties3.xlsx,frogs/ab19.jpg,0,0,400,l,0,2,2,2,0,17,17,18,,,['l'],0,[0.7839534511958846],2018_Jul_09_1202,60.0203845404,go-nogo,001,13,
logos/3.jpg,properties3.xlsx,frogs/ab16.jpg,0,0,400,l,0,2,2,2,0,18,18,15,,,['l'],0,[0.717397376623012],2018_Jul_09_1202,60.0203845404,go-nogo,001,13,
logos/3.jpg,properties3.xlsx,frogs/ab53.jpg,0,0,400,l,0,2,2,2,0,19,19,52,,,['l'],0,[0.450794766900799],2018_Jul_09_1202,60.0203845404,go-nogo,001,13,
logos/3.jpg,properties3.xlsx,frogs/ab68.jpg,0,0,400,l,0,2,2,2,0,20,20,66,,,['l'],0,[0.5008172095858754],2018_Jul_09_1202,60.0203845404,go-nogo,001,13,
logos/3.jpg,properties3.xlsx,frogs/ab37.jpg,0,0,400,l,0,2,2,2,0,21,21,36,,,['l'],0,[0.5841663296005208],2018_Jul_09_1202,60.0203845404,go-nogo,001,13,
logos/3.jpg,properties3.xlsx,frogs/ab35.jpg,0,0,400,l,0,2,2,2,0,22,22,34,,,['l'],0,[0.48389218181000615],2018_Jul_09_1202,60.0203845404,go-nogo,001,13,
logos/3.jpg,properties3.xlsx,frogs/ab63.jpg,0,0,400,l,0,2,2,2,0,23,23,61,,,['l'],0,[0.6674471828882815],2018_Jul_09_1202,60.0203845404,go-nogo,001,13,
logos/3.jpg,properties3.xlsx,frogs/ab36.jpg,0,0,400,l,0,2,2,2,0,24,24,35,,,['l'],0,[0.9671648430912683],2018_Jul_09_1202,60.0203845404,go-nogo,001,13,
logos/3.jpg,properties3.xlsx,frogs/ab29.jpg,0,0,400,l,0,2,2,2,0,25,25,28,,,['l'],0,[0.40083717760353466],2018_Jul_09_1202,60.0203845404,go-nogo,001,13,
logos/3.jpg,properties3.xlsx,frogs/ab38.jpg,0,0,400,l,0,2,2,2,0,26,26,37,,,['l'],0,[0.6840877659769831],2018_Jul_09_1202,60.0203845404,go-nogo,001,13,
logos/3.jpg,properties3.xlsx,frogs/ab49.jpg,0,0,400,l,0,2,2,2,0,27,27,48,,,['l'],0,[0.4507060201585773],2018_Jul_09_1202,60.0203845404,go-nogo,001,13,
logos/3.jpg,properties3.xlsx,frogs/ab25.jpg,0,0,400,l,0,2,2,2,0,28,28,24,,,['l'],0,[0.6820573998002146],2018_Jul_09_1202,60.0203845404,go-nogo,001,13,
logos/3.jpg,properties3.xlsx,frogs/ab11.jpg,0,0,400,l,0,2,2,2,0,29,29,10,,,['l'],0,[0.6339919365618698],2018_Jul_09_1202,60.0203845404,go-nogo,001,13,
logos/3.jpg,properties3.xlsx,frogs/ab10.jpg,0,0,400,l,0,2,2,2,0,30,30,9,,,['l'],0,[0.5673812486102179],2018_Jul_09_1202,60.0203845404,go-nogo,001,13,
logos/3.jpg,properties3.xlsx,frogs/ab28.jpg,0,0,400,l,0,2,2,2,0,31,31,27,,,['l'],0,[0.3508966549879915],2018_Jul_09_1202,60.0203845404,go-nogo,001,13,
logos/3.jpg,properties3.xlsx,frogs/ab32.jpg,0,0,400,l,0,2,2,2,0,32,32,31,,,['l'],0,[0.40085139983784757],2018_Jul_09_1202,60.0203845404,go-nogo,001,13,
logos/3.jpg,properties3.xlsx,frogs/ab34.jpg,0,0,400,l,0,2,2,2,0,33,33,33,,,['l'],0,[0.48407877752470085],2018_Jul_09_1202,60.0203845404,go-nogo,001,13,
logos/3.jpg,properties3.xlsx,frogs/ab21.jpg,0,0,400,l,0,2,2,2,0,34,34,20,,,['l'],0,[0.6007272681763425],2018_Jul_09_1202,60.0203845404,go-nogo,001,13,
logos/3.jpg,properties3.xlsx,frogs/ab6.jpg,0,0,400,l,0,2,2,2,0,35,35,5,,,['l'],0,[0.5507526121982664],2018_Jul_09_1202,60.0203845404,go-nogo,001,13,
logos/3.jpg,properties3.xlsx,frogs/ab77.jpg,0,0,400,l,0,2,2,2,0,36,36,75,,,['l'],0,[0.3341565162572806],2018_Jul_09_1202,60.0203845404,go-nogo,001,13,
logos/3.jpg,properties3.xlsx,frogs/ab75.jpg,0,0,400,l,0,2,2,2,0,37,37,73,,,['l'],0,[0.3675321180717219],2018_Jul_09_1202,60.0203845404,go-nogo,001,13,
logos/3.jpg,properties3.xlsx,frogs/ab40.jpg,0,0,400,l,0,2,2,2,0,38,38,39,,,['l'],0,[0.33421454297422315],2018_Jul_09_1202,60.0203845404,go-nogo,001,13,
logos/3.jpg,properties3.xlsx,frogs/ab72.jpg,0,0,400,l,0,2,2,2,0,39,39,70,,,['l'],0,[0.8007015543762463],2018_Jul_09_1202,60.0203845404,go-nogo,001,13,
logos/3.jpg,properties3.xlsx,frogs/ab61.jpg,0,0,400,l,0,2,2,2,0,40,40,59,,,['l'],0,[0.40084912428028474],2018_Jul_09_1202,60.0203845404,go-nogo,001,13,
logos/3.jpg,properties3.xlsx,frogs/ab23.jpg,0,0,400,l,0,2,2,2,0,41,41,22,,,['l'],0,[0.3174465286647319],2018_Jul_09_1202,60.0203845404,go-nogo,001,13,
logos/3.jpg,properties3.xlsx,logos/3.jpg,0,0,400,a,0,2,2,2,0,42,42,80,,,['a'],0,[0.4508613269572379],2018_Jul_09_1202,60.0203845404,go-nogo,001,13,
logos/3.jpg,properties3.xlsx,frogs/ab69.jpg,0,0,400,l,0,2,2,2,0,43,43,67,,,['l'],0,[0.3174698531302056],2018_Jul_09_1202,60.0203845404,go-nogo,001,13,
logos/3.jpg,properties3.xlsx,frogs/ab1.jpg,0,0,400,l,0,2,2,2,0,44,44,0,,,['l'],0,[0.3841800967220479],2018_Jul_09_1202,60.0203845404,go-nogo,001,13,
logos/3.jpg,properties3.xlsx,frogs/ab60.jpg,0,0,400,l,0,2,2,2,0,45,45,58,,,['l'],0,[0.40082579981572053],2018_Jul_09_1202,60.0203845404,go-nogo,001,13,
logos/3.jpg,properties3.xlsx,frogs/ab52.jpg,0,0,400,l,0,2,2,2,0,46,46,51,,,['l'],0,[0.8506233036432604],2018_Jul_09_1202,60.0203845404,go-nogo,001,13,
logos/3.jpg,properties3.xlsx,frogs/ab9.jpg,0,0,400,l,0,2,2,2,0,47,47,8,,,['l'],0,[1.0005467026885526],2018_Jul_09_1202,60.0203845404,go-nogo,001,13,
logos/3.jpg,properties3.xlsx,frogs/ab30.jpg,0,0,400,l,0,2,2,2,0,48,48,29,,,['l'],0,[0.5340744824106878],2018_Jul_09_1202,60.0203845404,go-nogo,001,13,
logos/3.jpg,properties3.xlsx,logos/3.jpg,0,0,400,a,0,2,2,2,0,49,49,84,,,['a'],0,[0.5008041251303439],2018_Jul_09_1202,60.0203845404,go-nogo,001,13,
logos/3.jpg,properties3.xlsx,frogs/ab45.jpg,0,0,400,l,0,2,2,2,0,50,50,44,,,['l'],0,[0.23421858208803314],2018_Jul_09_1202,60.0203845404,go-nogo,001,13,
logos/3.jpg,properties3.xlsx,frogs/ab46.jpg,0,0,400,l,0,2,2,2,0,51,51,45,,,['l'],0,[0.2675594816510056],2018_Jul_09_1202,60.0203845404,go-nogo,001,13,
logos/3.jpg,properties3.xlsx,frogs/ab14.jpg,0,0,400,l,0,2,2,2,0,52,52,13,,,['l'],0,[0.33411555622296873],2018_Jul_09_1202,60.0203845404,go-nogo,001,13,
logos/3.jpg,properties3.xlsx,frogs/ab27.jpg,0,0,400,l,0,2,2,2,0,53,53,26,,,['l'],0,[0.33423957410650473],2018_Jul_09_1202,60.0203845404,go-nogo,001,13,
logos/3.jpg,properties3.xlsx,frogs/ab20.jpg,0,0,400,l,0,2,2,2,0,54,54,19,,,['l'],0,[0.3841032966565763],2018_Jul_09_1202,60.0203845404,go-nogo,001,13,
logos/3.jpg,properties3.xlsx,logos/3.jpg,0,0,400,a,0,2,2,2,0,55,55,88,,,['a'],0,[0.5008058317989708],2018_Jul_09_1202,60.0203845404,go-nogo,001,13,
logos/3.jpg,properties3.xlsx,frogs/ab39.jpg,0,0,400,l,0,2,2,2,0,56,56,38,,,['l'],0,[0.5008962852098193],2018_Jul_09_1202,60.0203845404,go-nogo,001,13,
logos/3.jpg,properties3.xlsx,logos/3.jpg,0,0,400,a,0,2,2,2,0,57,57,89,,,['a'],0,[0.6006305569826509],2018_Jul_09_1202,60.0203845404,go-nogo,001,13,
logos/3.jpg,properties3.xlsx,frogs/ab48.jpg,0,0,400,l,0,2,2,2,0,58,58,47,,,['l'],0,[0.6507280930654815],2018_Jul_09_1202,60.0203845404,go-nogo,001,13,
logos/3.jpg,properties3.xlsx,frogs/ab66.jpg,0,0,400,l,0,2,2,2,0,59,59,64,,,['l'],0,[0.3175921643451147],2018_Jul_09_1202,60.0203845404,go-nogo,001,13,
logos/3.jpg,properties3.xlsx,frogs/ab50.jpg,0,0,400,l,0,2,2,2,0,60,60,49,,,['l'],0,[0.6674067917429056],2018_Jul_09_1202,60.0203845404,go-nogo,001,13,
logos/3.jpg,properties3.xlsx,frogs/ab56.jpg,0,0,400,l,0,2,2,2,0,61,61,55,,,['l'],0,[1.018455340192304],2018_Jul_09_1202,60.0203845404,go-nogo,001,13,
logos/3.jpg,properties3.xlsx,frogs/ab74.jpg,0,0,400,l,0,2,2,2,0,62,62,72,,,['l'],0,[1.433684281188107],2018_Jul_09_1202,60.0203845404,go-nogo,001,13,
logos/3.jpg,properties3.xlsx,frogs/ab67.jpg,0,0,400,l,0,2,2,2,0,63,63,65,,,['l'],0,[0.8998333723020551],2018_Jul_09_1202,60.0203845404,go-nogo,001,13,
logos/3.jpg,properties3.xlsx,frogs/ab51.jpg,0,0,400,l,0,2,2,2,0,64,64,50,,,['l'],0,[0.5506627276763538],2018_Jul_09_1202,60.0203845404,go-nogo,001,13,
logos/3.jpg,properties3.xlsx,frogs/ab76.jpg,0,0,400,l,0,2,2,2,0,65,65,74,,,['l'],0,[0.7006014867356498],2018_Jul_09_1202,60.0203845404,go-nogo,001,13,
logos/3.jpg,properties3.xlsx,frogs/ab13.jpg,0,0,400,l,0,2,2,2,0,66,66,12,,,['l'],0,[0.6172853623056653],2018_Jul_09_1202,60.0203845404,go-nogo,001,13,
logos/3.jpg,properties3.xlsx,frogs/ab57.jpg,0,0,400,l,0,2,2,2,0,67,67,56,,,['l'],0,[0.5008166406969394],2018_Jul_09_1202,60.0203845404,go-nogo,001,13,
logos/3.jpg,properties3.xlsx,frogs/ab44.jpg,0,0,400,l,0,2,2,2,0,68,68,43,,,['l'],0,[0.4840719508529219],2018_Jul_09_1202,60.0203845404,go-nogo,001,13,
logos/3.jpg,properties3.xlsx,logos/3.jpg,0,0,400,a,0,2,2,2,0,69,69,85,,,['a'],0,[0.41668472890432895],2018_Jul_09_1202,60.0203845404,go-nogo,001,13,
logos/3.jpg,properties3.xlsx,frogs/ab78.jpg,0,0,400,l,0,2,2,2,0,70,70,76,,,['l'],0,[0.36765841151373024],2018_Jul_09_1202,60.0203845404,go-nogo,001,13,
logos/3.jpg,properties3.xlsx,frogs/ab73.jpg,0,0,400,l,0,2,2,2,0,71,71,71,,,['l'],0,[0.3001972339461645],2018_Jul_09_1202,60.0203845404,go-nogo,001,13,
logos/3.jpg,properties3.xlsx,frogs/ab55.jpg,0,0,400,l,0,2,2,2,0,72,72,54,,,['l'],0,[0.500829156263535],2018_Jul_09_1202,60.0203845404,go-nogo,001,13,
logos/3.jpg,properties3.xlsx,frogs/ab64.jpg,0,0,400,l,0,2,2,2,0,73,73,62,,,['l'],0,[0.6673715206015913],2018_Jul_09_1202,60.0203845404,go-nogo,001,13,
logos/3.jpg,properties3.xlsx,frogs/ab26.jpg,0,0,400,l,0,2,2,2,0,74,74,25,,,['l'],0,[0.4841641109305783],2018_Jul_09_1202,60.0203845404,go-nogo,001,13,
logos/3.jpg,properties3.xlsx,frogs/ab65.jpg,0,0,400,l,0,2,2,2,0,75,75,63,,,['l'],0,[1.0004551114989226],2018_Jul_09_1202,60.0203845404,go-nogo,001,13,
logos/3.jpg,properties3.xlsx,frogs/ab80.jpg,0,0,400,l,0,2,2,2,0,76,76,78,,,['l'],0,[0.8670044731770759],2018_Jul_09_1202,60.0203845404,go-nogo,001,13,
logos/3.jpg,properties3.xlsx,frogs/ab8.jpg,0,0,400,l,0,2,2,2,0,77,77,7,,,['l'],0,[0.8331902576555876],2018_Jul_09_1202,60.0203845404,go-nogo,001,13,
logos/3.jpg,properties3.xlsx,frogs/ab43.jpg,0,0,400,l,0,2,2,2,0,78,78,42,,,['l'],0,[0.4001004658639431],2018_Jul_09_1202,60.0203845404,go-nogo,001,13,
logos/3.jpg,properties3.xlsx,logos/3.jpg,0,0,400,a,0,2,2,2,0,79,79,86,,,['a'],0,[0.4167234133819875],2018_Jul_09_1202,60.0203845404,go-nogo,001,13,
logos/3.jpg,properties3.xlsx,frogs/ab31.jpg,0,0,400,l,0,2,2,2,0,80,80,30,,,['l'],0,[0.2501668268087087],2018_Jul_09_1202,60.0203845404,go-nogo,001,13,
logos/3.jpg,properties3.xlsx,frogs/ab22.jpg,0,0,400,l,0,2,2,2,0,81,81,21,,,['l'],0,[0.18399532145394915],2018_Jul_09_1202,60.0203845404,go-nogo,001,13,
logos/3.jpg,properties3.xlsx,frogs/ab7.jpg,0,0,400,l,0,2,2,2,0,82,82,6,,,['l'],0,[0.21770770577768417],2018_Jul_09_1202,60.0203845404,go-nogo,001,13,
logos/3.jpg,properties3.xlsx,logos/3.jpg,0,0,400,a,0,2,2,2,0,83,83,82,,,['a'],0,[0.3175779421108018],2018_Jul_09_1202,60.0203845404,go-nogo,001,13,
logos/3.jpg,properties3.xlsx,frogs/ab33.jpg,0,0,400,l,0,2,2,2,0,84,84,32,,,['l'],0,[0.38414255002408026],2018_Jul_09_1202,60.0203845404,go-nogo,001,13,
logos/3.jpg,properties3.xlsx,frogs/ab3.jpg,0,0,400,l,0,2,2,2,0,85,85,2,,,['l'],0,[0.21776573249280773],2018_Jul_09_1202,60.0203845404,go-nogo,001,13,
logos/3.jpg,properties3.xlsx,frogs/ab58.jpg,0,0,400,l,0,2,2,2,0,86,86,57,,,['l'],0,[0.10088911720322358],2018_Jul_09_1202,60.0203845404,go-nogo,001,13,
logos/3.jpg,properties3.xlsx,frogs/ab17.jpg,0,0,400,l,0,2,2,2,0,87,87,16,,,['l'],0,[0.31755291097852023],2018_Jul_09_1202,60.0203845404,go-nogo,001,13,
logos/3.jpg,properties3.xlsx,frogs/ab15.jpg,0,0,400,l,0,2,2,2,0,88,88,14,,,['l'],0,[0.3173879330597629],2018_Jul_09_1202,60.0203845404,go-nogo,001,13,
logos/3.jpg,properties3.xlsx,frogs/ab81.jpg,0,0,400,l,0,2,2,2,0,89,89,79,,,['l'],0,[0.434127446011189],2018_Jul_09_1202,60.0203845404,go-nogo,001,13,
logos/3.jpg,properties3.xlsx,,,,,,0,2,2,2,,,,,,,,,,2018_Jul_09_1202,60.0203845404,go-nogo,001,13,
logos/1.jpg,properties1.xlsx,frogs/ab52.jpg,0,0,400,l,0,3,3,0,0,0,0,51,space,4.60501896962,['l'],0,[0.8174177997516381],2018_Jul_09_1202,60.0203845404,go-nogo,001,13,
logos/1.jpg,properties1.xlsx,frogs/ab53.jpg,0,0,400,l,0,3,3,0,0,1,1,52,,,['l'],0,[0.25016910236718104],2018_Jul_09_1202,60.0203845404,go-nogo,001,13,
logos/1.jpg,properties1.xlsx,frogs/ab18.jpg,0,0,400,l,0,3,3,0,0,2,2,17,,,['l'],0,[0.9507114246071069],2018_Jul_09_1202,60.0203845404,go-nogo,001,13,
logos/1.jpg,properties1.xlsx,frogs/ab79.jpg,0,0,400,l,0,3,3,0,0,3,3,77,,,['l'],0,[0.417526116289082],2018_Jul_09_1202,60.0203845404,go-nogo,001,13,
logos/1.jpg,properties1.xlsx,frogs/ab19.jpg,0,0,400,l,0,3,3,0,0,4,4,18,,,['l'],0,[45.67551744755292],2018_Jul_09_1202,60.0203845404,go-nogo,001,13,
logos/1.jpg,properties1.xlsx,frogs/ab4.jpg,0,0,400,l,0,3,3,0,0,5,5,3,,,['l'],0,[0.3173691597103243],2018_Jul_09_1202,60.0203845404,go-nogo,001,13,
logos/1.jpg,properties1.xlsx,frogs/ab41.jpg,0,0,400,l,0,3,3,0,0,6,6,40,,,['l'],0,[0.3841704256037701],2018_Jul_09_1202,60.0203845404,go-nogo,001,13,
logos/1.jpg,properties1.xlsx,frogs/ab31.jpg,0,0,400,l,0,3,3,0,0,7,7,30,,,['l'],0,[0.3841874922845818],2018_Jul_09_1202,60.0203845404,go-nogo,001,13,
logos/1.jpg,properties1.xlsx,frogs/ab33.jpg,0,0,400,l,0,3,3,0,0,8,8,32,,,['l'],0,[0.48405545306013664],2018_Jul_09_1202,60.0203845404,go-nogo,001,13,
logos/1.jpg,properties1.xlsx,frogs/ab74.jpg,0,0,400,l,0,3,3,0,0,9,9,72,,,['l'],0,[0.3840008965698871],2018_Jul_09_1202,60.0203845404,go-nogo,001,13,
logos/1.jpg,properties1.xlsx,frogs/ab81.jpg,0,0,400,l,0,3,3,0,0,10,10,79,,,['l'],0,[0.4009020309922562],2018_Jul_09_1202,60.0203845404,go-nogo,001,13,
logos/1.jpg,properties1.xlsx,frogs/ab5.jpg,0,0,400,l,0,3,3,0,0,11,11,4,,,['l'],0,[0.45073389573735767],2018_Jul_09_1202,60.0203845404,go-nogo,001,13,
logos/1.jpg,properties1.xlsx,frogs/ab48.jpg,0,0,400,l,0,3,3,0,0,12,12,47,,,['l'],0,[0.5508333944890182],2018_Jul_09_1202,60.0203845404,go-nogo,001,13,
logos/1.jpg,properties1.xlsx,logos/1.jpg,0,0,400,a,0,3,3,0,0,13,13,85,,,['a'],0,[0.5340357979330292],2018_Jul_09_1202,60.0203845404,go-nogo,001,13,
logos/1.jpg,properties1.xlsx,frogs/ab78.jpg,0,0,400,l,0,3,3,0,0,14,14,76,,,['l'],0,[0.35095069947783486],2018_Jul_09_1202,60.0203845404,go-nogo,001,13,
logos/1.jpg,properties1.xlsx,frogs/ab7.jpg,0,0,400,l,0,3,3,0,0,15,15,6,,,['l'],0,[0.33533184170573804],2018_Jul_09_1202,60.0203845404,go-nogo,001,13,
logos/1.jpg,properties1.xlsx,frogs/ab13.jpg,0,0,400,l,0,3,3,0,0,16,16,12,,,['l'],0,[0.5672606440630261],2018_Jul_09_1202,60.0203845404,go-nogo,001,13,
logos/1.jpg,properties1.xlsx,frogs/ab32.jpg,0,0,400,l,0,3,3,0,0,17,17,31,,,['l'],0,[0.5173662014858564],2018_Jul_09_1202,60.0203845404,go-nogo,001,13,
logos/1.jpg,properties1.xlsx,frogs/ab54.jpg,0,0,400,l,0,3,3,0,0,18,18,53,,,['l'],0,[1.0337197798853595],2018_Jul_09_1202,60.0203845404,go-nogo,001,13,
logos/1.jpg,properties1.xlsx,frogs/ab57.jpg,0,0,400,l,0,3,3,0,0,19,19,56,,,['l'],0,[0.4175443207495846],2018_Jul_09_1202,60.0203845404,go-nogo,001,13,
logos/1.jpg,properties1.xlsx,frogs/ab27.jpg,0,0,400,l,0,3,3,0,0,20,20,26,,,['l'],0,[0.3678706072496425],2018_Jul_09_1202,60.0203845404,go-nogo,001,13,
logos/1.jpg,properties1.xlsx,frogs/ab20.jpg,0,0,400,l,0,3,3,0,0,21,21,19,,,['l'],0,[0.500821760701001],2018_Jul_09_1202,60.0203845404,go-nogo,001,13,
logos/1.jpg,properties1.xlsx,frogs/ab55.jpg,0,0,400,l,0,3,3,0,0,22,22,54,,,['l'],0,[0.45073674018476595],2018_Jul_09_1202,60.0203845404,go-nogo,001,13,
logos/1.jpg,properties1.xlsx,frogs/ab56.jpg,0,0,400,l,0,3,3,0,0,23,23,55,,,['l'],0,[0.6173894690618908],2018_Jul_09_1202,60.0203845404,go-nogo,001,13,
logos/1.jpg,properties1.xlsx,logos/1.jpg,0,0,400,a,0,3,3,0,0,24,24,88,,,['a'],0,[0.4172058315707545],2018_Jul_09_1202,60.0203845404,go-nogo,001,13,
logos/1.jpg,properties1.xlsx,logos/1.jpg,0,0,400,a,0,3,3,0,0,25,25,89,,,['a'],0,[0.651439773673701],2018_Jul_09_1202,60.0203845404,go-nogo,001,13,
logos/1.jpg,properties1.xlsx,frogs/ab25.jpg,0,0,400,l,0,3,3,0,0,26,26,24,,,['l'],0,[0.38411922555951605],2018_Jul_09_1202,60.0203845404,go-nogo,001,13,
logos/1.jpg,properties1.xlsx,frogs/ab70.jpg,0,0,400,l,0,3,3,0,0,27,27,68,,,['l'],0,[0.334275414136755],2018_Jul_09_1202,60.0203845404,go-nogo,001,13,
logos/1.jpg,properties1.xlsx,frogs/ab21.jpg,0,0,400,l,0,3,3,0,0,28,28,20,,,['l'],0,[0.30093906569072715],2018_Jul_09_1202,60.0203845404,go-nogo,001,13,
logos/1.jpg,properties1.xlsx,frogs/ab63.jpg,0,0,400,l,0,3,3,0,0,29,29,61,,,['l'],0,[0.38441959914871404],2018_Jul_09_1202,60.0203845404,go-nogo,001,13,
logos/1.jpg,properties1.xlsx,frogs/ab47.jpg,0,0,400,l,0,3,3,0,0,30,30,46,,,['l'],0,[0.184545437478846],2018_Jul_09_1202,60.0203845404,go-nogo,001,13,
logos/1.jpg,properties1.xlsx,logos/1.jpg,0,0,400,a,0,3,3,0,0,31,31,80,,,['a'],0,[0.5673021729871834],2018_Jul_09_1202,60.0203845404,go-nogo,001,13,
logos/1.jpg,properties1.xlsx,frogs/ab22.jpg,0,0,400,l,0,3,3,0,0,32,32,21,,,['l'],0,[0.434179783833315],2018_Jul_09_1202,60.0203845404,go-nogo,001,13,
logos/1.jpg,properties1.xlsx,frogs/ab58.jpg,0,0,400,l,0,3,3,0,0,33,33,57,,,['l'],0,[0.40058288405271014],2018_Jul_09_1202,60.0203845404,go-nogo,001,13,
logos/1.jpg,properties1.xlsx,frogs/ab1.jpg,0,0,400,l,0,3,3,0,0,34,34,0,,,['l'],0,[0.6007562815339043],2018_Jul_09_1202,60.0203845404,go-nogo,001,13,
logos/1.jpg,properties1.xlsx,logos/1.jpg,0,0,400,a,0,3,3,0,0,35,35,86,,,['a'],0,[0.36747466024462483],2018_Jul_09_1202,60.0203845404,go-nogo,001,13,
logos/1.jpg,properties1.xlsx,frogs/ab76.jpg,0,0,400,l,0,3,3,0,0,36,36,74,,,['l'],0,[0.33420828519047063],2018_Jul_09_1202,60.0203845404,go-nogo,001,13,
logos/1.jpg,properties1.xlsx,frogs/ab62.jpg,0,0,400,l,0,3,3,0,0,37,37,60,,,['l'],0,[0.2508733874119571],2018_Jul_09_1202,60.0203845404,go-nogo,001,13,
logos/1.jpg,properties1.xlsx,frogs/ab72.jpg,0,0,400,l,0,3,3,0,0,38,38,70,,,['l'],0,[0.25103552088330616],2018_Jul_09_1202,60.0203845404,go-nogo,001,13,
logos/1.jpg,properties1.xlsx,logos/1.jpg,0,0,400,a,0,3,3,0,0,39,39,81,,,['a'],0,[0.36678232187659887],2018_Jul_09_1202,60.0203845404,go-nogo,001,13,
logos/1.jpg,properties1.xlsx,frogs/ab75.jpg,0,0,400,l,0,3,3,0,0,40,40,73,,,['l'],0,[0.2670679612310778],2018_Jul_09_1202,60.0203845404,go-nogo,001,13,
logos/1.jpg,properties1.xlsx,frogs/ab68.jpg,0,0,400,l,0,3,3,0,0,41,41,66,,,['l'],0,[0.2674883704785316],2018_Jul_09_1202,60.0203845404,go-nogo,001,13,
logos/1.jpg,properties1.xlsx,frogs/ab77.jpg,0,0,400,l,0,3,3,0,0,42,42,75,,,['l'],0,[0.30015172279672697],2018_Jul_09_1202,60.0203845404,go-nogo,001,13,
logos/1.jpg,properties1.xlsx,logos/1.jpg,0,0,400,a,0,3,3,0,0,43,43,84,,,['a'],0,[0.3341718762712844],2018_Jul_09_1202,60.0203845404,go-nogo,001,13,
logos/1.jpg,properties1.xlsx,frogs/ab17.jpg,0,0,400,l,0,3,3,0,0,44,44,16,,,['l'],0,[0.31750171093517565],2018_Jul_09_1202,60.0203845404,go-nogo,001,13,
logos/1.jpg,properties1.xlsx,frogs/ab29.jpg,0,0,400,l,0,3,3,0,0,45,45,28,,,['l'],0,[1.1503324305058413],2018_Jul_09_1202,60.0203845404,go-nogo,001,13,
logos/1.jpg,properties1.xlsx,frogs/ab80.jpg,0,0,400,l,0,3,3,0,0,46,46,78,,,['l'],0,[0.5008194851443477],2018_Jul_09_1202,60.0203845404,go-nogo,001,13,
logos/1.jpg,properties1.xlsx,frogs/ab30.jpg,0,0,400,l,0,3,3,0,0,47,47,29,,,['l'],0,[0.4839695507653232],2018_Jul_09_1202,60.0203845404,go-nogo,001,13,
logos/1.jpg,properties1.xlsx,frogs/ab60.jpg,0,0,400,l,0,3,3,0,0,48,48,58,,,['l'],0,[0.46749394559537905],2018_Jul_09_1202,60.0203845404,go-nogo,001,13,
logos/1.jpg,properties1.xlsx,frogs/ab26.jpg,0,0,400,l,0,3,3,0,0,49,49,25,,,['l'],0,[0.43415987270509504],2018_Jul_09_1202,60.0203845404,go-nogo,001,13,
logos/1.jpg,properties1.xlsx,logos/1.jpg,0,0,400,a,0,3,3,0,0,50,50,83,,,['a'],0,[0.3676214337037891],2018_Jul_09_1202,60.0203845404,go-nogo,001,13,
logos/1.jpg,properties1.xlsx,logos/1.jpg,0,0,400,a,0,3,3,0,0,51,51,87,,,['a'],0,[0.6525764146426809],2018_Jul_09_1202,60.0203845404,go-nogo,001,13,
logos/1.jpg,properties1.xlsx,logos/1.jpg,0,0,400,a,0,3,3,0,0,52,52,82,,,['a'],0,[0.30090265676972194],2018_Jul_09_1202,60.0203845404,go-nogo,001,13,
logos/1.jpg,properties1.xlsx,frogs/ab14.jpg,0,0,400,l,0,3,3,0,0,53,53,13,,,['l'],0,[0.61749186914858],2018_Jul_09_1202,60.0203845404,go-nogo,001,13,
logos/1.jpg,properties1.xlsx,frogs/ab12.jpg,0,0,400,l,0,3,3,0,0,54,54,11,,,['l'],0,[0.6673948450661555],2018_Jul_09_1202,60.0203845404,go-nogo,001,13,
logos/1.jpg,properties1.xlsx,frogs/ab71.jpg,0,0,400,l,0,3,3,0,0,55,55,69,,,['l'],0,[1.0505077053221612],2018_Jul_09_1202,60.0203845404,go-nogo,001,13,
logos/1.jpg,properties1.xlsx,frogs/ab42.jpg,0,0,400,l,0,3,3,0,0,56,56,41,,,['l'],0,[0.21756946565892576],2018_Jul_09_1202,60.0203845404,go-nogo,001,13,
logos/1.jpg,properties1.xlsx,frogs/ab8.jpg,0,0,400,l,0,3,3,0,0,57,57,7,,,['l'],0,[0.35004844093055],2018_Jul_09_1202,60.0203845404,go-nogo,001,13,
logos/1.jpg,properties1.xlsx,frogs/ab10.jpg,0,0,400,l,0,3,3,0,0,58,58,9,,,['l'],0,[0.7173023720988567],2018_Jul_09_1202,60.0203845404,go-nogo,001,13,
logos/1.jpg,properties1.xlsx,frogs/ab45.jpg,0,0,400,l,0,3,3,0,0,59,59,44,,,['l'],0,[0.3841704256037701],2018_Jul_09_1202,60.0203845404,go-nogo,001,13,
logos/1.jpg,properties1.xlsx,frogs/ab44.jpg,0,0,400,l,0,3,3,0,0,60,60,43,,,['l'],0,[0.3343533519819175],2018_Jul_09_1202,60.0203845404,go-nogo,001,13,
logos/1.jpg,properties1.xlsx,frogs/ab66.jpg,0,0,400,l,0,3,3,0,0,61,61,64,,,['l'],0,[0.4507634779847649],2018_Jul_09_1202,60.0203845404,go-nogo,001,13,
logos/1.jpg,properties1.xlsx,frogs/ab36.jpg,0,0,400,l,0,3,3,0,0,62,62,35,,,['l'],0,[0.4341462193597181],2018_Jul_09_1202,60.0203845404,go-nogo,001,13,
logos/1.jpg,properties1.xlsx,frogs/ab40.jpg,0,0,400,l,0,3,3,0,0,63,63,39,,,['l'],0,[0.3841027277676403],2018_Jul_09_1202,60.0203845404,go-nogo,001,13,
logos/1.jpg,properties1.xlsx,frogs/ab9.jpg,0,0,400,l,0,3,3,0,0,64,64,8,,,['l'],0,[0.4507714424362348],2018_Jul_09_1202,60.0203845404,go-nogo,001,13,
logos/1.jpg,properties1.xlsx,frogs/ab24.jpg,0,0,400,l,0,3,3,0,0,65,65,23,,,['l'],0,[0.33427200080132025],2018_Jul_09_1202,60.0203845404,go-nogo,001,13,
logos/1.jpg,properties1.xlsx,frogs/ab43.jpg,0,0,400,l,0,3,3,0,0,66,66,42,,,['l'],0,[0.48426537324030505],2018_Jul_09_1202,60.0203845404,go-nogo,001,13,
logos/1.jpg,properties1.xlsx,frogs/ab61.jpg,0,0,400,l,0,3,3,0,0,67,67,59,,,['l'],0,[0.4675479900852224],2018_Jul_09_1202,60.0203845404,go-nogo,001,13,
logos/1.jpg,properties1.xlsx,frogs/ab38.jpg,0,0,400,l,0,3,3,0,0,68,68,37,,,['l'],0,[0.31755404875730164],2018_Jul_09_1202,60.0203845404,go-nogo,001,13,
logos/1.jpg,properties1.xlsx,frogs/ab34.jpg,0,0,400,l,0,3,3,0,0,69,69,33,,,['l'],0,[0.30096125237560045],2018_Jul_09_1202,60.0203845404,go-nogo,001,13,
logos/1.jpg,properties1.xlsx,frogs/ab16.jpg,0,0,400,l,0,3,3,0,0,70,70,15,,,['l'],0,[0.3009817323936659],2018_Jul_09_1202,60.0203845404,go-nogo,001,13,
logos/1.jpg,properties1.xlsx,frogs/ab11.jpg,0,0,400,l,0,3,3,0,0,71,71,10,,,['l'],0,[0.31745107978076703],2018_Jul_09_1202,60.0203845404,go-nogo,001,13,
logos/1.jpg,properties1.xlsx,frogs/ab46.jpg,0,0,400,l,0,3,3,0,0,72,72,45,,,['l'],0,[0.45010641075805324],2018_Jul_09_1202,60.0203845404,go-nogo,001,13,
logos/1.jpg,properties1.xlsx,frogs/ab69.jpg,0,0,400,l,0,3,3,0,0,73,73,67,,,['l'],0,[0.48543216534653766],2018_Jul_09_1202,60.0203845404,go-nogo,001,13,
logos/1.jpg,properties1.xlsx,frogs/ab73.jpg,0,0,400,l,0,3,3,0,0,74,74,71,,,['l'],0,[0.9670886119156421],2018_Jul_09_1202,60.0203845404,go-nogo,001,13,
logos/1.jpg,properties1.xlsx,frogs/ab50.jpg,0,0,400,l,0,3,3,0,0,75,75,49,,,['l'],0,[0.2674229482008741],2018_Jul_09_1202,60.0203845404,go-nogo,001,13,
logos/1.jpg,properties1.xlsx,frogs/ab37.jpg,0,0,400,l,0,3,3,0,0,76,76,36,,,['l'],0,[0.3341627740410331],2018_Jul_09_1202,60.0203845404,go-nogo,001,13,
logos/1.jpg,properties1.xlsx,frogs/ab35.jpg,0,0,400,l,0,3,3,0,0,77,77,34,,,['l'],0,[0.9518002788690865],2018_Jul_09_1202,60.0203845404,go-nogo,001,13,
logos/1.jpg,properties1.xlsx,frogs/ab28.jpg,0,0,400,l,0,3,3,0,0,78,78,27,,,['l'],0,[0.35079027267420315],2018_Jul_09_1202,60.0203845404,go-nogo,001,13,
logos/1.jpg,properties1.xlsx,frogs/ab67.jpg,0,0,400,l,0,3,3,0,0,79,79,65,,,['l'],0,[0.3508716238548004],2018_Jul_09_1202,60.0203845404,go-nogo,001,13,
logos/1.jpg,properties1.xlsx,frogs/ab23.jpg,0,0,400,l,0,3,3,0,0,80,80,22,,,['l'],0,[0.5008041251312534],2018_Jul_09_1202,60.0203845404,go-nogo,001,13,
logos/1.jpg,properties1.xlsx,frogs/ab65.jpg,0,0,400,l,0,3,3,0,0,81,81,63,,,['l'],0,[0.2509763563884917],2018_Jul_09_1202,60.0203845404,go-nogo,001,13,
logos/1.jpg,properties1.xlsx,frogs/ab49.jpg,0,0,400,l,0,3,3,0,0,82,82,48,,,['l'],0,[0.26776428182529344],2018_Jul_09_1202,60.0203845404,go-nogo,001,13,
logos/1.jpg,properties1.xlsx,frogs/ab2.jpg,0,0,400,l,0,3,3,0,0,83,83,1,,,['l'],0,[0.334190649620723],2018_Jul_09_1202,60.0203845404,go-nogo,001,13,
logos/1.jpg,properties1.xlsx,frogs/ab6.jpg,0,0,400,l,0,3,3,0,0,84,84,5,,,['l'],0,[0.7166214115168259],2018_Jul_09_1202,60.0203845404,go-nogo,001,13,
logos/1.jpg,properties1.xlsx,frogs/ab15.jpg,0,0,400,l,0,3,3,0,0,85,85,14,,,['l'],0,[0.2002024108387559],2018_Jul_09_1202,60.0203845404,go-nogo,001,13,
logos/1.jpg,properties1.xlsx,frogs/ab39.jpg,0,0,400,l,0,3,3,0,0,86,86,38,,,['l'],0,[0.31761548880967894],2018_Jul_09_1202,60.0203845404,go-nogo,001,13,
logos/1.jpg,properties1.xlsx,frogs/ab64.jpg,0,0,400,l,0,3,3,0,0,87,87,62,,,['l'],0,[0.33416391181981453],2018_Jul_09_1202,60.0203845404,go-nogo,001,13,
logos/1.jpg,properties1.xlsx,frogs/ab51.jpg,0,0,400,l,0,3,3,0,0,88,88,50,,,['l'],0,[0.35105139289680665],2018_Jul_09_1202,60.0203845404,go-nogo,001,13,
logos/1.jpg,properties1.xlsx,frogs/ab3.jpg,0,0,400,l,0,3,3,0,0,89,89,2,,,['l'],0,[0.36756056254034775],2018_Jul_09_1202,60.0203845404,go-nogo,001,13,
logos/1.jpg,properties1.xlsx,,,,,,0,3,3,0,,,,,,,,,,2018_Jul_09_1202,60.0203845404,go-nogo,001,13,
