pix,source,image1,x,y,size,answer,trials_2.thisRepN,trials_2.thisTrialN,trials_2.thisN,trials_2.thisIndex,trials.thisRepN,trials.thisTrialN,trials.thisN,trials.thisIndex,key_resp_3.keys,key_resp_3.rt,key_resp_2.keys,key_resp_2.corr,key_resp_2.rt,date,frameRate,expName,session,participant,
logos/2.jpg,properties2.xlsx,frogs/ab33.jpg,0,0,400,l,0,0,0,1,0,0,0,32,space,19.4107849284,['l'],0,[1.9839743317934335],2018_Jul_09_0503,60.0254201414,go-nogo,001,14,
logos/2.jpg,properties2.xlsx,frogs/ab35.jpg,0,0,400,l,0,0,0,1,0,1,1,34,,,['l'],0,[0.4509628922241973],2018_Jul_09_0503,60.0254201414,go-nogo,001,14,
logos/2.jpg,properties2.xlsx,frogs/ab39.jpg,0,0,400,l,0,0,0,1,0,2,2,38,,,['l'],0,[0.15116080333973514],2018_Jul_09_0503,60.0254201414,go-nogo,001,14,
logos/2.jpg,properties2.xlsx,frogs/ab14.jpg,0,0,400,l,0,0,0,1,0,3,3,13,,,['l'],0,[0.20105225344741484],2018_Jul_09_0503,60.0254201414,go-nogo,001,14,
logos/2.jpg,properties2.xlsx,logos/2.jpg,0,0,400,a,0,0,0,1,0,4,4,81,,,['a'],0,[0.06774762874556473],2018_Jul_09_0503,60.0254201414,go-nogo,001,14,
logos/2.jpg,properties2.xlsx,frogs/ab29.jpg,0,0,400,l,0,0,0,1,0,5,5,28,,,['a'],0,[0.30101766920415685],2018_Jul_09_0503,60.0254201414,go-nogo,001,14,
logos/2.jpg,properties2.xlsx,frogs/ab51.jpg,0,0,400,l,0,0,0,1,0,6,6,50,,,['l'],0,[0.10099803427874576],2018_Jul_09_0503,60.0254201414,go-nogo,001,14,
logos/2.jpg,properties2.xlsx,frogs/ab4.jpg,0,0,400,l,0,0,0,1,0,7,7,3,,,['l'],0,[0.06770166517526377],2018_Jul_09_0503,60.0254201414,go-nogo,001,14,
logos/2.jpg,properties2.xlsx,frogs/ab5.jpg,0,0,400,l,0,0,0,1,0,8,8,4,,,['a'],0,[0.06688993956049671],2018_Jul_09_0503,60.0254201414,go-nogo,001,14,
logos/2.jpg,properties2.xlsx,frogs/ab58.jpg,0,0,400,l,0,0,0,1,0,9,9,57,,,['l'],0,[0.37015446884470293],2018_Jul_09_0503,60.0254201414,go-nogo,001,14,
logos/2.jpg,properties2.xlsx,frogs/ab72.jpg,0,0,400,l,0,0,0,1,0,10,10,70,,,['a'],0,[0.067728886322584],2018_Jul_09_0503,60.0254201414,go-nogo,001,14,
logos/2.jpg,properties2.xlsx,frogs/ab68.jpg,0,0,400,l,0,0,0,1,0,11,11,66,,,['l'],0,[0.051111046654114034],2018_Jul_09_0503,60.0254201414,go-nogo,001,14,
logos/2.jpg,properties2.xlsx,frogs/ab81.jpg,0,0,400,l,0,0,0,1,0,12,12,79,,,['l'],0,[0.25097583341994323],2018_Jul_09_0503,60.0254201414,go-nogo,001,14,
logos/2.jpg,properties2.xlsx,logos/2.jpg,0,0,400,a,0,0,0,1,0,13,13,84,,,['a'],0,[0.20116069177311147],2018_Jul_09_0503,60.0254201414,go-nogo,001,14,
logos/2.jpg,properties2.xlsx,frogs/ab34.jpg,0,0,400,l,0,0,0,1,0,14,14,33,,,['l'],0,[0.5012390083502396],2018_Jul_09_0503,60.0254201414,go-nogo,001,14,
logos/2.jpg,properties2.xlsx,logos/2.jpg,0,0,400,a,0,0,0,1,0,15,15,85,,,['a'],0,[0.14994388427294325],2018_Jul_09_0503,60.0254201414,go-nogo,001,14,
logos/2.jpg,properties2.xlsx,frogs/ab28.jpg,0,0,400,l,0,0,0,1,0,16,16,27,,,['l'],0,[0.6012387852242682],2018_Jul_09_0503,60.0254201414,go-nogo,001,14,
logos/2.jpg,properties2.xlsx,frogs/ab45.jpg,0,0,400,l,0,0,0,1,0,17,17,44,,,['a'],0,[0.1344452353005181],2018_Jul_09_0503,60.0254201414,go-nogo,001,14,
logos/2.jpg,properties2.xlsx,logos/2.jpg,0,0,400,a,0,0,0,1,0,18,18,82,,,['l'],0,[0.4680399213684723],2018_Jul_09_0503,60.0254201414,go-nogo,001,14,
logos/2.jpg,properties2.xlsx,frogs/ab20.jpg,0,0,400,l,0,0,0,1,0,19,19,19,,,['l'],0,[0.4678516045969445],2018_Jul_09_0503,60.0254201414,go-nogo,001,14,
logos/2.jpg,properties2.xlsx,frogs/ab1.jpg,0,0,400,l,0,0,0,1,0,20,20,0,,,['l'],0,[0.5343488456710475],2018_Jul_09_0503,60.0254201414,go-nogo,001,14,
logos/2.jpg,properties2.xlsx,frogs/ab76.jpg,0,0,400,l,0,0,0,1,0,21,21,74,,,['l'],0,[0.48412717183236964],2018_Jul_09_0503,60.0254201414,go-nogo,001,14,
logos/2.jpg,properties2.xlsx,frogs/ab65.jpg,0,0,400,l,0,0,0,1,0,22,22,63,,,['l'],0,[0.25089104625658365],2018_Jul_09_0503,60.0254201414,go-nogo,001,14,
logos/2.jpg,properties2.xlsx,frogs/ab37.jpg,0,0,400,l,0,0,0,1,0,23,23,36,,,['l'],0,[0.234252232919971],2018_Jul_09_0503,60.0254201414,go-nogo,001,14,
logos/2.jpg,properties2.xlsx,frogs/ab53.jpg,0,0,400,l,0,0,0,1,0,24,24,52,,,['l'],0,[0.48367869231151417],2018_Jul_09_0503,60.0254201414,go-nogo,001,14,
logos/2.jpg,properties2.xlsx,frogs/ab11.jpg,0,0,400,l,0,0,0,1,0,25,25,10,,,['l'],0,[0.2675566344842082],2018_Jul_09_0503,60.0254201414,go-nogo,001,14,
logos/2.jpg,properties2.xlsx,frogs/ab38.jpg,0,0,400,l,0,0,0,1,0,26,26,37,,,['l'],0,[0.26758207063539885],2018_Jul_09_0503,60.0254201414,go-nogo,001,14,
logos/2.jpg,properties2.xlsx,frogs/ab79.jpg,0,0,400,l,0,0,0,1,0,27,27,77,,,['l'],0,[0.23408979854139034],2018_Jul_09_0503,60.0254201414,go-nogo,001,14,
logos/2.jpg,properties2.xlsx,frogs/ab64.jpg,0,0,400,l,0,0,0,1,0,28,28,62,,,['l'],0,[0.3842327095553628],2018_Jul_09_0503,60.0254201414,go-nogo,001,14,
logos/2.jpg,properties2.xlsx,logos/2.jpg,0,0,400,a,0,0,0,1,0,29,29,86,,,['l'],0,[0.8670961062598508],2018_Jul_09_0503,60.0254201414,go-nogo,001,14,
logos/2.jpg,properties2.xlsx,frogs/ab60.jpg,0,0,400,l,0,0,0,1,0,30,30,58,,,['l'],0,[0.550796664741938],2018_Jul_09_0503,60.0254201414,go-nogo,001,14,
logos/2.jpg,properties2.xlsx,frogs/ab17.jpg,0,0,400,l,0,0,0,1,0,31,31,16,,,['a'],0,[0.3841367661661934],2018_Jul_09_0503,60.0254201414,go-nogo,001,14,
logos/2.jpg,properties2.xlsx,frogs/ab40.jpg,0,0,400,l,0,0,0,1,0,32,32,39,,,['l'],0,[0.600804139401589],2018_Jul_09_0503,60.0254201414,go-nogo,001,14,
logos/2.jpg,properties2.xlsx,frogs/ab54.jpg,0,0,400,l,0,0,0,1,0,33,33,53,,,['a'],0,[1.283898246474564],2018_Jul_09_0503,60.0254201414,go-nogo,001,14,
logos/2.jpg,properties2.xlsx,frogs/ab25.jpg,0,0,400,l,0,0,0,1,0,34,34,24,,,['l'],0,[0.7341721313496237],2018_Jul_09_0503,60.0254201414,go-nogo,001,14,
logos/2.jpg,properties2.xlsx,frogs/ab61.jpg,0,0,400,l,0,0,0,1,0,35,35,59,,,['a'],0,[0.6333887424989371],2018_Jul_09_0503,60.0254201414,go-nogo,001,14,
logos/2.jpg,properties2.xlsx,frogs/ab69.jpg,0,0,400,l,0,0,0,1,0,36,36,67,,,['l'],0,[0.4009183789603412],2018_Jul_09_0503,60.0254201414,go-nogo,001,14,
logos/2.jpg,properties2.xlsx,frogs/ab12.jpg,0,0,400,l,0,0,0,1,0,37,37,11,,,['a'],0,[0.450909788676654],2018_Jul_09_0503,60.0254201414,go-nogo,001,14,
logos/2.jpg,properties2.xlsx,frogs/ab30.jpg,0,0,400,l,0,0,0,1,0,38,38,29,,,['a'],0,[0.35030534538964275],2018_Jul_09_0503,60.0254201414,go-nogo,001,14,
logos/2.jpg,properties2.xlsx,frogs/ab19.jpg,0,0,400,l,0,0,0,1,0,39,39,18,,,['a'],0,[0.7506797476889915],2018_Jul_09_0503,60.0254201414,go-nogo,001,14,
logos/2.jpg,properties2.xlsx,frogs/ab8.jpg,0,0,400,l,0,0,0,1,0,40,40,7,,,['l'],0,[0.300960549422598],2018_Jul_09_0503,60.0254201414,go-nogo,001,14,
logos/2.jpg,properties2.xlsx,frogs/ab80.jpg,0,0,400,l,0,0,0,1,0,41,41,78,,,['a'],0,[0.30066468681616243],2018_Jul_09_0503,60.0254201414,go-nogo,001,14,
logos/2.jpg,properties2.xlsx,frogs/ab42.jpg,0,0,400,l,0,0,0,1,0,42,42,41,,,['l'],0,[0.43394878408435034],2018_Jul_09_0503,60.0254201414,go-nogo,001,14,
logos/2.jpg,properties2.xlsx,frogs/ab32.jpg,0,0,400,l,0,0,0,1,0,43,43,31,,,['a'],0,[0.36753856143332087],2018_Jul_09_0503,60.0254201414,go-nogo,001,14,
logos/2.jpg,properties2.xlsx,frogs/ab36.jpg,0,0,400,l,0,0,0,1,0,44,44,35,,,['l'],0,[0.3675385614260449],2018_Jul_09_0503,60.0254201414,go-nogo,001,14,
logos/2.jpg,properties2.xlsx,frogs/ab50.jpg,0,0,400,l,0,0,0,1,0,45,45,49,,,['a'],0,[0.31794431267189793],2018_Jul_09_0503,60.0254201414,go-nogo,001,14,
logos/2.jpg,properties2.xlsx,frogs/ab22.jpg,0,0,400,l,0,0,0,1,0,46,46,21,,,['l'],0,[0.367511786535033],2018_Jul_09_0503,60.0254201414,go-nogo,001,14,
logos/2.jpg,properties2.xlsx,logos/2.jpg,0,0,400,a,0,0,0,1,0,47,47,83,,,['a'],0,[0.33424620856385445],2018_Jul_09_0503,60.0254201414,go-nogo,001,14,
logos/2.jpg,properties2.xlsx,frogs/ab24.jpg,0,0,400,l,0,0,0,1,0,48,48,23,,,['l'],0,[0.3676211173660704],2018_Jul_09_0503,60.0254201414,go-nogo,001,14,
logos/2.jpg,properties2.xlsx,frogs/ab9.jpg,0,0,400,l,0,0,0,1,0,49,49,8,,,['a'],0,[0.48409727320540696],2018_Jul_09_0503,60.0254201414,go-nogo,001,14,
logos/2.jpg,properties2.xlsx,logos/2.jpg,0,0,400,a,0,0,0,1,0,50,50,80,,,['l'],0,[0.367588094988605],2018_Jul_09_0503,60.0254201414,go-nogo,001,14,
logos/2.jpg,properties2.xlsx,frogs/ab6.jpg,0,0,400,l,0,0,0,1,0,51,51,5,,,['a'],0,[0.3841523848604993],2018_Jul_09_0503,60.0254201414,go-nogo,001,14,
logos/2.jpg,properties2.xlsx,frogs/ab15.jpg,0,0,400,l,0,0,0,1,0,52,52,14,,,['l'],0,[0.3014933698650566],2018_Jul_09_0503,60.0254201414,go-nogo,001,14,
logos/2.jpg,properties2.xlsx,frogs/ab55.jpg,0,0,400,l,0,0,0,1,0,53,53,54,,,['a'],0,[0.5685693949562847],2018_Jul_09_0503,60.0254201414,go-nogo,001,14,
logos/2.jpg,properties2.xlsx,frogs/ab21.jpg,0,0,400,l,0,0,0,1,0,54,54,20,,,['l'],0,[0.4344164522844949],2018_Jul_09_0503,60.0254201414,go-nogo,001,14,
logos/2.jpg,properties2.xlsx,frogs/ab52.jpg,0,0,400,l,0,0,0,1,0,55,55,51,,,['a'],0,[0.6174773138482124],2018_Jul_09_0503,60.0254201414,go-nogo,001,14,
logos/2.jpg,properties2.xlsx,frogs/ab74.jpg,0,0,400,l,0,0,0,1,0,56,56,72,,,['a'],0,[0.667542800794763],2018_Jul_09_0503,60.0254201414,go-nogo,001,14,
logos/2.jpg,properties2.xlsx,frogs/ab18.jpg,0,0,400,l,0,0,0,1,0,57,57,17,,,['a'],0,[0.800755052085151],2018_Jul_09_0503,60.0254201414,go-nogo,001,14,
logos/2.jpg,properties2.xlsx,frogs/ab75.jpg,0,0,400,l,0,0,0,1,0,58,58,73,,,['a'],0,[0.33464470827311743],2018_Jul_09_0503,60.0254201414,go-nogo,001,14,
logos/2.jpg,properties2.xlsx,frogs/ab43.jpg,0,0,400,l,0,0,0,1,0,59,59,42,,,['a'],0,[0.6341125571998418],2018_Jul_09_0503,60.0254201414,go-nogo,001,14,
logos/2.jpg,properties2.xlsx,frogs/ab63.jpg,0,0,400,l,0,0,0,1,0,60,60,61,,,['l'],0,[0.4009223951943568],2018_Jul_09_0503,60.0254201414,go-nogo,001,14,
logos/2.jpg,properties2.xlsx,frogs/ab44.jpg,0,0,400,l,0,0,0,1,0,61,61,43,,,['a'],0,[0.7174387133709388],2018_Jul_09_0503,60.0254201414,go-nogo,001,14,
logos/2.jpg,properties2.xlsx,frogs/ab47.jpg,0,0,400,l,0,0,0,1,0,62,62,46,,,['a'],0,[0.7695846097922185],2018_Jul_09_0503,60.0254201414,go-nogo,001,14,
logos/2.jpg,properties2.xlsx,frogs/ab23.jpg,0,0,400,l,0,0,0,1,0,63,63,22,,,['l'],0,[0.4675878718626336],2018_Jul_09_0503,60.0254201414,go-nogo,001,14,
logos/2.jpg,properties2.xlsx,frogs/ab48.jpg,0,0,400,l,0,0,0,1,0,64,64,47,,,['a'],0,[0.6508593626276706],2018_Jul_09_0503,60.0254201414,go-nogo,001,14,
logos/2.jpg,properties2.xlsx,frogs/ab16.jpg,0,0,400,l,0,0,0,1,0,65,65,15,,,['l'],0,[1.1173637436659192],2018_Jul_09_0503,60.0254201414,go-nogo,001,14,
logos/2.jpg,properties2.xlsx,frogs/ab73.jpg,0,0,400,l,0,0,0,1,0,66,66,71,,,['l'],0,[0.4675709144285065],2018_Jul_09_0503,60.0254201414,go-nogo,001,14,
logos/2.jpg,properties2.xlsx,frogs/ab77.jpg,0,0,400,l,0,0,0,1,0,67,67,75,,,['l'],0,[0.3342399610846769],2018_Jul_09_0503,60.0254201414,go-nogo,001,14,
logos/2.jpg,properties2.xlsx,frogs/ab27.jpg,0,0,400,l,0,0,0,1,0,68,68,26,,,['l'],0,[0.3008115025004372],2018_Jul_09_0503,60.0254201414,go-nogo,001,14,
logos/2.jpg,properties2.xlsx,frogs/ab57.jpg,0,0,400,l,0,0,0,1,0,69,69,56,,,['l'],0,[0.35108851111726835],2018_Jul_09_0503,60.0254201414,go-nogo,001,14,
logos/2.jpg,properties2.xlsx,logos/2.jpg,0,0,400,a,0,0,0,1,0,70,70,88,,,['l'],0,[0.5510461175290402],2018_Jul_09_0503,60.0254201414,go-nogo,001,14,
logos/2.jpg,properties2.xlsx,frogs/ab70.jpg,0,0,400,l,0,0,0,1,0,71,71,68,,,['l'],0,[0.4675856406247476],2018_Jul_09_0503,60.0254201414,go-nogo,001,14,
logos/2.jpg,properties2.xlsx,frogs/ab41.jpg,0,0,400,l,0,0,0,1,0,72,72,40,,,['l'],0,[0.31787737544073025],2018_Jul_09_0503,60.0254201414,go-nogo,001,14,
logos/2.jpg,properties2.xlsx,frogs/ab49.jpg,0,0,400,l,0,0,0,1,0,73,73,48,,,['a'],0,[0.2510356306884205],2018_Jul_09_0503,60.0254201414,go-nogo,001,14,
logos/2.jpg,properties2.xlsx,logos/2.jpg,0,0,400,a,0,0,0,1,0,74,74,89,,,['a'],0,[0.2845903775523766],2018_Jul_09_0503,60.0254201414,go-nogo,001,14,
logos/2.jpg,properties2.xlsx,frogs/ab46.jpg,0,0,400,l,0,0,0,1,0,75,75,45,,,['a'],0,[0.2676289267037646],2018_Jul_09_0503,60.0254201414,go-nogo,001,14,
logos/2.jpg,properties2.xlsx,frogs/ab2.jpg,0,0,400,l,0,0,0,1,0,76,76,1,,,['a'],0,[1.5039129280339694],2018_Jul_09_0503,60.0254201414,go-nogo,001,14,
logos/2.jpg,properties2.xlsx,frogs/ab3.jpg,0,0,400,l,0,0,0,1,0,77,77,2,,,['l'],0,[0.8007456808772986],2018_Jul_09_0503,60.0254201414,go-nogo,001,14,
logos/2.jpg,properties2.xlsx,frogs/ab7.jpg,0,0,400,l,0,0,0,1,0,78,78,6,,,['a'],0,[0.7841461373827769],2018_Jul_09_0503,60.0254201414,go-nogo,001,14,
logos/2.jpg,properties2.xlsx,frogs/ab31.jpg,0,0,400,l,0,0,0,1,0,79,79,30,,,['l'],0,[0.48435520470229676],2018_Jul_09_0503,60.0254201414,go-nogo,001,14,
logos/2.jpg,properties2.xlsx,frogs/ab67.jpg,0,0,400,l,0,0,0,1,0,80,80,65,,,['l'],0,[0.46753878455638187],2018_Jul_09_0503,60.0254201414,go-nogo,001,14,
logos/2.jpg,properties2.xlsx,frogs/ab66.jpg,0,0,400,l,0,0,0,1,0,81,81,64,,,['l'],0,[0.4008389467635425],2018_Jul_09_0503,60.0254201414,go-nogo,001,14,
logos/2.jpg,properties2.xlsx,frogs/ab10.jpg,0,0,400,l,0,0,0,1,0,82,82,9,,,['a'],0,[0.3514646984185674],2018_Jul_09_0503,60.0254201414,go-nogo,001,14,
logos/2.jpg,properties2.xlsx,frogs/ab78.jpg,0,0,400,l,0,0,0,1,0,83,83,76,,,['a'],0,[0.46795334920170717],2018_Jul_09_0503,60.0254201414,go-nogo,001,14,
logos/2.jpg,properties2.xlsx,frogs/ab62.jpg,0,0,400,l,0,0,0,1,0,84,84,60,,,['l'],0,[0.7371450373830157],2018_Jul_09_0503,60.0254201414,go-nogo,001,14,
logos/2.jpg,properties2.xlsx,frogs/ab56.jpg,0,0,400,l,0,0,0,1,0,85,85,55,,,['l'],0,[0.8425644996095798],2018_Jul_09_0503,60.0254201414,go-nogo,001,14,
logos/2.jpg,properties2.xlsx,logos/2.jpg,0,0,400,a,0,0,0,1,0,86,86,87,,,['a'],0,[0.4677891298342729],2018_Jul_09_0503,60.0254201414,go-nogo,001,14,
logos/2.jpg,properties2.xlsx,frogs/ab13.jpg,0,0,400,l,0,0,0,1,0,87,87,12,,,['a'],0,[0.35084084331901977],2018_Jul_09_0503,60.0254201414,go-nogo,001,14,
logos/2.jpg,properties2.xlsx,frogs/ab26.jpg,0,0,400,l,0,0,0,1,0,88,88,25,,,['a'],0,[0.40088535658287583],2018_Jul_09_0503,60.0254201414,go-nogo,001,14,
logos/2.jpg,properties2.xlsx,frogs/ab71.jpg,0,0,400,l,0,0,0,1,0,89,89,69,,,['a'],0,[0.4676476691311109],2018_Jul_09_0503,60.0254201414,go-nogo,001,14,
logos/2.jpg,properties2.xlsx,,,,,,0,0,0,1,,,,,,,,,,2018_Jul_09_0503,60.0254201414,go-nogo,001,14,
logos/4.jpg,properties4.xlsx,frogs/ab12.jpg,0,0,400,l,0,1,1,3,0,0,0,11,space,13.0964587968,['l'],0,[1.0006867761039757],2018_Jul_09_0503,60.0254201414,go-nogo,001,14,
logos/4.jpg,properties4.xlsx,frogs/ab61.jpg,0,0,400,l,0,1,1,3,0,1,1,59,,,['l'],0,[0.2841298493221984],2018_Jul_09_0503,60.0254201414,go-nogo,001,14,
logos/4.jpg,properties4.xlsx,frogs/ab22.jpg,0,0,400,l,0,1,1,3,0,2,2,21,,,['l'],0,[0.38486905959871365],2018_Jul_09_0503,60.0254201414,go-nogo,001,14,
logos/4.jpg,properties4.xlsx,frogs/ab41.jpg,0,0,400,l,0,1,1,3,0,3,3,40,,,['l'],0,[0.25118467761785723],2018_Jul_09_0503,60.0254201414,go-nogo,001,14,
logos/4.jpg,properties4.xlsx,frogs/ab42.jpg,0,0,400,l,0,1,1,3,0,4,4,41,,,['l'],0,[0.267698987685435],2018_Jul_09_0503,60.0254201414,go-nogo,001,14,
logos/4.jpg,properties4.xlsx,frogs/ab55.jpg,0,0,400,l,0,1,1,3,0,5,5,54,,,['l'],0,[0.25105972809978994],2018_Jul_09_0503,60.0254201414,go-nogo,001,14,
logos/4.jpg,properties4.xlsx,frogs/ab20.jpg,0,0,400,l,0,1,1,3,0,6,6,19,,,['l'],0,[0.33428503216418903],2018_Jul_09_0503,60.0254201414,go-nogo,001,14,
logos/4.jpg,properties4.xlsx,frogs/ab8.jpg,0,0,400,l,0,1,1,3,0,7,7,7,,,['l'],0,[0.20121424156968715],2018_Jul_09_0503,60.0254201414,go-nogo,001,14,
logos/4.jpg,properties4.xlsx,frogs/ab53.jpg,0,0,400,l,0,1,1,3,0,8,8,52,,,['a'],0,[0.33460677717084764],2018_Jul_09_0503,60.0254201414,go-nogo,001,14,
logos/4.jpg,properties4.xlsx,frogs/ab65.jpg,0,0,400,l,0,1,1,3,0,9,9,63,,,['a'],0,[0.36759077248279937],2018_Jul_09_0503,60.0254201414,go-nogo,001,14,
logos/4.jpg,properties4.xlsx,frogs/ab34.jpg,0,0,400,l,0,1,1,3,0,10,10,33,,,['a'],0,[0.23431515392439906],2018_Jul_09_0503,60.0254201414,go-nogo,001,14,
logos/4.jpg,properties4.xlsx,frogs/ab28.jpg,0,0,400,l,0,1,1,3,0,11,11,27,,,['l'],0,[0.3168072720654891],2018_Jul_09_0503,60.0254201414,go-nogo,001,14,
logos/4.jpg,properties4.xlsx,frogs/ab3.jpg,0,0,400,l,0,1,1,3,0,12,12,2,,,['l'],0,[0.33354961500299396],2018_Jul_09_0503,60.0254201414,go-nogo,001,14,
logos/4.jpg,properties4.xlsx,frogs/ab70.jpg,0,0,400,l,0,1,1,3,0,13,13,68,,,['l'],0,[0.284205711526738],2018_Jul_09_0503,60.0254201414,go-nogo,001,14,
logos/4.jpg,properties4.xlsx,frogs/ab18.jpg,0,0,400,l,0,1,1,3,0,14,14,17,,,['a'],0,[0.2175170299524325],2018_Jul_09_0503,60.0254201414,go-nogo,001,14,
logos/4.jpg,properties4.xlsx,frogs/ab58.jpg,0,0,400,l,0,1,1,3,0,15,15,57,,,['a'],0,[0.853433322692581],2018_Jul_09_0503,60.0254201414,go-nogo,001,14,
logos/4.jpg,properties4.xlsx,logos/4.jpg,0,0,400,a,0,1,1,3,0,16,16,88,,,['a'],0,[0.4340433887191466],2018_Jul_09_0503,60.0254201414,go-nogo,001,14,
logos/4.jpg,properties4.xlsx,frogs/ab60.jpg,0,0,400,l,0,1,1,3,0,17,17,58,,,['l'],0,[0.36755730386357754],2018_Jul_09_0503,60.0254201414,go-nogo,001,14,
logos/4.jpg,properties4.xlsx,logos/4.jpg,0,0,400,a,0,1,1,3,0,18,18,84,,,['a'],0,[0.3675639975845115],2018_Jul_09_0503,60.0254201414,go-nogo,001,14,
logos/4.jpg,properties4.xlsx,frogs/ab51.jpg,0,0,400,l,0,1,1,3,0,19,19,50,,,['l'],0,[0.5172352241570479],2018_Jul_09_0503,60.0254201414,go-nogo,001,14,
logos/4.jpg,properties4.xlsx,logos/4.jpg,0,0,400,a,0,1,1,3,0,20,20,82,,,['a'],0,[0.36754123892023927],2018_Jul_09_0503,60.0254201414,go-nogo,001,14,
logos/4.jpg,properties4.xlsx,frogs/ab66.jpg,0,0,400,l,0,1,1,3,0,21,21,64,,,['l'],0,[0.9002340572260437],2018_Jul_09_0503,60.0254201414,go-nogo,001,14,
logos/4.jpg,properties4.xlsx,frogs/ab19.jpg,0,0,400,l,0,1,1,3,0,22,22,18,,,['l'],0,[0.3342122936883243],2018_Jul_09_0503,60.0254201414,go-nogo,001,14,
logos/4.jpg,properties4.xlsx,logos/4.jpg,0,0,400,a,0,1,1,3,0,23,23,81,,,['a'],0,[0.2343325576002826],2018_Jul_09_0503,60.0254201414,go-nogo,001,14,
logos/4.jpg,properties4.xlsx,frogs/ab79.jpg,0,0,400,l,0,1,1,3,0,24,24,77,,,['l'],0,[0.3009061071279575],2018_Jul_09_0503,60.0254201414,go-nogo,001,14,
logos/4.jpg,properties4.xlsx,frogs/ab9.jpg,0,0,400,l,0,1,1,3,0,25,25,8,,,['l'],0,[0.3509733790633618],2018_Jul_09_0503,60.0254201414,go-nogo,001,14,
logos/4.jpg,properties4.xlsx,frogs/ab67.jpg,0,0,400,l,0,1,1,3,0,26,26,65,,,['l'],0,[0.3006155995026347],2018_Jul_09_0503,60.0254201414,go-nogo,001,14,
logos/4.jpg,properties4.xlsx,frogs/ab47.jpg,0,0,400,l,0,1,1,3,0,27,27,46,,,['l'],0,[0.02375424214551458],2018_Jul_09_0503,60.0254201414,go-nogo,001,14,
logos/4.jpg,properties4.xlsx,frogs/ab46.jpg,0,0,400,l,0,1,1,3,0,28,28,45,,,['a'],0,[0.2509222836306435],2018_Jul_09_0503,60.0254201414,go-nogo,001,14,
logos/4.jpg,properties4.xlsx,frogs/ab49.jpg,0,0,400,l,0,1,1,3,0,29,29,48,,,['l'],0,[0.2509213911325787],2018_Jul_09_0503,60.0254201414,go-nogo,001,14,
logos/4.jpg,properties4.xlsx,frogs/ab25.jpg,0,0,400,l,0,1,1,3,0,30,30,24,,,['l'],0,[0.36758586374344304],2018_Jul_09_0503,60.0254201414,go-nogo,001,14,
logos/4.jpg,properties4.xlsx,frogs/ab13.jpg,0,0,400,l,0,1,1,3,0,31,31,12,,,['l'],0,[0.3008485411046422],2018_Jul_09_0503,60.0254201414,go-nogo,001,14,
logos/4.jpg,properties4.xlsx,frogs/ab10.jpg,0,0,400,l,0,1,1,3,0,32,32,9,,,['l'],0,[0.2843043324028258],2018_Jul_09_0503,60.0254201414,go-nogo,001,14,
logos/4.jpg,properties4.xlsx,frogs/ab81.jpg,0,0,400,l,0,1,1,3,0,33,33,79,,,['l'],0,[0.35077881480538053],2018_Jul_09_0503,60.0254201414,go-nogo,001,14,
logos/4.jpg,properties4.xlsx,frogs/ab45.jpg,0,0,400,l,0,1,1,3,0,34,34,44,,,['l'],0,[0.25093790231767343],2018_Jul_09_0503,60.0254201414,go-nogo,001,14,
logos/4.jpg,properties4.xlsx,frogs/ab23.jpg,0,0,400,l,0,1,1,3,0,35,35,22,,,['l'],0,[0.23424643168982584],2018_Jul_09_0503,60.0254201414,go-nogo,001,14,
logos/4.jpg,properties4.xlsx,frogs/ab78.jpg,0,0,400,l,0,1,1,3,0,36,36,76,,,['l'],0,[0.3014514225287712],2018_Jul_09_0503,60.0254201414,go-nogo,001,14,
logos/4.jpg,properties4.xlsx,logos/4.jpg,0,0,400,a,0,1,1,3,0,37,37,83,,,['a'],0,[0.23552939548972063],2018_Jul_09_0503,60.0254201414,go-nogo,001,14,
logos/4.jpg,properties4.xlsx,frogs/ab40.jpg,0,0,400,l,0,1,1,3,0,38,38,39,,,['l'],0,[0.2347828221245436],2018_Jul_09_0503,60.0254201414,go-nogo,001,14,
logos/4.jpg,properties4.xlsx,frogs/ab6.jpg,0,0,400,l,0,1,1,3,0,39,39,5,,,['l'],0,[0.31766897749184864],2018_Jul_09_0503,60.0254201414,go-nogo,001,14,
logos/4.jpg,properties4.xlsx,frogs/ab35.jpg,0,0,400,l,0,1,1,3,0,40,40,34,,,['l'],0,[0.3675916649735882],2018_Jul_09_0503,60.0254201414,go-nogo,001,14,
logos/4.jpg,properties4.xlsx,frogs/ab76.jpg,0,0,400,l,0,1,1,3,0,41,41,74,,,['a'],0,[0.2676440991417621],2018_Jul_09_0503,60.0254201414,go-nogo,001,14,
logos/4.jpg,properties4.xlsx,frogs/ab27.jpg,0,0,400,l,0,1,1,3,0,42,42,26,,,['l'],0,[0.21752238493354525],2018_Jul_09_0503,60.0254201414,go-nogo,001,14,
logos/4.jpg,properties4.xlsx,frogs/ab56.jpg,0,0,400,l,0,1,1,3,0,43,43,55,,,['l'],0,[0.03386310441419482],2018_Jul_09_0503,60.0254201414,go-nogo,001,14,
logos/4.jpg,properties4.xlsx,frogs/ab75.jpg,0,0,400,l,0,1,1,3,0,44,44,73,,,['a'],0,[0.3507779223145917],2018_Jul_09_0503,60.0254201414,go-nogo,001,14,
logos/4.jpg,properties4.xlsx,frogs/ab17.jpg,0,0,400,l,0,1,1,3,0,45,45,16,,,['a'],0,[0.21746303390682442],2018_Jul_09_0503,60.0254201414,go-nogo,001,14,
logos/4.jpg,properties4.xlsx,frogs/ab43.jpg,0,0,400,l,0,1,1,3,0,46,46,42,,,['l'],0,[0.18440987011854304],2018_Jul_09_0503,60.0254201414,go-nogo,001,14,
logos/4.jpg,properties4.xlsx,frogs/ab4.jpg,0,0,400,l,0,1,1,3,0,47,47,3,,,['l'],0,[0.45093567107687704],2018_Jul_09_0503,60.0254201414,go-nogo,001,14,
logos/4.jpg,properties4.xlsx,frogs/ab24.jpg,0,0,400,l,0,1,1,3,0,48,48,23,,,['l'],0,[0.3843572128243977],2018_Jul_09_0503,60.0254201414,go-nogo,001,14,
logos/4.jpg,properties4.xlsx,frogs/ab68.jpg,0,0,400,l,0,1,1,3,0,49,49,66,,,['l'],0,[0.26749906845361693],2018_Jul_09_0503,60.0254201414,go-nogo,001,14,
logos/4.jpg,properties4.xlsx,logos/4.jpg,0,0,400,a,0,1,1,3,0,50,50,89,,,['a'],0,[0.2003342399621033],2018_Jul_09_0503,60.0254201414,go-nogo,001,14,
logos/4.jpg,properties4.xlsx,frogs/ab26.jpg,0,0,400,l,0,1,1,3,0,51,51,25,,,['a'],0,[0.3675349914410617],2018_Jul_09_0503,60.0254201414,go-nogo,001,14,
logos/4.jpg,properties4.xlsx,frogs/ab54.jpg,0,0,400,l,0,1,1,3,0,52,52,53,,,['a'],0,[0.26761152302788105],2018_Jul_09_0503,60.0254201414,go-nogo,001,14,
logos/4.jpg,properties4.xlsx,frogs/ab30.jpg,0,0,400,l,0,1,1,3,0,53,53,29,,,['a'],0,[0.3007467964926036],2018_Jul_09_0503,60.0254201414,go-nogo,001,14,
logos/4.jpg,properties4.xlsx,frogs/ab32.jpg,0,0,400,l,0,1,1,3,0,54,54,31,,,['l'],0,[0.3001921098839375],2018_Jul_09_0503,60.0254201414,go-nogo,001,14,
logos/4.jpg,properties4.xlsx,frogs/ab80.jpg,0,0,400,l,0,1,1,3,0,55,55,78,,,['a'],0,[0.23426249662588816],2018_Jul_09_0503,60.0254201414,go-nogo,001,14,
logos/4.jpg,properties4.xlsx,frogs/ab72.jpg,0,0,400,l,0,1,1,3,0,56,56,70,,,['a'],0,[0.28424721262126695],2018_Jul_09_0503,60.0254201414,go-nogo,001,14,
logos/4.jpg,properties4.xlsx,frogs/ab36.jpg,0,0,400,l,0,1,1,3,0,57,57,35,,,['l'],0,[0.23428882526786765],2018_Jul_09_0503,60.0254201414,go-nogo,001,14,
logos/4.jpg,properties4.xlsx,frogs/ab5.jpg,0,0,400,l,0,1,1,3,0,58,58,4,,,['a'],0,[0.06755931197403697],2018_Jul_09_0503,60.0254201414,go-nogo,001,14,
logos/4.jpg,properties4.xlsx,frogs/ab71.jpg,0,0,400,l,0,1,1,3,0,59,59,69,,,['l'],0,[0.13434259819041472],2018_Jul_09_0503,60.0254201414,go-nogo,001,14,
logos/4.jpg,properties4.xlsx,frogs/ab57.jpg,0,0,400,l,0,1,1,3,0,60,60,56,,,['a'],0,[0.08419143158243969],2018_Jul_09_0503,60.0254201414,go-nogo,001,14,
logos/4.jpg,properties4.xlsx,logos/4.jpg,0,0,400,a,0,1,1,3,0,61,61,85,,,['a'],0,[0.16759746619936777],2018_Jul_09_0503,60.0254201414,go-nogo,001,14,
logos/4.jpg,properties4.xlsx,logos/4.jpg,0,0,400,a,0,1,1,3,0,62,62,86,,,['a'],0,[2.3334826777645503],2018_Jul_09_0503,60.0254201414,go-nogo,001,14,
logos/4.jpg,properties4.xlsx,logos/4.jpg,0,0,400,a,0,1,1,3,0,63,63,80,,,['a'],0,[0.23421028557640966],2018_Jul_09_0503,60.0254201414,go-nogo,001,14,
logos/4.jpg,properties4.xlsx,frogs/ab14.jpg,0,0,400,l,0,1,1,3,0,64,64,13,,,['l'],0,[0.18426662441925146],2018_Jul_09_0503,60.0254201414,go-nogo,001,14,
logos/4.jpg,properties4.xlsx,frogs/ab31.jpg,0,0,400,l,0,1,1,3,0,65,65,30,,,['l'],0,[0.23430176647525514],2018_Jul_09_0503,60.0254201414,go-nogo,001,14,
logos/4.jpg,properties4.xlsx,frogs/ab1.jpg,0,0,400,l,0,1,1,3,0,66,66,0,,,['l'],0,[0.23428213154693367],2018_Jul_09_0503,60.0254201414,go-nogo,001,14,
logos/4.jpg,properties4.xlsx,frogs/ab69.jpg,0,0,400,l,0,1,1,3,0,67,67,67,,,['l'],0,[0.2175335411375272],2018_Jul_09_0503,60.0254201414,go-nogo,001,14,
logos/4.jpg,properties4.xlsx,frogs/ab77.jpg,0,0,400,l,0,1,1,3,0,68,68,75,,,['a'],0,[0.31771672605827916],2018_Jul_09_0503,60.0254201414,go-nogo,001,14,
logos/4.jpg,properties4.xlsx,frogs/ab73.jpg,0,0,400,l,0,1,1,3,0,69,69,71,,,['l'],0,[0.8173728917536209],2018_Jul_09_0503,60.0254201414,go-nogo,001,14,
logos/4.jpg,properties4.xlsx,frogs/ab44.jpg,0,0,400,l,0,1,1,3,0,70,70,43,,,['a'],0,[0.6840981656932854],2018_Jul_09_0503,60.0254201414,go-nogo,001,14,
logos/4.jpg,properties4.xlsx,frogs/ab21.jpg,0,0,400,l,0,1,1,3,0,71,71,20,,,['l'],0,[0.33400523448653985],2018_Jul_09_0503,60.0254201414,go-nogo,001,14,
logos/4.jpg,properties4.xlsx,frogs/ab52.jpg,0,0,400,l,0,1,1,3,0,72,72,51,,,['a'],0,[0.3343528619079734],2018_Jul_09_0503,60.0254201414,go-nogo,001,14,
logos/4.jpg,properties4.xlsx,frogs/ab38.jpg,0,0,400,l,0,1,1,3,0,73,73,37,,,['l'],0,[0.7841456911410205],2018_Jul_09_0503,60.0254201414,go-nogo,001,14,
logos/4.jpg,properties4.xlsx,frogs/ab50.jpg,0,0,400,l,0,1,1,3,0,74,74,49,,,['l'],0,[0.18440406889567384],2018_Jul_09_0503,60.0254201414,go-nogo,001,14,
logos/4.jpg,properties4.xlsx,frogs/ab33.jpg,0,0,400,l,0,1,1,3,0,75,75,32,,,['l'],0,[0.2513845968496753],2018_Jul_09_0503,60.0254201414,go-nogo,001,14,
logos/4.jpg,properties4.xlsx,frogs/ab16.jpg,0,0,400,l,0,1,1,3,0,76,76,15,,,['a'],0,[0.18489672699797666],2018_Jul_09_0503,60.0254201414,go-nogo,001,14,
logos/4.jpg,properties4.xlsx,frogs/ab2.jpg,0,0,400,l,0,1,1,3,0,77,77,1,,,['l'],0,[1.4413440105636255],2018_Jul_09_0503,60.0254201414,go-nogo,001,14,
logos/4.jpg,properties4.xlsx,frogs/ab63.jpg,0,0,400,l,0,1,1,3,0,78,78,61,,,['a'],0,[0.1356197607674403],2018_Jul_09_0503,60.0254201414,go-nogo,001,14,
logos/4.jpg,properties4.xlsx,frogs/ab29.jpg,0,0,400,l,0,1,1,3,0,79,79,28,,,['l'],0,[0.03429641149705276],2018_Jul_09_0503,60.0254201414,go-nogo,001,14,
logos/4.jpg,properties4.xlsx,frogs/ab64.jpg,0,0,400,l,0,1,1,3,0,80,80,62,,,['a'],0,[0.1374748148591607],2018_Jul_09_0503,60.0254201414,go-nogo,001,14,
logos/4.jpg,properties4.xlsx,frogs/ab15.jpg,0,0,400,l,0,1,1,3,0,81,81,14,,,['l'],0,[0.21843362391518895],2018_Jul_09_0503,60.0254201414,go-nogo,001,14,
logos/4.jpg,properties4.xlsx,frogs/ab7.jpg,0,0,400,l,0,1,1,3,0,82,82,6,,,['l'],0,[0.08533427342626965],2018_Jul_09_0503,60.0254201414,go-nogo,001,14,
logos/4.jpg,properties4.xlsx,frogs/ab62.jpg,0,0,400,l,0,1,1,3,0,83,83,60,,,['l'],0,[0.7664796142635169],2018_Jul_09_0503,60.0254201414,go-nogo,001,14,
logos/4.jpg,properties4.xlsx,frogs/ab11.jpg,0,0,400,l,0,1,1,3,0,84,84,10,,,['l'],0,[0.21757682722090976],2018_Jul_09_0503,60.0254201414,go-nogo,001,14,
logos/4.jpg,properties4.xlsx,frogs/ab74.jpg,0,0,400,l,0,1,1,3,0,85,85,72,,,['l'],0,[2.300366592964565],2018_Jul_09_0503,60.0254201414,go-nogo,001,14,
logos/4.jpg,properties4.xlsx,logos/4.jpg,0,0,400,a,0,1,1,3,0,86,86,87,,,['l'],0,[0.3678786026139278],2018_Jul_09_0503,60.0254201414,go-nogo,001,14,
logos/4.jpg,properties4.xlsx,frogs/ab39.jpg,0,0,400,l,0,1,1,3,0,87,87,38,,,['l'],0,[0.25092719236272387],2018_Jul_09_0503,60.0254201414,go-nogo,001,14,
logos/4.jpg,properties4.xlsx,frogs/ab48.jpg,0,0,400,l,0,1,1,3,0,88,88,47,,,['l'],0,[0.18435051909909816],2018_Jul_09_0503,60.0254201414,go-nogo,001,14,
logos/4.jpg,properties4.xlsx,frogs/ab37.jpg,0,0,400,l,0,1,1,3,0,89,89,36,,,['l'],0,[0.18421976835088572],2018_Jul_09_0503,60.0254201414,go-nogo,001,14,
logos/4.jpg,properties4.xlsx,,,,,,0,1,1,3,,,,,,,,,,2018_Jul_09_0503,60.0254201414,go-nogo,001,14,
logos/3.jpg,properties3.xlsx,frogs/ab37.jpg,0,0,400,l,0,2,2,2,0,0,0,36,space,5.20014012196,['a'],0,[0.20095095508440863],2018_Jul_09_0503,60.0254201414,go-nogo,001,14,
logos/3.jpg,properties3.xlsx,frogs/ab33.jpg,0,0,400,l,0,2,2,2,0,1,1,32,,,['l'],0,[0.08449755790206837],2018_Jul_09_0503,60.0254201414,go-nogo,001,14,
logos/3.jpg,properties3.xlsx,logos/3.jpg,0,0,400,a,0,2,2,2,0,2,2,85,,,['a'],0,[0.017819140033680014],2018_Jul_09_0503,60.0254201414,go-nogo,001,14,
logos/3.jpg,properties3.xlsx,frogs/ab9.jpg,0,0,400,l,0,2,2,2,0,3,3,8,,,['l'],0,[0.43429864273639396],2018_Jul_09_0503,60.0254201414,go-nogo,001,14,
logos/3.jpg,properties3.xlsx,frogs/ab47.jpg,0,0,400,l,0,2,2,2,0,4,4,46,,,['a'],0,[0.1069755299758981],2018_Jul_09_0503,60.0254201414,go-nogo,001,14,
logos/3.jpg,properties3.xlsx,logos/3.jpg,0,0,400,a,0,2,2,2,0,5,5,89,,,['a'],0,[0.03632773365825415],2018_Jul_09_0503,60.0254201414,go-nogo,001,14,
logos/3.jpg,properties3.xlsx,frogs/ab45.jpg,0,0,400,l,0,2,2,2,0,6,6,44,,,['l'],0,[0.10113414000079501],2018_Jul_09_0503,60.0254201414,go-nogo,001,14,
logos/3.jpg,properties3.xlsx,frogs/ab18.jpg,0,0,400,l,0,2,2,2,0,7,7,17,,,['a'],0,[0.1175882065508631],2018_Jul_09_0503,60.0254201414,go-nogo,001,14,
logos/3.jpg,properties3.xlsx,frogs/ab49.jpg,0,0,400,l,0,2,2,2,0,8,8,48,,,['a'],0,[0.18614845340925967],2018_Jul_09_0503,60.0254201414,go-nogo,001,14,
logos/3.jpg,properties3.xlsx,frogs/ab1.jpg,0,0,400,l,0,2,2,2,0,9,9,0,,,['l'],0,[0.05169250816106796],2018_Jul_09_0503,60.0254201414,go-nogo,001,14,
logos/3.jpg,properties3.xlsx,frogs/ab67.jpg,0,0,400,l,0,2,2,2,0,10,10,65,,,['l'],0,[0.23483904940076172],2018_Jul_09_0503,60.0254201414,go-nogo,001,14,
logos/3.jpg,properties3.xlsx,frogs/ab50.jpg,0,0,400,l,0,2,2,2,0,11,11,49,,,['a'],0,[0.0009643425291869789],2018_Jul_09_0503,60.0254201414,go-nogo,001,14,
logos/3.jpg,properties3.xlsx,frogs/ab58.jpg,0,0,400,l,0,2,2,2,0,12,12,57,,,['l'],0,[0.6178548398966086],2018_Jul_09_0503,60.0254201414,go-nogo,001,14,
logos/3.jpg,properties3.xlsx,logos/3.jpg,0,0,400,a,0,2,2,2,0,13,13,86,,,['l'],0,[0.6009339976517367],2018_Jul_09_0503,60.0254201414,go-nogo,001,14,
logos/3.jpg,properties3.xlsx,frogs/ab60.jpg,0,0,400,l,0,2,2,2,0,14,14,58,,,['l'],0,[0.8175451435963623],2018_Jul_09_0503,60.0254201414,go-nogo,001,14,
logos/3.jpg,properties3.xlsx,frogs/ab7.jpg,0,0,400,l,0,2,2,2,0,15,15,6,,,['l'],0,[0.15107244617684046],2018_Jul_09_0503,60.0254201414,go-nogo,001,14,
logos/3.jpg,properties3.xlsx,frogs/ab64.jpg,0,0,400,l,0,2,2,2,0,16,16,62,,,['a'],0,[0.15105504249368096],2018_Jul_09_0503,60.0254201414,go-nogo,001,14,
logos/3.jpg,properties3.xlsx,frogs/ab11.jpg,0,0,400,l,0,2,2,2,0,17,17,10,,,['l'],0,[0.1507672123480006],2018_Jul_09_0503,60.0254201414,go-nogo,001,14,
logos/3.jpg,properties3.xlsx,frogs/ab71.jpg,0,0,400,l,0,2,2,2,0,18,18,69,,,['l'],0,[0.167624687346688],2018_Jul_09_0503,60.0254201414,go-nogo,001,14,
logos/3.jpg,properties3.xlsx,frogs/ab52.jpg,0,0,400,l,0,2,2,2,0,19,19,51,,,['l'],0,[0.0843592209421331],2018_Jul_09_0503,60.0254201414,go-nogo,001,14,
logos/3.jpg,properties3.xlsx,logos/3.jpg,0,0,400,a,0,2,2,2,0,20,20,82,,,['l'],0,[1.3173026076474343],2018_Jul_09_0503,60.0254201414,go-nogo,001,14,
logos/3.jpg,properties3.xlsx,frogs/ab65.jpg,0,0,400,l,0,2,2,2,0,21,21,63,,,['a'],0,[0.1844152250996558],2018_Jul_09_0503,60.0254201414,go-nogo,001,14,
logos/3.jpg,properties3.xlsx,logos/3.jpg,0,0,400,a,0,2,2,2,0,22,22,88,,,['a'],0,[0.23441555978206452],2018_Jul_09_0503,60.0254201414,go-nogo,001,14,
logos/3.jpg,properties3.xlsx,logos/3.jpg,0,0,400,a,0,2,2,2,0,23,23,87,,,['a'],0,[0.30112744627695065],2018_Jul_09_0503,60.0254201414,go-nogo,001,14,
logos/3.jpg,properties3.xlsx,frogs/ab72.jpg,0,0,400,l,0,2,2,2,0,24,24,70,,,['l'],0,[0.08479342051577987],2018_Jul_09_0503,60.0254201414,go-nogo,001,14,
logos/3.jpg,properties3.xlsx,frogs/ab12.jpg,0,0,400,l,0,2,2,2,0,25,25,11,,,['l'],0,[0.3341712388501037],2018_Jul_09_0503,60.0254201414,go-nogo,001,14,
logos/3.jpg,properties3.xlsx,frogs/ab74.jpg,0,0,400,l,0,2,2,2,0,26,26,72,,,['a'],0,[2.08356980773533],2018_Jul_09_0503,60.0254201414,go-nogo,001,14,
logos/3.jpg,properties3.xlsx,frogs/ab38.jpg,0,0,400,l,0,2,2,2,0,27,27,37,,,['l'],0,[0.7006990479276283],2018_Jul_09_0503,60.0254201414,go-nogo,001,14,
logos/3.jpg,properties3.xlsx,frogs/ab44.jpg,0,0,400,l,0,2,2,2,0,28,28,43,,,['l'],0,[0.3007963300551637],2018_Jul_09_0503,60.0254201414,go-nogo,001,14,
logos/3.jpg,properties3.xlsx,frogs/ab34.jpg,0,0,400,l,0,2,2,2,0,29,29,33,,,['l'],0,[0.184201025927905],2018_Jul_09_0503,60.0254201414,go-nogo,001,14,
logos/3.jpg,properties3.xlsx,frogs/ab78.jpg,0,0,400,l,0,2,2,2,0,30,30,76,,,['l'],0,[0.03430489021411631],2018_Jul_09_0503,60.0254201414,go-nogo,001,14,
logos/3.jpg,properties3.xlsx,frogs/ab54.jpg,0,0,400,l,0,2,2,2,0,31,31,53,,,['l'],0,[0.18453348089678911],2018_Jul_09_0503,60.0254201414,go-nogo,001,14,
logos/3.jpg,properties3.xlsx,frogs/ab31.jpg,0,0,400,l,0,2,2,2,0,32,32,30,,,['l'],0,[0.03462440397561295],2018_Jul_09_0503,60.0254201414,go-nogo,001,14,
logos/3.jpg,properties3.xlsx,frogs/ab22.jpg,0,0,400,l,0,2,2,2,0,33,33,21,,,['l'],0,[0.03449856195948087],2018_Jul_09_0503,60.0254201414,go-nogo,001,14,
logos/3.jpg,properties3.xlsx,frogs/ab68.jpg,0,0,400,l,0,2,2,2,0,34,34,66,,,['l'],0,[0.13477412027714308],2018_Jul_09_0503,60.0254201414,go-nogo,001,14,
logos/3.jpg,properties3.xlsx,frogs/ab24.jpg,0,0,400,l,0,2,2,2,0,35,35,23,,,['l'],0,[0.18465352168277605],2018_Jul_09_0503,60.0254201414,go-nogo,001,14,
logos/3.jpg,properties3.xlsx,frogs/ab23.jpg,0,0,400,l,0,2,2,2,0,36,36,22,,,['l'],0,[0.20117988045240054],2018_Jul_09_0503,60.0254201414,go-nogo,001,14,
logos/3.jpg,properties3.xlsx,frogs/ab19.jpg,0,0,400,l,0,2,2,2,0,37,37,18,,,['l'],0,[0.20146235561696813],2018_Jul_09_0503,60.0254201414,go-nogo,001,14,
logos/3.jpg,properties3.xlsx,logos/3.jpg,0,0,400,a,0,2,2,2,0,38,38,81,,,['l'],0,[2.2340215225558495],2018_Jul_09_0503,60.0254201414,go-nogo,001,14,
logos/3.jpg,properties3.xlsx,frogs/ab13.jpg,0,0,400,l,0,2,2,2,0,39,39,12,,,['l'],0,[0.6512208237327286],2018_Jul_09_0503,60.0254201414,go-nogo,001,14,
logos/3.jpg,properties3.xlsx,frogs/ab57.jpg,0,0,400,l,0,2,2,2,0,40,40,56,,,['l'],0,[0.11768057994777337],2018_Jul_09_0503,60.0254201414,go-nogo,001,14,
logos/3.jpg,properties3.xlsx,frogs/ab40.jpg,0,0,400,l,0,2,2,2,0,41,41,39,,,['l'],0,[0.03428793277271325],2018_Jul_09_0503,60.0254201414,go-nogo,001,14,
logos/3.jpg,properties3.xlsx,frogs/ab76.jpg,0,0,400,l,0,2,2,2,0,42,42,74,,,['l'],0,[0.20102280105493264],2018_Jul_09_0503,60.0254201414,go-nogo,001,14,
logos/3.jpg,properties3.xlsx,logos/3.jpg,0,0,400,a,0,2,2,2,0,43,43,80,,,['a'],0,[0.4508758738083998],2018_Jul_09_0503,60.0254201414,go-nogo,001,14,
logos/3.jpg,properties3.xlsx,frogs/ab46.jpg,0,0,400,l,0,2,2,2,0,44,44,45,,,['l'],0,[0.1509051030734554],2018_Jul_09_0503,60.0254201414,go-nogo,001,14,
logos/3.jpg,properties3.xlsx,frogs/ab10.jpg,0,0,400,l,0,2,2,2,0,45,45,9,,,['l'],0,[1.1172923439371516],2018_Jul_09_0503,60.0254201414,go-nogo,001,14,
logos/3.jpg,properties3.xlsx,frogs/ab16.jpg,0,0,400,l,0,2,2,2,0,46,46,15,,,['l'],0,[0.3841858534797211],2018_Jul_09_0503,60.0254201414,go-nogo,001,14,
logos/3.jpg,properties3.xlsx,frogs/ab20.jpg,0,0,400,l,0,2,2,2,0,47,47,19,,,['l'],0,[0.05103964692534646],2018_Jul_09_0503,60.0254201414,go-nogo,001,14,
logos/3.jpg,properties3.xlsx,frogs/ab4.jpg,0,0,400,l,0,2,2,2,0,48,48,3,,,['l'],0,[0.1676242410976556],2018_Jul_09_0503,60.0254201414,go-nogo,001,14,
logos/3.jpg,properties3.xlsx,frogs/ab53.jpg,0,0,400,l,0,2,2,2,0,49,49,52,,,['l'],0,[0.41752283117966726],2018_Jul_09_0503,60.0254201414,go-nogo,001,14,
logos/3.jpg,properties3.xlsx,frogs/ab66.jpg,0,0,400,l,0,2,2,2,0,50,50,64,,,['l'],0,[0.13422835863457294],2018_Jul_09_0503,60.0254201414,go-nogo,001,14,
logos/3.jpg,properties3.xlsx,frogs/ab5.jpg,0,0,400,l,0,2,2,2,0,51,51,4,,,['l'],0,[1.0665628395654494],2018_Jul_09_0503,60.0254201414,go-nogo,001,14,
logos/3.jpg,properties3.xlsx,frogs/ab25.jpg,0,0,400,l,0,2,2,2,0,52,52,24,,,['l'],0,[0.5507792610587785],2018_Jul_09_0503,60.0254201414,go-nogo,001,14,
logos/3.jpg,properties3.xlsx,frogs/ab3.jpg,0,0,400,l,0,2,2,2,0,53,53,2,,,['l'],0,[0.28430210115766386],2018_Jul_09_0503,60.0254201414,go-nogo,001,14,
logos/3.jpg,properties3.xlsx,frogs/ab77.jpg,0,0,400,l,0,2,2,2,0,54,54,75,,,['a'],0,[0.10105604655109346],2018_Jul_09_0503,60.0254201414,go-nogo,001,14,
logos/3.jpg,properties3.xlsx,frogs/ab14.jpg,0,0,400,l,0,2,2,2,0,55,55,13,,,['l'],0,[0.18428670559660532],2018_Jul_09_0503,60.0254201414,go-nogo,001,14,
logos/3.jpg,properties3.xlsx,frogs/ab35.jpg,0,0,400,l,0,2,2,2,0,56,56,34,,,['l'],0,[0.18538581510074437],2018_Jul_09_0503,60.0254201414,go-nogo,001,14,
logos/3.jpg,properties3.xlsx,frogs/ab6.jpg,0,0,400,l,0,2,2,2,0,57,57,5,,,['l'],0,[0.1509778415420442],2018_Jul_09_0503,60.0254201414,go-nogo,001,14,
logos/3.jpg,properties3.xlsx,frogs/ab28.jpg,0,0,400,l,0,2,2,2,0,58,58,27,,,['l'],0,[0.10087531599856447],2018_Jul_09_0503,60.0254201414,go-nogo,001,14,
logos/3.jpg,properties3.xlsx,frogs/ab55.jpg,0,0,400,l,0,2,2,2,0,59,59,54,,,['l'],0,[0.18415595484839287],2018_Jul_09_0503,60.0254201414,go-nogo,001,14,
logos/3.jpg,properties3.xlsx,frogs/ab29.jpg,0,0,400,l,0,2,2,2,0,60,60,28,,,['l'],0,[0.13415249643003335],2018_Jul_09_0503,60.0254201414,go-nogo,001,14,
logos/3.jpg,properties3.xlsx,logos/3.jpg,0,0,400,a,0,2,2,2,0,61,61,84,,,['a'],0,[1.017429565283237],2018_Jul_09_0503,60.0254201414,go-nogo,001,14,
logos/3.jpg,properties3.xlsx,frogs/ab32.jpg,0,0,400,l,0,2,2,2,0,62,62,31,,,['l'],0,[0.03426205037976615],2018_Jul_09_0503,60.0254201414,go-nogo,001,14,
logos/3.jpg,properties3.xlsx,frogs/ab8.jpg,0,0,400,l,0,2,2,2,0,63,63,7,,,['l'],0,[0.06758207063103328],2018_Jul_09_0503,60.0254201414,go-nogo,001,14,
logos/3.jpg,properties3.xlsx,frogs/ab48.jpg,0,0,400,l,0,2,2,2,0,64,64,47,,,['l'],0,[0.16761129989754409],2018_Jul_09_0503,60.0254201414,go-nogo,001,14,
logos/3.jpg,properties3.xlsx,logos/3.jpg,0,0,400,a,0,2,2,2,0,65,65,83,,,['a'],0,[0.6674691698208335],2018_Jul_09_0503,60.0254201414,go-nogo,001,14,
logos/3.jpg,properties3.xlsx,frogs/ab2.jpg,0,0,400,l,0,2,2,2,0,66,66,1,,,['a'],0,[0.17213134871417424],2018_Jul_09_0503,60.0254201414,go-nogo,001,14,
logos/3.jpg,properties3.xlsx,frogs/ab42.jpg,0,0,400,l,0,2,2,2,0,67,67,41,,,['l'],0,[0.01768928178353235],2018_Jul_09_0503,60.0254201414,go-nogo,001,14,
logos/3.jpg,properties3.xlsx,frogs/ab51.jpg,0,0,400,l,0,2,2,2,0,68,68,50,,,['l'],0,[0.05102804447233211],2018_Jul_09_0503,60.0254201414,go-nogo,001,14,
logos/3.jpg,properties3.xlsx,frogs/ab43.jpg,0,0,400,l,0,2,2,2,0,69,69,42,,,['l'],0,[0.03434282131638611],2018_Jul_09_0503,60.0254201414,go-nogo,001,14,
logos/3.jpg,properties3.xlsx,frogs/ab41.jpg,0,0,400,l,0,2,2,2,0,70,70,40,,,['l'],0,[0.16761843986751046],2018_Jul_09_0503,60.0254201414,go-nogo,001,14,
logos/3.jpg,properties3.xlsx,frogs/ab61.jpg,0,0,400,l,0,2,2,2,0,71,71,59,,,['l'],0,[0.08432128983258735],2018_Jul_09_0503,60.0254201414,go-nogo,001,14,
logos/3.jpg,properties3.xlsx,frogs/ab21.jpg,0,0,400,l,0,2,2,2,0,72,72,20,,,['l'],0,[0.2175339873865596],2018_Jul_09_0503,60.0254201414,go-nogo,001,14,
logos/3.jpg,properties3.xlsx,frogs/ab30.jpg,0,0,400,l,0,2,2,2,0,73,73,29,,,['l'],0,[0.13427030597085832],2018_Jul_09_0503,60.0254201414,go-nogo,001,14,
logos/3.jpg,properties3.xlsx,frogs/ab81.jpg,0,0,400,l,0,2,2,2,0,74,74,79,,,['l'],0,[0.11762256766814971],2018_Jul_09_0503,60.0254201414,go-nogo,001,14,
logos/3.jpg,properties3.xlsx,frogs/ab27.jpg,0,0,400,l,0,2,2,2,0,75,75,26,,,['a'],0,[0.20094024512945907],2018_Jul_09_0503,60.0254201414,go-nogo,001,14,
logos/3.jpg,properties3.xlsx,frogs/ab70.jpg,0,0,400,l,0,2,2,2,0,76,76,68,,,['l'],0,[0.0009750524914124981],2018_Jul_09_0503,60.0254201414,go-nogo,001,14,
logos/3.jpg,properties3.xlsx,frogs/ab36.jpg,0,0,400,l,0,2,2,2,0,77,77,35,,,['l'],0,[0.18343303263827693],2018_Jul_09_0503,60.0254201414,go-nogo,001,14,
logos/3.jpg,properties3.xlsx,frogs/ab17.jpg,0,0,400,l,0,2,2,2,0,78,78,16,,,['l'],0,[0.1175832978260587],2018_Jul_09_0503,60.0254201414,go-nogo,001,14,
logos/3.jpg,properties3.xlsx,frogs/ab26.jpg,0,0,400,l,0,2,2,2,0,79,79,25,,,['l'],0,[0.03412371340527898],2018_Jul_09_0503,60.0254201414,go-nogo,001,14,
logos/3.jpg,properties3.xlsx,frogs/ab79.jpg,0,0,400,l,0,2,2,2,0,80,80,77,,,['l'],0,[0.2342540179088246],2018_Jul_09_0503,60.0254201414,go-nogo,001,14,
logos/3.jpg,properties3.xlsx,frogs/ab73.jpg,0,0,400,l,0,2,2,2,0,81,81,71,,,['l'],0,[0.18438532646541717],2018_Jul_09_0503,60.0254201414,go-nogo,001,14,
logos/3.jpg,properties3.xlsx,frogs/ab80.jpg,0,0,400,l,0,2,2,2,0,82,82,78,,,['l'],0,[0.08438822707830695],2018_Jul_09_0503,60.0254201414,go-nogo,001,14,
logos/3.jpg,properties3.xlsx,frogs/ab39.jpg,0,0,400,l,0,2,2,2,0,83,83,38,,,['l'],0,[0.15097471779881744],2018_Jul_09_0503,60.0254201414,go-nogo,001,14,
logos/3.jpg,properties3.xlsx,frogs/ab75.jpg,0,0,400,l,0,2,2,2,0,84,84,73,,,['l'],0,[0.3340681555055198],2018_Jul_09_0503,60.0254201414,go-nogo,001,14,
logos/3.jpg,properties3.xlsx,frogs/ab62.jpg,0,0,400,l,0,2,2,2,0,85,85,60,,,['l'],0,[0.20142219326953636],2018_Jul_09_0503,60.0254201414,go-nogo,001,14,
logos/3.jpg,properties3.xlsx,frogs/ab63.jpg,0,0,400,l,0,2,2,2,0,86,86,61,,,['l'],0,[0.2012311989965383],2018_Jul_09_0503,60.0254201414,go-nogo,001,14,
logos/3.jpg,properties3.xlsx,frogs/ab69.jpg,0,0,400,l,0,2,2,2,0,87,87,67,,,['l'],0,[0.16805754818051355],2018_Jul_09_0503,60.0254201414,go-nogo,001,14,
logos/3.jpg,properties3.xlsx,frogs/ab15.jpg,0,0,400,l,0,2,2,2,0,88,88,14,,,['l'],0,[0.23403714124287944],2018_Jul_09_0503,60.0254201414,go-nogo,001,14,
logos/3.jpg,properties3.xlsx,frogs/ab56.jpg,0,0,400,l,0,2,2,2,0,89,89,55,,,['l'],0,[2.293501509433554],2018_Jul_09_0503,60.0254201414,go-nogo,001,14,
logos/3.jpg,properties3.xlsx,,,,,,0,2,2,2,,,,,,,,,,2018_Jul_09_0503,60.0254201414,go-nogo,001,14,
logos/1.jpg,properties1.xlsx,frogs/ab57.jpg,0,0,400,l,0,3,3,0,0,0,0,56,space,5.16558220897,['l'],0,[0.21753175614139764],2018_Jul_09_0503,60.0254201414,go-nogo,001,14,
logos/1.jpg,properties1.xlsx,frogs/ab17.jpg,0,0,400,l,0,3,3,0,0,1,1,16,,,['a'],0,[0.08436279091984034],2018_Jul_09_0503,60.0254201414,go-nogo,001,14,
logos/1.jpg,properties1.xlsx,frogs/ab49.jpg,0,0,400,l,0,3,3,0,0,2,2,48,,,['a'],0,[0.06697517298016464],2018_Jul_09_0503,60.0254201414,go-nogo,001,14,
logos/1.jpg,properties1.xlsx,logos/1.jpg,0,0,400,a,0,3,3,0,0,3,3,84,,,['l'],0,[0.20352000642742496],2018_Jul_09_0503,60.0254201414,go-nogo,001,14,
logos/1.jpg,properties1.xlsx,logos/1.jpg,0,0,400,a,0,3,3,0,0,4,4,88,,,['a'],0,[0.1351587862955057],2018_Jul_09_0503,60.0254201414,go-nogo,001,14,
logos/1.jpg,properties1.xlsx,frogs/ab14.jpg,0,0,400,l,0,3,3,0,0,5,5,13,,,['l'],0,[0.15115009337750962],2018_Jul_09_0503,60.0254201414,go-nogo,001,14,
logos/1.jpg,properties1.xlsx,frogs/ab31.jpg,0,0,400,l,0,3,3,0,0,6,6,30,,,['a'],0,[0.20114373433898436],2018_Jul_09_0503,60.0254201414,go-nogo,001,14,
logos/1.jpg,properties1.xlsx,frogs/ab55.jpg,0,0,400,l,0,3,3,0,0,7,7,54,,,['l'],0,[0.017514798710180912],2018_Jul_09_0503,60.0254201414,go-nogo,001,14,
logos/1.jpg,properties1.xlsx,logos/1.jpg,0,0,400,a,0,3,3,0,0,8,8,80,,,['l'],0,[0.1337932665628614],2018_Jul_09_0503,60.0254201414,go-nogo,001,14,
logos/1.jpg,properties1.xlsx,frogs/ab43.jpg,0,0,400,l,0,3,3,0,0,9,9,42,,,['a'],0,[0.20109196953853825],2018_Jul_09_0503,60.0254201414,go-nogo,001,14,
logos/1.jpg,properties1.xlsx,frogs/ab54.jpg,0,0,400,l,0,3,3,0,0,10,10,53,,,['a'],0,[0.2675798393902369],2018_Jul_09_0503,60.0254201414,go-nogo,001,14,
logos/1.jpg,properties1.xlsx,frogs/ab77.jpg,0,0,400,l,0,3,3,0,0,11,11,75,,,['l'],0,[0.18428268936258974],2018_Jul_09_0503,60.0254201414,go-nogo,001,14,
logos/1.jpg,properties1.xlsx,frogs/ab61.jpg,0,0,400,l,0,3,3,0,0,12,12,59,,,['a'],0,[0.5174097072376753],2018_Jul_09_0503,60.0254201414,go-nogo,001,14,
logos/1.jpg,properties1.xlsx,frogs/ab62.jpg,0,0,400,l,0,3,3,0,0,13,13,60,,,['l'],0,[0.23471186864480842],2018_Jul_09_0503,60.0254201414,go-nogo,001,14,
logos/1.jpg,properties1.xlsx,frogs/ab53.jpg,0,0,400,l,0,3,3,0,0,14,14,52,,,['a'],0,[0.0845020203923923],2018_Jul_09_0503,60.0254201414,go-nogo,001,14,
logos/1.jpg,properties1.xlsx,frogs/ab16.jpg,0,0,400,l,0,3,3,0,0,15,15,15,,,['a'],0,[0.11786800422123633],2018_Jul_09_0503,60.0254201414,go-nogo,001,14,
logos/1.jpg,properties1.xlsx,frogs/ab45.jpg,0,0,400,l,0,3,3,0,0,16,16,44,,,['a'],0,[0.25129177720373264],2018_Jul_09_0503,60.0254201414,go-nogo,001,14,
logos/1.jpg,properties1.xlsx,frogs/ab38.jpg,0,0,400,l,0,3,3,0,0,17,17,37,,,['l'],0,[0.2182243334755185],2018_Jul_09_0503,60.0254201414,go-nogo,001,14,
logos/1.jpg,properties1.xlsx,frogs/ab80.jpg,0,0,400,l,0,3,3,0,0,18,18,78,,,['a'],0,[0.2338448082373361],2018_Jul_09_0503,60.0254201414,go-nogo,001,14,
logos/1.jpg,properties1.xlsx,frogs/ab9.jpg,0,0,400,l,0,3,3,0,0,19,19,8,,,['a'],0,[0.5342310361156706],2018_Jul_09_0503,60.0254201414,go-nogo,001,14,
logos/1.jpg,properties1.xlsx,frogs/ab36.jpg,0,0,400,l,0,3,3,0,0,20,20,35,,,['a'],0,[0.5008141799844452],2018_Jul_09_0503,60.0254201414,go-nogo,001,14,
logos/1.jpg,properties1.xlsx,frogs/ab1.jpg,0,0,400,l,0,3,3,0,0,21,21,0,,,['l'],0,[0.41761475832754513],2018_Jul_09_0503,60.0254201414,go-nogo,001,14,
logos/1.jpg,properties1.xlsx,frogs/ab52.jpg,0,0,400,l,0,3,3,0,0,22,22,51,,,['a'],0,[0.9007918675779365],2018_Jul_09_0503,60.0254201414,go-nogo,001,14,
logos/1.jpg,properties1.xlsx,frogs/ab79.jpg,0,0,400,l,0,3,3,0,0,23,23,77,,,['l'],0,[3.1329320073782583],2018_Jul_09_0503,60.0254201414,go-nogo,001,14,
logos/1.jpg,properties1.xlsx,frogs/ab13.jpg,0,0,400,l,0,3,3,0,0,24,24,12,,,['l'],0,[0.4841454680135939],2018_Jul_09_0503,60.0254201414,go-nogo,001,14,
logos/1.jpg,properties1.xlsx,frogs/ab69.jpg,0,0,400,l,0,3,3,0,0,25,25,67,,,['l'],0,[0.13327204857341712],2018_Jul_09_0503,60.0254201414,go-nogo,001,14,
logos/1.jpg,properties1.xlsx,frogs/ab25.jpg,0,0,400,l,0,3,3,0,0,26,26,24,,,['l'],0,[0.2848090392071754],2018_Jul_09_0503,60.0254201414,go-nogo,001,14,
logos/1.jpg,properties1.xlsx,frogs/ab41.jpg,0,0,400,l,0,3,3,0,0,27,27,40,,,['l'],0,[0.7343287644907832],2018_Jul_09_0503,60.0254201414,go-nogo,001,14,
logos/1.jpg,properties1.xlsx,frogs/ab21.jpg,0,0,400,l,0,3,3,0,0,28,28,20,,,['l'],0,[0.0009295351701439358],2018_Jul_09_0503,60.0254201414,go-nogo,001,14,
logos/1.jpg,properties1.xlsx,frogs/ab44.jpg,0,0,400,l,0,3,3,0,0,29,29,43,,,['l'],0,[0.750897070603969],2018_Jul_09_0503,60.0254201414,go-nogo,001,14,
logos/1.jpg,properties1.xlsx,frogs/ab4.jpg,0,0,400,l,0,3,3,0,0,30,30,3,,,['l'],0,[0.4675820706397644],2018_Jul_09_0503,60.0254201414,go-nogo,001,14,
logos/1.jpg,properties1.xlsx,frogs/ab8.jpg,0,0,400,l,0,3,3,0,0,31,31,7,,,['l'],0,[0.08372599462745711],2018_Jul_09_0503,60.0254201414,go-nogo,001,14,
logos/1.jpg,properties1.xlsx,frogs/ab71.jpg,0,0,400,l,0,3,3,0,0,32,32,69,,,['a'],0,[0.21777942393964622],2018_Jul_09_0503,60.0254201414,go-nogo,001,14,
logos/1.jpg,properties1.xlsx,frogs/ab76.jpg,0,0,400,l,0,3,3,0,0,33,33,74,,,['a'],0,[0.08443106691265712],2018_Jul_09_0503,60.0254201414,go-nogo,001,14,
logos/1.jpg,properties1.xlsx,frogs/ab51.jpg,0,0,400,l,0,3,3,0,0,34,34,50,,,['l'],0,[0.7506793014399591],2018_Jul_09_0503,60.0254201414,go-nogo,001,14,
logos/1.jpg,properties1.xlsx,frogs/ab10.jpg,0,0,400,l,0,3,3,0,0,35,35,9,,,['a'],0,[0.2509892208763631],2018_Jul_09_0503,60.0254201414,go-nogo,001,14,
logos/1.jpg,properties1.xlsx,frogs/ab26.jpg,0,0,400,l,0,3,3,0,0,36,36,25,,,['l'],0,[0.4173403156310087],2018_Jul_09_0503,60.0254201414,go-nogo,001,14,
logos/1.jpg,properties1.xlsx,frogs/ab23.jpg,0,0,400,l,0,3,3,0,0,37,37,22,,,['l'],0,[0.1511184097471414],2018_Jul_09_0503,60.0254201414,go-nogo,001,14,
logos/1.jpg,properties1.xlsx,logos/1.jpg,0,0,400,a,0,3,3,0,0,38,38,85,,,['a'],0,[0.32036967207386624],2018_Jul_09_0503,60.0254201414,go-nogo,001,14,
logos/1.jpg,properties1.xlsx,frogs/ab60.jpg,0,0,400,l,0,3,3,0,0,39,39,58,,,['l'],0,[0.11762524515506811],2018_Jul_09_0503,60.0254201414,go-nogo,001,14,
logos/1.jpg,properties1.xlsx,frogs/ab30.jpg,0,0,400,l,0,3,3,0,0,40,40,29,,,['l'],0,[0.2508691800831002],2018_Jul_09_0503,60.0254201414,go-nogo,001,14,
logos/1.jpg,properties1.xlsx,frogs/ab35.jpg,0,0,400,l,0,3,3,0,0,41,41,34,,,['a'],0,[0.28430924112763023],2018_Jul_09_0503,60.0254201414,go-nogo,001,14,
logos/1.jpg,properties1.xlsx,frogs/ab70.jpg,0,0,400,l,0,3,3,0,0,42,42,68,,,['l'],0,[0.23419154315342894],2018_Jul_09_0503,60.0254201414,go-nogo,001,14,
logos/1.jpg,properties1.xlsx,frogs/ab37.jpg,0,0,400,l,0,3,3,0,0,43,43,36,,,['l'],0,[0.2675865331184468],2018_Jul_09_0503,60.0254201414,go-nogo,001,14,
logos/1.jpg,properties1.xlsx,frogs/ab78.jpg,0,0,400,l,0,3,3,0,0,44,44,76,,,['a'],0,[0.3842684094197466],2018_Jul_09_0503,60.0254201414,go-nogo,001,14,
logos/1.jpg,properties1.xlsx,frogs/ab7.jpg,0,0,400,l,0,3,3,0,0,45,45,6,,,['l'],0,[0.08469479964696802],2018_Jul_09_0503,60.0254201414,go-nogo,001,14,
logos/1.jpg,properties1.xlsx,frogs/ab50.jpg,0,0,400,l,0,3,3,0,0,46,46,49,,,['l'],0,[0.26754994075599825],2018_Jul_09_0503,60.0254201414,go-nogo,001,14,
logos/1.jpg,properties1.xlsx,logos/1.jpg,0,0,400,a,0,3,3,0,0,47,47,89,,,['a'],0,[0.40410236043680925],2018_Jul_09_0503,60.0254201414,go-nogo,001,14,
logos/1.jpg,properties1.xlsx,frogs/ab5.jpg,0,0,400,l,0,3,3,0,0,48,48,4,,,['l'],0,[0.15109252734691836],2018_Jul_09_0503,60.0254201414,go-nogo,001,14,
logos/1.jpg,properties1.xlsx,frogs/ab15.jpg,0,0,400,l,0,3,3,0,0,49,49,14,,,['l'],0,[0.15105414999561617],2018_Jul_09_0503,60.0254201414,go-nogo,001,14,
logos/1.jpg,properties1.xlsx,frogs/ab12.jpg,0,0,400,l,0,3,3,0,0,50,50,11,,,['a'],0,[0.20120040787151083],2018_Jul_09_0503,60.0254201414,go-nogo,001,14,
logos/1.jpg,properties1.xlsx,frogs/ab40.jpg,0,0,400,l,0,3,3,0,0,51,51,39,,,['l'],0,[0.23450391693768324],2018_Jul_09_0503,60.0254201414,go-nogo,001,14,
logos/1.jpg,properties1.xlsx,frogs/ab28.jpg,0,0,400,l,0,3,3,0,0,52,52,27,,,['l'],0,[0.16774160439672414],2018_Jul_09_0503,60.0254201414,go-nogo,001,14,
logos/1.jpg,properties1.xlsx,frogs/ab11.jpg,0,0,400,l,0,3,3,0,0,53,53,10,,,['a'],0,[0.20096345003548777],2018_Jul_09_0503,60.0254201414,go-nogo,001,14,
logos/1.jpg,properties1.xlsx,frogs/ab75.jpg,0,0,400,l,0,3,3,0,0,54,54,73,,,['l'],0,[0.2344173447781941],2018_Jul_09_0503,60.0254201414,go-nogo,001,14,
logos/1.jpg,properties1.xlsx,frogs/ab6.jpg,0,0,400,l,0,3,3,0,0,55,55,5,,,['l'],0,[0.2341388858476421],2018_Jul_09_0503,60.0254201414,go-nogo,001,14,
logos/1.jpg,properties1.xlsx,frogs/ab42.jpg,0,0,400,l,0,3,3,0,0,56,56,41,,,['l'],0,[0.2175696872509434],2018_Jul_09_0503,60.0254201414,go-nogo,001,14,
logos/1.jpg,properties1.xlsx,logos/1.jpg,0,0,400,a,0,3,3,0,0,57,57,83,,,['a'],0,[0.46749237472977256],2018_Jul_09_0503,60.0254201414,go-nogo,001,14,
logos/1.jpg,properties1.xlsx,frogs/ab33.jpg,0,0,400,l,0,3,3,0,0,58,58,32,,,['l'],0,[0.46744908864639],2018_Jul_09_0503,60.0254201414,go-nogo,001,14,
logos/1.jpg,properties1.xlsx,frogs/ab32.jpg,0,0,400,l,0,3,3,0,0,59,59,31,,,['l'],0,[0.31753956549073337],2018_Jul_09_0503,60.0254201414,go-nogo,001,14,
logos/1.jpg,properties1.xlsx,frogs/ab22.jpg,0,0,400,l,0,3,3,0,0,60,60,21,,,['l'],0,[0.38425368321622955],2018_Jul_09_0503,60.0254201414,go-nogo,001,14,
logos/1.jpg,properties1.xlsx,frogs/ab63.jpg,0,0,400,l,0,3,3,0,0,61,61,61,,,['l'],0,[1.9336808119915077],2018_Jul_09_0503,60.0254201414,go-nogo,001,14,
logos/1.jpg,properties1.xlsx,frogs/ab48.jpg,0,0,400,l,0,3,3,0,0,62,62,47,,,['l'],0,[1.4171051427838393],2018_Jul_09_0503,60.0254201414,go-nogo,001,14,
logos/1.jpg,properties1.xlsx,frogs/ab18.jpg,0,0,400,l,0,3,3,0,0,63,63,17,,,['l'],0,[1.0341130034576054],2018_Jul_09_0503,60.0254201414,go-nogo,001,14,
logos/1.jpg,properties1.xlsx,frogs/ab24.jpg,0,0,400,l,0,3,3,0,0,64,64,23,,,['l'],0,[0.20093355140124913],2018_Jul_09_0503,60.0254201414,go-nogo,001,14,
logos/1.jpg,properties1.xlsx,frogs/ab19.jpg,0,0,400,l,0,3,3,0,0,65,65,18,,,['l'],0,[0.13410117787134368],2018_Jul_09_0503,60.0254201414,go-nogo,001,14,
logos/1.jpg,properties1.xlsx,logos/1.jpg,0,0,400,a,0,3,3,0,0,66,66,86,,,['l'],0,[1.9364341638720362],2018_Jul_09_0503,60.0254201414,go-nogo,001,14,
logos/1.jpg,properties1.xlsx,frogs/ab29.jpg,0,0,400,l,0,3,3,0,0,67,67,28,,,['l'],0,[0.1009083383687539],2018_Jul_09_0503,60.0254201414,go-nogo,001,14,
logos/1.jpg,properties1.xlsx,frogs/ab81.jpg,0,0,400,l,0,3,3,0,0,68,68,79,,,['l'],0,[0.13418998128327075],2018_Jul_09_0503,60.0254201414,go-nogo,001,14,
logos/1.jpg,properties1.xlsx,frogs/ab64.jpg,0,0,400,l,0,3,3,0,0,69,69,62,,,['a'],0,[0.23407284110726323],2018_Jul_09_0503,60.0254201414,go-nogo,001,14,
logos/1.jpg,properties1.xlsx,frogs/ab56.jpg,0,0,400,l,0,3,3,0,0,70,70,55,,,['a'],0,[0.34825126455689315],2018_Jul_09_0503,60.0254201414,go-nogo,001,14,
logos/1.jpg,properties1.xlsx,frogs/ab67.jpg,0,0,400,l,0,3,3,0,0,71,71,65,,,['l'],0,[0.017705346719594672],2018_Jul_09_0503,60.0254201414,go-nogo,001,14,
logos/1.jpg,properties1.xlsx,frogs/ab20.jpg,0,0,400,l,0,3,3,0,0,72,72,19,,,['a'],0,[1.1339985407685162],2018_Jul_09_0503,60.0254201414,go-nogo,001,14,
logos/1.jpg,properties1.xlsx,frogs/ab27.jpg,0,0,400,l,0,3,3,0,0,73,73,26,,,['l'],0,[0.06756823694013292],2018_Jul_09_0503,60.0254201414,go-nogo,001,14,
logos/1.jpg,properties1.xlsx,frogs/ab2.jpg,0,0,400,l,0,3,3,0,0,74,74,1,,,['a'],0,[0.12381024631031323],2018_Jul_09_0503,60.0254201414,go-nogo,001,14,
logos/1.jpg,properties1.xlsx,frogs/ab46.jpg,0,0,400,l,0,3,3,0,0,75,75,45,,,['a'],0,[0.06755841948324814],2018_Jul_09_0503,60.0254201414,go-nogo,001,14,
logos/1.jpg,properties1.xlsx,frogs/ab68.jpg,0,0,400,l,0,3,3,0,0,76,76,66,,,['a'],0,[0.30089941340702353],2018_Jul_09_0503,60.0254201414,go-nogo,001,14,
logos/1.jpg,properties1.xlsx,frogs/ab65.jpg,0,0,400,l,0,3,3,0,0,77,77,63,,,['a'],0,[0.13430020460509695],2018_Jul_09_0503,60.0254201414,go-nogo,001,14,
logos/1.jpg,properties1.xlsx,frogs/ab74.jpg,0,0,400,l,0,3,3,0,0,78,78,72,,,['l'],0,[0.05100751705322182],2018_Jul_09_0503,60.0254201414,go-nogo,001,14,
logos/1.jpg,properties1.xlsx,frogs/ab73.jpg,0,0,400,l,0,3,3,0,0,79,79,71,,,['a'],0,[0.06761196927254787],2018_Jul_09_0503,60.0254201414,go-nogo,001,14,
logos/1.jpg,properties1.xlsx,frogs/ab39.jpg,0,0,400,l,0,3,3,0,0,80,80,38,,,['l'],0,[0.267951564208488],2018_Jul_09_0503,60.0254201414,go-nogo,001,14,
logos/1.jpg,properties1.xlsx,logos/1.jpg,0,0,400,a,0,3,3,0,0,81,81,87,,,['a'],0,[0.5179849212727277],2018_Jul_09_0503,60.0254201414,go-nogo,001,14,
logos/1.jpg,properties1.xlsx,frogs/ab72.jpg,0,0,400,l,0,3,3,0,0,82,82,70,,,['a'],0,[0.15116258832858875],2018_Jul_09_0503,60.0254201414,go-nogo,001,14,
logos/1.jpg,properties1.xlsx,logos/1.jpg,0,0,400,a,0,3,3,0,0,83,83,81,,,['a'],0,[0.2676927402135334],2018_Jul_09_0503,60.0254201414,go-nogo,001,14,
logos/1.jpg,properties1.xlsx,frogs/ab34.jpg,0,0,400,l,0,3,3,0,0,84,84,33,,,['a'],0,[0.1677183994834195],2018_Jul_09_0503,60.0254201414,go-nogo,001,14,
logos/1.jpg,properties1.xlsx,frogs/ab66.jpg,0,0,400,l,0,3,3,0,0,85,85,64,,,['a'],0,[0.05103830817824928],2018_Jul_09_0503,60.0254201414,go-nogo,001,14,
logos/1.jpg,properties1.xlsx,frogs/ab47.jpg,0,0,400,l,0,3,3,0,0,86,86,46,,,['a'],0,[2.1856361603931873],2018_Jul_09_0503,60.0254201414,go-nogo,001,14,
logos/1.jpg,properties1.xlsx,logos/1.jpg,0,0,400,a,0,3,3,0,0,87,87,82,,,['a'],0,[0.30082756742922356],2018_Jul_09_0503,60.0254201414,go-nogo,001,14,
logos/1.jpg,properties1.xlsx,frogs/ab58.jpg,0,0,400,l,0,3,3,0,0,88,88,57,,,['a'],0,[0.5537004022917245],2018_Jul_09_0503,60.0254201414,go-nogo,001,14,
logos/1.jpg,properties1.xlsx,frogs/ab3.jpg,0,0,400,l,0,3,3,0,0,89,89,2,,,['l'],0,[0.7342787846864667],2018_Jul_09_0503,60.0254201414,go-nogo,001,14,
logos/1.jpg,properties1.xlsx,,,,,,0,3,3,0,,,,,,,,,,2018_Jul_09_0503,60.0254201414,go-nogo,001,14,
