pix,source,image1,x,y,size,answer,trials_2.thisRepN,trials_2.thisTrialN,trials_2.thisN,trials_2.thisIndex,trials.thisRepN,trials.thisTrialN,trials.thisN,trials.thisIndex,key_resp_3.keys,key_resp_3.rt,key_resp_2.keys,key_resp_2.corr,key_resp_2.rt,date,frameRate,expName,session,participant,
logos/1.jpg,properties1.xlsx,frogs/ab78.jpg,0,0,400,l,0,0,0,0,0,0,0,76,space,13.6218719669,['a'],0,[0.3342551335299504],2018_Jul_09_0511,60.0434335269,go-nogo,001,15,
logos/1.jpg,properties1.xlsx,frogs/ab64.jpg,0,0,400,l,0,0,0,0,0,1,1,62,,,['l'],0,[0.0012088865842088126],2018_Jul_09_0511,60.0434335269,go-nogo,001,15,
logos/1.jpg,properties1.xlsx,frogs/ab4.jpg,0,0,400,l,0,0,0,0,0,2,2,3,,,['l'],0,[0.06789265943370992],2018_Jul_09_0511,60.0434335269,go-nogo,001,15,
logos/1.jpg,properties1.xlsx,frogs/ab24.jpg,0,0,400,l,0,0,0,0,0,3,3,23,,,['a'],0,[0.018041817922494374],2018_Jul_09_0511,60.0434335269,go-nogo,001,15,
logos/1.jpg,properties1.xlsx,logos/1.jpg,0,0,400,a,0,0,0,0,0,4,4,88,,,['a'],0,[0.3365711620936054],2018_Jul_09_0511,60.0434335269,go-nogo,001,15,
logos/1.jpg,properties1.xlsx,logos/1.jpg,0,0,400,a,0,0,0,0,0,5,5,81,,,['l'],0,[0.05127437352348352],2018_Jul_09_0511,60.0434335269,go-nogo,001,15,
logos/1.jpg,properties1.xlsx,frogs/ab48.jpg,0,0,400,l,0,0,0,0,0,6,6,47,,,['l'],0,[0.26822243691276526],2018_Jul_09_0511,60.0434335269,go-nogo,001,15,
logos/1.jpg,properties1.xlsx,frogs/ab30.jpg,0,0,400,l,0,0,0,0,0,7,7,29,,,['l'],0,[0.21719082245544996],2018_Jul_09_0511,60.0434335269,go-nogo,001,15,
logos/1.jpg,properties1.xlsx,frogs/ab51.jpg,0,0,400,l,0,0,0,0,0,8,8,50,,,['l'],0,[1.851038754430192],2018_Jul_09_0511,60.0434335269,go-nogo,001,15,
logos/1.jpg,properties1.xlsx,frogs/ab74.jpg,0,0,400,l,0,0,0,0,0,9,9,72,,,['l'],0,[0.06793773051322205],2018_Jul_09_0511,60.0434335269,go-nogo,001,15,
logos/1.jpg,properties1.xlsx,frogs/ab13.jpg,0,0,400,l,0,0,0,0,0,10,10,12,,,['l'],0,[1.3839854880061466],2018_Jul_09_0511,60.0434335269,go-nogo,001,15,
logos/1.jpg,properties1.xlsx,frogs/ab55.jpg,0,0,400,l,0,0,0,0,0,11,11,54,,,['l'],0,[0.5341190278049908],2018_Jul_09_0511,60.0434335269,go-nogo,001,15,
logos/1.jpg,properties1.xlsx,frogs/ab32.jpg,0,0,400,l,0,0,0,0,0,12,12,31,,,['l'],0,[0.0014016658460604958],2018_Jul_09_0511,60.0434335269,go-nogo,001,15,
logos/1.jpg,properties1.xlsx,logos/1.jpg,0,0,400,a,0,0,0,0,0,13,13,83,,,['l'],0,[0.7362311209071777],2018_Jul_09_0511,60.0434335269,go-nogo,001,15,
logos/1.jpg,properties1.xlsx,frogs/ab2.jpg,0,0,400,l,0,0,0,0,0,14,14,1,,,['l'],0,[1.1436593697653734],2018_Jul_09_0511,60.0434335269,go-nogo,001,15,
logos/1.jpg,properties1.xlsx,frogs/ab17.jpg,0,0,400,l,0,0,0,0,0,15,15,16,,,['l'],0,[3.4164518353063613],2018_Jul_09_0511,60.0434335269,go-nogo,001,15,
logos/1.jpg,properties1.xlsx,frogs/ab58.jpg,0,0,400,l,0,0,0,0,0,16,16,57,,,['l'],0,[0.8345637142119813],2018_Jul_09_0511,60.0434335269,go-nogo,001,15,
logos/1.jpg,properties1.xlsx,frogs/ab16.jpg,0,0,400,l,0,0,0,0,0,17,17,15,,,['l'],0,[0.6508856912696501],2018_Jul_09_0511,60.0434335269,go-nogo,001,15,
logos/1.jpg,properties1.xlsx,frogs/ab63.jpg,0,0,400,l,0,0,0,0,0,18,18,61,,,['l'],0,[0.584210843386245],2018_Jul_09_0511,60.0434335269,go-nogo,001,15,
logos/1.jpg,properties1.xlsx,frogs/ab72.jpg,0,0,400,l,0,0,0,0,0,19,19,70,,,['l'],0,[0.5676005899440497],2018_Jul_09_0511,60.0434335269,go-nogo,001,15,
logos/1.jpg,properties1.xlsx,frogs/ab34.jpg,0,0,400,l,0,0,0,0,0,20,20,33,,,['l'],0,[0.38422690832521766],2018_Jul_09_0511,60.0434335269,go-nogo,001,15,
logos/1.jpg,properties1.xlsx,frogs/ab26.jpg,0,0,400,l,0,0,0,0,0,21,21,25,,,['l'],0,[0.35079041726567084],2018_Jul_09_0511,60.0434335269,go-nogo,001,15,
logos/1.jpg,properties1.xlsx,logos/1.jpg,0,0,400,a,0,0,0,0,0,22,22,86,,,['a'],0,[0.43749467291490873],2018_Jul_09_0511,60.0434335269,go-nogo,001,15,
logos/1.jpg,properties1.xlsx,frogs/ab9.jpg,0,0,400,l,0,0,0,0,0,23,23,8,,,['l'],0,[0.5499791378970258],2018_Jul_09_0511,60.0434335269,go-nogo,001,15,
logos/1.jpg,properties1.xlsx,frogs/ab6.jpg,0,0,400,l,0,0,0,0,0,24,24,5,,,['l'],0,[0.8009152552185697],2018_Jul_09_0511,60.0434335269,go-nogo,001,15,
logos/1.jpg,properties1.xlsx,frogs/ab12.jpg,0,0,400,l,0,0,0,0,0,25,25,11,,,['l'],0,[1.6338251733104698],2018_Jul_09_0511,60.0434335269,go-nogo,001,15,
logos/1.jpg,properties1.xlsx,frogs/ab66.jpg,0,0,400,l,0,0,0,0,0,26,26,64,,,['l'],0,[1.8170605179620907],2018_Jul_09_0511,60.0434335269,go-nogo,001,15,
logos/1.jpg,properties1.xlsx,frogs/ab38.jpg,0,0,400,l,0,0,0,0,0,27,27,37,,,['l'],0,[2.3336375259095803],2018_Jul_09_0511,60.0434335269,go-nogo,001,15,
logos/1.jpg,properties1.xlsx,frogs/ab75.jpg,0,0,400,l,0,0,0,0,0,28,28,73,,,['l'],0,[1.119125085620908],2018_Jul_09_0511,60.0434335269,go-nogo,001,15,
logos/1.jpg,properties1.xlsx,frogs/ab42.jpg,0,0,400,l,0,0,0,0,0,29,29,41,,,['l'],0,[0.36660634876898257],2018_Jul_09_0511,60.0434335269,go-nogo,001,15,
logos/1.jpg,properties1.xlsx,frogs/ab71.jpg,0,0,400,l,0,0,0,0,0,30,30,69,,,['l'],0,[0.18354950343928067],2018_Jul_09_0511,60.0434335269,go-nogo,001,15,
logos/1.jpg,properties1.xlsx,logos/1.jpg,0,0,400,a,0,0,0,0,0,31,31,87,,,['a'],0,[0.41759913963323925],2018_Jul_09_0511,60.0434335269,go-nogo,001,15,
logos/1.jpg,properties1.xlsx,frogs/ab19.jpg,0,0,400,l,0,0,0,0,0,32,32,18,,,['l'],0,[0.03448428201954812],2018_Jul_09_0511,60.0434335269,go-nogo,001,15,
logos/1.jpg,properties1.xlsx,frogs/ab37.jpg,0,0,400,l,0,0,0,0,0,33,33,36,,,['a'],0,[0.01782628000364639],2018_Jul_09_0511,60.0434335269,go-nogo,001,15,
logos/1.jpg,properties1.xlsx,frogs/ab1.jpg,0,0,400,l,0,0,0,0,0,34,34,0,,,['l'],0,[0.6837848994036904],2018_Jul_09_0511,60.0434335269,go-nogo,001,15,
logos/1.jpg,properties1.xlsx,frogs/ab53.jpg,0,0,400,l,0,0,0,0,0,35,35,52,,,['l'],0,[1.034308906440856],2018_Jul_09_0511,60.0434335269,go-nogo,001,15,
logos/1.jpg,properties1.xlsx,frogs/ab81.jpg,0,0,400,l,0,0,0,0,0,36,36,79,,,['l'],0,[0.7507872935238993],2018_Jul_09_0511,60.0434335269,go-nogo,001,15,
logos/1.jpg,properties1.xlsx,frogs/ab29.jpg,0,0,400,l,0,0,0,0,0,37,37,28,,,['l'],0,[0.7013612803784781],2018_Jul_09_0511,60.0434335269,go-nogo,001,15,
logos/1.jpg,properties1.xlsx,frogs/ab69.jpg,0,0,400,l,0,0,0,0,0,38,38,67,,,['l'],0,[0.5176444338358124],2018_Jul_09_0511,60.0434335269,go-nogo,001,15,
logos/1.jpg,properties1.xlsx,frogs/ab76.jpg,0,0,400,l,0,0,0,0,0,39,39,74,,,['l'],0,[0.6509071111868252],2018_Jul_09_0511,60.0434335269,go-nogo,001,15,
logos/1.jpg,properties1.xlsx,frogs/ab23.jpg,0,0,400,l,0,0,0,0,0,40,40,22,,,['l'],0,[0.08421106651076116],2018_Jul_09_0511,60.0434335269,go-nogo,001,15,
logos/1.jpg,properties1.xlsx,frogs/ab62.jpg,0,0,400,l,0,0,0,0,0,41,41,60,,,['l'],0,[0.18458390695013804],2018_Jul_09_0511,60.0434335269,go-nogo,001,15,
logos/1.jpg,properties1.xlsx,frogs/ab61.jpg,0,0,400,l,0,0,0,0,0,42,42,59,,,['l'],0,[0.23468152375426143],2018_Jul_09_0511,60.0434335269,go-nogo,001,15,
logos/1.jpg,properties1.xlsx,frogs/ab79.jpg,0,0,400,l,0,0,0,0,0,43,43,77,,,['l'],0,[0.15115232462267159],2018_Jul_09_0511,60.0434335269,go-nogo,001,15,
logos/1.jpg,properties1.xlsx,frogs/ab60.jpg,0,0,400,l,0,0,0,0,0,44,44,58,,,['l'],0,[0.18414479863713495],2018_Jul_09_0511,60.0434335269,go-nogo,001,15,
logos/1.jpg,properties1.xlsx,logos/1.jpg,0,0,400,a,0,0,0,0,0,45,45,84,,,['a'],0,[0.250972263442236],2018_Jul_09_0511,60.0434335269,go-nogo,001,15,
logos/1.jpg,properties1.xlsx,frogs/ab49.jpg,0,0,400,l,0,0,0,0,0,46,46,48,,,['l'],0,[1.1670360858697677],2018_Jul_09_0511,60.0434335269,go-nogo,001,15,
logos/1.jpg,properties1.xlsx,frogs/ab45.jpg,0,0,400,l,0,0,0,0,0,47,47,44,,,['l'],0,[0.5342979733686661],2018_Jul_09_0511,60.0434335269,go-nogo,001,15,
logos/1.jpg,properties1.xlsx,frogs/ab54.jpg,0,0,400,l,0,0,0,0,0,48,48,53,,,['l'],0,[0.3676054986717645],2018_Jul_09_0511,60.0434335269,go-nogo,001,15,
logos/1.jpg,properties1.xlsx,frogs/ab11.jpg,0,0,400,l,0,0,0,0,0,49,49,10,,,['l'],0,[0.35091625927452696],2018_Jul_09_0511,60.0434335269,go-nogo,001,15,
logos/1.jpg,properties1.xlsx,frogs/ab5.jpg,0,0,400,l,0,0,0,0,0,50,50,4,,,['l'],0,[0.700667364304536],2018_Jul_09_0511,60.0434335269,go-nogo,001,15,
logos/1.jpg,properties1.xlsx,logos/1.jpg,0,0,400,a,0,0,0,0,0,51,51,80,,,['l'],0,[1.0704407371158595],2018_Jul_09_0511,60.0434335269,go-nogo,001,15,
logos/1.jpg,properties1.xlsx,frogs/ab73.jpg,0,0,400,l,0,0,0,0,0,52,52,71,,,['l'],0,[0.8359073677784181],2018_Jul_09_0511,60.0434335269,go-nogo,001,15,
logos/1.jpg,properties1.xlsx,frogs/ab56.jpg,0,0,400,l,0,0,0,0,0,53,53,55,,,['l'],0,[2.2299428132828325],2018_Jul_09_0511,60.0434335269,go-nogo,001,15,
logos/1.jpg,properties1.xlsx,frogs/ab31.jpg,0,0,400,l,0,0,0,0,0,54,54,30,,,['l'],0,[1.5032631905414746],2018_Jul_09_0511,60.0434335269,go-nogo,001,15,
logos/1.jpg,properties1.xlsx,logos/1.jpg,0,0,400,a,0,0,0,0,0,55,55,85,,,['a'],0,[0.2668520084480406],2018_Jul_09_0511,60.0434335269,go-nogo,001,15,
logos/1.jpg,properties1.xlsx,frogs/ab40.jpg,0,0,400,l,0,0,0,0,0,56,56,39,,,['l'],0,[0.13426316599361598],2018_Jul_09_0511,60.0434335269,go-nogo,001,15,
logos/1.jpg,properties1.xlsx,frogs/ab46.jpg,0,0,400,l,0,0,0,0,0,57,57,45,,,['l'],0,[0.31747664447902935],2018_Jul_09_0511,60.0434335269,go-nogo,001,15,
logos/1.jpg,properties1.xlsx,frogs/ab43.jpg,0,0,400,l,0,0,0,0,0,58,58,42,,,['l'],0,[0.283735365846951],2018_Jul_09_0511,60.0434335269,go-nogo,001,15,
logos/1.jpg,properties1.xlsx,frogs/ab39.jpg,0,0,400,l,0,0,0,0,0,59,59,38,,,['l'],0,[0.2183519604805042],2018_Jul_09_0511,60.0434335269,go-nogo,001,15,
logos/1.jpg,properties1.xlsx,frogs/ab10.jpg,0,0,400,l,0,0,0,0,0,60,60,9,,,['l'],0,[0.30180306616966845],2018_Jul_09_0511,60.0434335269,go-nogo,001,15,
logos/1.jpg,properties1.xlsx,frogs/ab70.jpg,0,0,400,l,0,0,0,0,0,61,61,68,,,['l'],0,[0.8679537954521948],2018_Jul_09_0511,60.0434335269,go-nogo,001,15,
logos/1.jpg,properties1.xlsx,frogs/ab65.jpg,0,0,400,l,0,0,0,0,0,62,62,63,,,['l'],0,[0.06804259886121145],2018_Jul_09_0511,60.0434335269,go-nogo,001,15,
logos/1.jpg,properties1.xlsx,frogs/ab52.jpg,0,0,400,l,0,0,0,0,0,63,63,51,,,['l'],0,[0.4347520309893298],2018_Jul_09_0511,60.0434335269,go-nogo,001,15,
logos/1.jpg,properties1.xlsx,frogs/ab33.jpg,0,0,400,l,0,0,0,0,0,64,64,32,,,['l'],0,[0.3672270801253035],2018_Jul_09_0511,60.0434335269,go-nogo,001,15,
logos/1.jpg,properties1.xlsx,frogs/ab50.jpg,0,0,400,l,0,0,0,0,0,65,65,49,,,['l'],0,[0.48326680515310727],2018_Jul_09_0511,60.0434335269,go-nogo,001,15,
logos/1.jpg,properties1.xlsx,frogs/ab8.jpg,0,0,400,l,0,0,0,0,0,66,66,7,,,['l'],0,[0.6177593427637476],2018_Jul_09_0511,60.0434335269,go-nogo,001,15,
logos/1.jpg,properties1.xlsx,frogs/ab80.jpg,0,0,400,l,0,0,0,0,0,67,67,78,,,['l'],0,[1.0005868164880667],2018_Jul_09_0511,60.0434335269,go-nogo,001,15,
logos/1.jpg,properties1.xlsx,logos/1.jpg,0,0,400,a,0,0,0,0,0,68,68,82,,,['a'],0,[0.16929454841010738],2018_Jul_09_0511,60.0434335269,go-nogo,001,15,
logos/1.jpg,properties1.xlsx,frogs/ab36.jpg,0,0,400,l,0,0,0,0,0,69,69,35,,,['l'],0,[0.03443742595118238],2018_Jul_09_0511,60.0434335269,go-nogo,001,15,
logos/1.jpg,properties1.xlsx,frogs/ab21.jpg,0,0,400,l,0,0,0,0,0,70,70,20,,,['l'],0,[0.700928865793685],2018_Jul_09_0511,60.0434335269,go-nogo,001,15,
logos/1.jpg,properties1.xlsx,frogs/ab20.jpg,0,0,400,l,0,0,0,0,0,71,71,19,,,['l'],0,[1.0179994243371766],2018_Jul_09_0511,60.0434335269,go-nogo,001,15,
logos/1.jpg,properties1.xlsx,frogs/ab25.jpg,0,0,400,l,0,0,0,0,0,72,72,24,,,['l'],0,[2.800195902993437],2018_Jul_09_0511,60.0434335269,go-nogo,001,15,
logos/1.jpg,properties1.xlsx,frogs/ab22.jpg,0,0,400,l,0,0,0,0,0,73,73,21,,,['l'],0,[0.36793393740663305],2018_Jul_09_0511,60.0434335269,go-nogo,001,15,
logos/1.jpg,properties1.xlsx,frogs/ab35.jpg,0,0,400,l,0,0,0,0,0,74,74,34,,,['l'],0,[1.2846631160136894],2018_Jul_09_0511,60.0434335269,go-nogo,001,15,
logos/1.jpg,properties1.xlsx,logos/1.jpg,0,0,400,a,0,0,0,0,0,75,75,89,,,['a'],0,[0.2960397696515429],2018_Jul_09_0511,60.0434335269,go-nogo,001,15,
logos/1.jpg,properties1.xlsx,frogs/ab15.jpg,0,0,400,l,0,0,0,0,0,76,76,14,,,['l'],0,[0.0012401239655446261],2018_Jul_09_0511,60.0434335269,go-nogo,001,15,
logos/1.jpg,properties1.xlsx,frogs/ab44.jpg,0,0,400,l,0,0,0,0,0,77,77,43,,,['l'],0,[0.2844551643138402],2018_Jul_09_0511,60.0434335269,go-nogo,001,15,
logos/1.jpg,properties1.xlsx,frogs/ab28.jpg,0,0,400,l,0,0,0,0,0,78,78,27,,,['l'],0,[0.251083379262127],2018_Jul_09_0511,60.0434335269,go-nogo,001,15,
logos/1.jpg,properties1.xlsx,frogs/ab27.jpg,0,0,400,l,0,0,0,0,0,79,79,26,,,['l'],0,[0.11786711172317155],2018_Jul_09_0511,60.0434335269,go-nogo,001,15,
logos/1.jpg,properties1.xlsx,frogs/ab41.jpg,0,0,400,l,0,0,0,0,0,80,80,40,,,['l'],0,[0.2844051845095237],2018_Jul_09_0511,60.0434335269,go-nogo,001,15,
logos/1.jpg,properties1.xlsx,frogs/ab57.jpg,0,0,400,l,0,0,0,0,0,81,81,56,,,['l'],0,[0.18432017421582714],2018_Jul_09_0511,60.0434335269,go-nogo,001,15,
logos/1.jpg,properties1.xlsx,frogs/ab14.jpg,0,0,400,l,0,0,0,0,0,82,82,13,,,['l'],0,[0.30100562049483415],2018_Jul_09_0511,60.0434335269,go-nogo,001,15,
logos/1.jpg,properties1.xlsx,frogs/ab77.jpg,0,0,400,l,0,0,0,0,0,83,83,75,,,['l'],0,[0.35087520444358233],2018_Jul_09_0511,60.0434335269,go-nogo,001,15,
logos/1.jpg,properties1.xlsx,frogs/ab68.jpg,0,0,400,l,0,0,0,0,0,84,84,66,,,['l'],0,[0.7174806607145001],2018_Jul_09_0511,60.0434335269,go-nogo,001,15,
logos/1.jpg,properties1.xlsx,frogs/ab47.jpg,0,0,400,l,0,0,0,0,0,85,85,46,,,['l'],0,[1.4426845403941115],2018_Jul_09_0511,60.0434335269,go-nogo,001,15,
logos/1.jpg,properties1.xlsx,frogs/ab7.jpg,0,0,400,l,0,0,0,0,0,86,86,6,,,['l'],0,[0.4342196567886276],2018_Jul_09_0511,60.0434335269,go-nogo,001,15,
logos/1.jpg,properties1.xlsx,frogs/ab18.jpg,0,0,400,l,0,0,0,0,0,87,87,17,,,['l'],0,[0.5007445652590832],2018_Jul_09_0511,60.0434335269,go-nogo,001,15,
logos/1.jpg,properties1.xlsx,frogs/ab67.jpg,0,0,400,l,0,0,0,0,0,88,88,65,,,['l'],0,[0.4350229036936071],2018_Jul_09_0511,60.0434335269,go-nogo,001,15,
logos/1.jpg,properties1.xlsx,frogs/ab3.jpg,0,0,400,l,0,0,0,0,0,89,89,2,,,['l'],0,[0.30127560070104664],2018_Jul_09_0511,60.0434335269,go-nogo,001,15,
logos/1.jpg,properties1.xlsx,,,,,,0,0,0,0,,,,,,,,,,2018_Jul_09_0511,60.0434335269,go-nogo,001,15,
logos/3.jpg,properties3.xlsx,frogs/ab38.jpg,0,0,400,l,0,1,1,2,0,0,0,37,space,7.17731987746,['l'],0,[0.000948723842157051],2018_Jul_09_0511,60.0434335269,go-nogo,001,15,
logos/3.jpg,properties3.xlsx,logos/3.jpg,0,0,400,a,0,1,1,2,0,1,1,82,,,['l'],0,[1.9838935608640895],2018_Jul_09_0511,60.0434335269,go-nogo,001,15,
logos/3.jpg,properties3.xlsx,frogs/ab64.jpg,0,0,400,l,0,1,1,2,0,2,2,62,,,['l'],0,[0.0009554175703669898],2018_Jul_09_0511,60.0434335269,go-nogo,001,15,
logos/3.jpg,properties3.xlsx,frogs/ab8.jpg,0,0,400,l,0,1,1,2,0,3,3,7,,,['l'],0,[0.21797086445440073],2018_Jul_09_0511,60.0434335269,go-nogo,001,15,
logos/3.jpg,properties3.xlsx,frogs/ab24.jpg,0,0,400,l,0,1,1,2,0,4,4,23,,,['l'],0,[0.20106207090429962],2018_Jul_09_0511,60.0434335269,go-nogo,001,15,
logos/3.jpg,properties3.xlsx,frogs/ab26.jpg,0,0,400,l,0,1,1,2,0,5,5,25,,,['l'],0,[0.21756879474560264],2018_Jul_09_0511,60.0434335269,go-nogo,001,15,
logos/3.jpg,properties3.xlsx,frogs/ab67.jpg,0,0,400,l,0,1,1,2,0,6,6,65,,,['l'],0,[0.21759646214195527],2018_Jul_09_0511,60.0434335269,go-nogo,001,15,
logos/3.jpg,properties3.xlsx,frogs/ab3.jpg,0,0,400,l,0,1,1,2,0,7,7,2,,,['l'],0,[0.21755986978678266],2018_Jul_09_0511,60.0434335269,go-nogo,001,15,
logos/3.jpg,properties3.xlsx,frogs/ab62.jpg,0,0,400,l,0,1,1,2,0,8,8,60,,,['l'],0,[0.23429953523009317],2018_Jul_09_0511,60.0434335269,go-nogo,001,15,
logos/3.jpg,properties3.xlsx,frogs/ab13.jpg,0,0,400,l,0,1,1,2,0,9,9,12,,,['l'],0,[0.20098129996767966],2018_Jul_09_0511,60.0434335269,go-nogo,001,15,
logos/3.jpg,properties3.xlsx,frogs/ab23.jpg,0,0,400,l,0,1,1,2,0,10,10,22,,,['l'],0,[0.18429339932481525],2018_Jul_09_0511,60.0434335269,go-nogo,001,15,
logos/3.jpg,properties3.xlsx,frogs/ab15.jpg,0,0,400,l,0,1,1,2,0,11,11,14,,,['l'],0,[0.15087431194115197],2018_Jul_09_0511,60.0434335269,go-nogo,001,15,
logos/3.jpg,properties3.xlsx,frogs/ab18.jpg,0,0,400,l,0,1,1,2,0,12,12,17,,,['l'],0,[0.13422478864958975],2018_Jul_09_0511,60.0434335269,go-nogo,001,15,
logos/3.jpg,properties3.xlsx,frogs/ab65.jpg,0,0,400,l,0,1,1,2,0,13,13,63,,,['l'],0,[0.1842585919512203],2018_Jul_09_0511,60.0434335269,go-nogo,001,15,
logos/3.jpg,properties3.xlsx,frogs/ab47.jpg,0,0,400,l,0,1,1,2,0,14,14,46,,,['l'],0,[0.07562748085911153],2018_Jul_09_0511,60.0434335269,go-nogo,001,15,
logos/3.jpg,properties3.xlsx,frogs/ab58.jpg,0,0,400,l,0,1,1,2,0,15,15,57,,,['l'],0,[0.30064192815189017],2018_Jul_09_0511,60.0434335269,go-nogo,001,15,
logos/3.jpg,properties3.xlsx,frogs/ab69.jpg,0,0,400,l,0,1,1,2,0,16,16,67,,,['l'],0,[0.30088424096175004],2018_Jul_09_0511,60.0434335269,go-nogo,001,15,
logos/3.jpg,properties3.xlsx,frogs/ab20.jpg,0,0,400,l,0,1,1,2,0,17,17,19,,,['l'],0,[0.2671603660128312],2018_Jul_09_0511,60.0434335269,go-nogo,001,15,
logos/3.jpg,properties3.xlsx,frogs/ab75.jpg,0,0,400,l,0,1,1,2,0,18,18,73,,,['l'],0,[0.2176611681425129],2018_Jul_09_0511,60.0434335269,go-nogo,001,15,
logos/3.jpg,properties3.xlsx,logos/3.jpg,0,0,400,a,0,1,1,2,0,19,19,89,,,['l'],0,[0.9173606199328788],2018_Jul_09_0511,60.0434335269,go-nogo,001,15,
logos/3.jpg,properties3.xlsx,frogs/ab44.jpg,0,0,400,l,0,1,1,2,0,20,20,43,,,['l'],0,[0.23427097534295171],2018_Jul_09_0511,60.0434335269,go-nogo,001,15,
logos/3.jpg,properties3.xlsx,frogs/ab81.jpg,0,0,400,l,0,1,1,2,0,21,21,79,,,['l'],0,[0.16728687740396708],2018_Jul_09_0511,60.0434335269,go-nogo,001,15,
logos/3.jpg,properties3.xlsx,frogs/ab63.jpg,0,0,400,l,0,1,1,2,0,22,22,61,,,['l'],0,[0.2844172332115704],2018_Jul_09_0511,60.0434335269,go-nogo,001,15,
logos/3.jpg,properties3.xlsx,frogs/ab33.jpg,0,0,400,l,0,1,1,2,0,23,23,32,,,['l'],0,[0.25112711159454193],2018_Jul_09_0511,60.0434335269,go-nogo,001,15,
logos/3.jpg,properties3.xlsx,frogs/ab31.jpg,0,0,400,l,0,1,1,2,0,24,24,30,,,['l'],0,[0.25123064119543415],2018_Jul_09_0511,60.0434335269,go-nogo,001,15,
logos/3.jpg,properties3.xlsx,frogs/ab39.jpg,0,0,400,l,0,1,1,2,0,25,25,38,,,['l'],0,[0.1845205396966776],2018_Jul_09_0511,60.0434335269,go-nogo,001,15,
logos/3.jpg,properties3.xlsx,frogs/ab10.jpg,0,0,400,l,0,1,1,2,0,26,26,9,,,['l'],0,[0.28467694971186575],2018_Jul_09_0511,60.0434335269,go-nogo,001,15,
logos/3.jpg,properties3.xlsx,frogs/ab53.jpg,0,0,400,l,0,1,1,2,0,27,27,52,,,['l'],0,[0.6351607944088755],2018_Jul_09_0511,60.0434335269,go-nogo,001,15,
logos/3.jpg,properties3.xlsx,frogs/ab27.jpg,0,0,400,l,0,1,1,2,0,28,28,26,,,['l'],0,[0.2510646368318703],2018_Jul_09_0511,60.0434335269,go-nogo,001,15,
logos/3.jpg,properties3.xlsx,frogs/ab25.jpg,0,0,400,l,0,1,1,2,0,29,29,24,,,['l'],0,[0.28432352107483894],2018_Jul_09_0511,60.0434335269,go-nogo,001,15,
logos/3.jpg,properties3.xlsx,frogs/ab56.jpg,0,0,400,l,0,1,1,2,0,30,30,55,,,['l'],0,[0.29667522719682893],2018_Jul_09_0511,60.0434335269,go-nogo,001,15,
logos/3.jpg,properties3.xlsx,frogs/ab78.jpg,0,0,400,l,0,1,1,2,0,31,31,76,,,['l'],0,[0.31763952509936644],2018_Jul_09_0511,60.0434335269,go-nogo,001,15,
logos/3.jpg,properties3.xlsx,frogs/ab7.jpg,0,0,400,l,0,1,1,2,0,32,32,6,,,['l'],0,[0.2842851437308127],2018_Jul_09_0511,60.0434335269,go-nogo,001,15,
logos/3.jpg,properties3.xlsx,frogs/ab74.jpg,0,0,400,l,0,1,1,2,0,33,33,72,,,['l'],0,[0.28417492040171055],2018_Jul_09_0511,60.0434335269,go-nogo,001,15,
logos/3.jpg,properties3.xlsx,frogs/ab43.jpg,0,0,400,l,0,1,1,2,0,34,34,42,,,['l'],0,[0.11753822673927061],2018_Jul_09_0511,60.0434335269,go-nogo,001,15,
logos/3.jpg,properties3.xlsx,logos/3.jpg,0,0,400,a,0,1,1,2,0,35,35,85,,,['l'],0,[0.5508479832933517],2018_Jul_09_0511,60.0434335269,go-nogo,001,15,
logos/3.jpg,properties3.xlsx,frogs/ab51.jpg,0,0,400,l,0,1,1,2,0,36,36,50,,,['l'],0,[0.21761208083626116],2018_Jul_09_0511,60.0434335269,go-nogo,001,15,
logos/3.jpg,properties3.xlsx,frogs/ab73.jpg,0,0,400,l,0,1,1,2,0,37,37,71,,,['l'],0,[0.18470082399289822],2018_Jul_09_0511,60.0434335269,go-nogo,001,15,
logos/3.jpg,properties3.xlsx,frogs/ab34.jpg,0,0,400,l,0,1,1,2,0,38,38,33,,,['l'],0,[0.08363362123782281],2018_Jul_09_0511,60.0434335269,go-nogo,001,15,
logos/3.jpg,properties3.xlsx,frogs/ab41.jpg,0,0,400,l,0,1,1,2,0,39,39,40,,,['l'],0,[0.1345094950447674],2018_Jul_09_0511,60.0434335269,go-nogo,001,15,
logos/3.jpg,properties3.xlsx,frogs/ab71.jpg,0,0,400,l,0,1,1,2,0,40,40,69,,,['l'],0,[0.1675354376930045],2018_Jul_09_0511,60.0434335269,go-nogo,001,15,
logos/3.jpg,properties3.xlsx,frogs/ab48.jpg,0,0,400,l,0,1,1,2,0,41,41,47,,,['l'],0,[0.633870244389982],2018_Jul_09_0511,60.0434335269,go-nogo,001,15,
logos/3.jpg,properties3.xlsx,frogs/ab57.jpg,0,0,400,l,0,1,1,2,0,42,42,56,,,['l'],0,[0.03447758829861414],2018_Jul_09_0511,60.0434335269,go-nogo,001,15,
logos/3.jpg,properties3.xlsx,logos/3.jpg,0,0,400,a,0,1,1,2,0,43,43,88,,,['l'],0,[0.41814847126806853],2018_Jul_09_0511,60.0434335269,go-nogo,001,15,
logos/3.jpg,properties3.xlsx,frogs/ab5.jpg,0,0,400,l,0,1,1,2,0,44,44,4,,,['l'],0,[0.15110323730914388],2018_Jul_09_0511,60.0434335269,go-nogo,001,15,
logos/3.jpg,properties3.xlsx,frogs/ab2.jpg,0,0,400,l,0,1,1,2,0,45,45,1,,,['l'],0,[0.0011700629911501892],2018_Jul_09_0511,60.0434335269,go-nogo,001,15,
logos/3.jpg,properties3.xlsx,frogs/ab68.jpg,0,0,400,l,0,1,1,2,0,46,46,66,,,['l'],0,[0.2675151333969552],2018_Jul_09_0511,60.0434335269,go-nogo,001,15,
logos/3.jpg,properties3.xlsx,frogs/ab50.jpg,0,0,400,l,0,1,1,2,0,47,47,49,,,['l'],0,[0.0675923343442264],2018_Jul_09_0511,60.0434335269,go-nogo,001,15,
logos/3.jpg,properties3.xlsx,frogs/ab79.jpg,0,0,400,l,0,1,1,2,0,48,48,77,,,['l'],0,[0.4507723442147835],2018_Jul_09_0511,60.0434335269,go-nogo,001,15,
logos/3.jpg,properties3.xlsx,logos/3.jpg,0,0,400,a,0,1,1,2,0,49,49,83,,,['a'],0,[0.08363585247570882],2018_Jul_09_0511,60.0434335269,go-nogo,001,15,
logos/3.jpg,properties3.xlsx,logos/3.jpg,0,0,400,a,0,1,1,2,0,50,50,87,,,['l'],0,[0.9497314701002324],2018_Jul_09_0511,60.0434335269,go-nogo,001,15,
logos/3.jpg,properties3.xlsx,frogs/ab37.jpg,0,0,400,l,0,1,1,2,0,51,51,36,,,['l'],0,[0.13419265877018915],2018_Jul_09_0511,60.0434335269,go-nogo,001,15,
logos/3.jpg,properties3.xlsx,frogs/ab66.jpg,0,0,400,l,0,1,1,2,0,52,52,64,,,['l'],0,[0.16766663468297338],2018_Jul_09_0511,60.0434335269,go-nogo,001,15,
logos/3.jpg,properties3.xlsx,frogs/ab80.jpg,0,0,400,l,0,1,1,2,0,53,53,78,,,['l'],0,[0.18424475826031994],2018_Jul_09_0511,60.0434335269,go-nogo,001,15,
logos/3.jpg,properties3.xlsx,frogs/ab19.jpg,0,0,400,l,0,1,1,2,0,54,54,18,,,['l'],0,[0.23425357165979221],2018_Jul_09_0511,60.0434335269,go-nogo,001,15,
logos/3.jpg,properties3.xlsx,frogs/ab11.jpg,0,0,400,l,0,1,1,2,0,55,55,10,,,['l'],0,[0.2348801042389823],2018_Jul_09_0511,60.0434335269,go-nogo,001,15,
logos/3.jpg,properties3.xlsx,frogs/ab60.jpg,0,0,400,l,0,1,1,2,0,56,56,58,,,['l'],0,[0.18420191841869382],2018_Jul_09_0511,60.0434335269,go-nogo,001,15,
logos/3.jpg,properties3.xlsx,frogs/ab6.jpg,0,0,400,l,0,1,1,2,0,57,57,5,,,['l'],0,[0.217571472239797],2018_Jul_09_0511,60.0434335269,go-nogo,001,15,
logos/3.jpg,properties3.xlsx,frogs/ab54.jpg,0,0,400,l,0,1,1,2,0,58,58,53,,,['l'],0,[0.20080994063027902],2018_Jul_09_0511,60.0434335269,go-nogo,001,15,
logos/3.jpg,properties3.xlsx,frogs/ab29.jpg,0,0,400,l,0,1,1,2,0,59,59,28,,,['l'],0,[0.23429775024123956],2018_Jul_09_0511,60.0434335269,go-nogo,001,15,
logos/3.jpg,properties3.xlsx,frogs/ab21.jpg,0,0,400,l,0,1,1,2,0,60,60,20,,,['l'],0,[0.18369899661047384],2018_Jul_09_0511,60.0434335269,go-nogo,001,15,
logos/3.jpg,properties3.xlsx,logos/3.jpg,0,0,400,a,0,1,1,2,0,61,61,80,,,['l'],0,[0.4842686325428076],2018_Jul_09_0511,60.0434335269,go-nogo,001,15,
logos/3.jpg,properties3.xlsx,frogs/ab70.jpg,0,0,400,l,0,1,1,2,0,62,62,68,,,['l'],0,[0.11764800381934037],2018_Jul_09_0511,60.0434335269,go-nogo,001,15,
logos/3.jpg,properties3.xlsx,frogs/ab17.jpg,0,0,400,l,0,1,1,2,0,63,63,16,,,['l'],0,[0.2509579834950273],2018_Jul_09_0511,60.0434335269,go-nogo,001,15,
logos/3.jpg,properties3.xlsx,frogs/ab52.jpg,0,0,400,l,0,1,1,2,0,64,64,51,,,['l'],0,[0.11760694898111979],2018_Jul_09_0511,60.0434335269,go-nogo,001,15,
logos/3.jpg,properties3.xlsx,frogs/ab61.jpg,0,0,400,l,0,1,1,2,0,65,65,59,,,['l'],0,[0.15098096527799498],2018_Jul_09_0511,60.0434335269,go-nogo,001,15,
logos/3.jpg,properties3.xlsx,logos/3.jpg,0,0,400,a,0,1,1,2,0,66,66,81,,,['l'],0,[0.4008523342126864],2018_Jul_09_0511,60.0434335269,go-nogo,001,15,
logos/3.jpg,properties3.xlsx,frogs/ab46.jpg,0,0,400,l,0,1,1,2,0,67,67,45,,,['l'],0,[0.051092304223857354],2018_Jul_09_0511,60.0434335269,go-nogo,001,15,
logos/3.jpg,properties3.xlsx,frogs/ab28.jpg,0,0,400,l,0,1,1,2,0,68,68,27,,,['l'],0,[0.03400858135864837],2018_Jul_09_0511,60.0434335269,go-nogo,001,15,
logos/3.jpg,properties3.xlsx,logos/3.jpg,0,0,400,a,0,1,1,2,0,69,69,84,,,['l'],0,[0.31768727366579697],2018_Jul_09_0511,60.0434335269,go-nogo,001,15,
logos/3.jpg,properties3.xlsx,frogs/ab30.jpg,0,0,400,l,0,1,1,2,0,70,70,29,,,['l'],0,[0.6507152244303143],2018_Jul_09_0511,60.0434335269,go-nogo,001,15,
logos/3.jpg,properties3.xlsx,frogs/ab4.jpg,0,0,400,l,0,1,1,2,0,71,71,3,,,['l'],0,[0.3675269589803065],2018_Jul_09_0511,60.0434335269,go-nogo,001,15,
logos/3.jpg,properties3.xlsx,frogs/ab49.jpg,0,0,400,l,0,1,1,2,0,72,72,48,,,['l'],0,[0.001316878668149002],2018_Jul_09_0511,60.0434335269,go-nogo,001,15,
logos/3.jpg,properties3.xlsx,frogs/ab16.jpg,0,0,400,l,0,1,1,2,0,73,73,15,,,['l'],0,[0.38414212115458213],2018_Jul_09_0511,60.0434335269,go-nogo,001,15,
logos/3.jpg,properties3.xlsx,frogs/ab12.jpg,0,0,400,l,0,1,1,2,0,74,74,11,,,['l'],0,[0.4175384498666972],2018_Jul_09_0511,60.0434335269,go-nogo,001,15,
logos/3.jpg,properties3.xlsx,frogs/ab76.jpg,0,0,400,l,0,1,1,2,0,75,75,74,,,['l'],0,[0.11807997215510113],2018_Jul_09_0511,60.0434335269,go-nogo,001,15,
logos/3.jpg,properties3.xlsx,frogs/ab77.jpg,0,0,400,l,0,1,1,2,0,76,76,75,,,['l'],0,[0.46803099640237633],2018_Jul_09_0511,60.0434335269,go-nogo,001,15,
logos/3.jpg,properties3.xlsx,logos/3.jpg,0,0,400,a,0,1,1,2,0,77,77,86,,,['l'],0,[0.7341435714552063],2018_Jul_09_0511,60.0434335269,go-nogo,001,15,
logos/3.jpg,properties3.xlsx,frogs/ab32.jpg,0,0,400,l,0,1,1,2,0,78,78,31,,,['l'],0,[0.050974940924788825],2018_Jul_09_0511,60.0434335269,go-nogo,001,15,
logos/3.jpg,properties3.xlsx,frogs/ab72.jpg,0,0,400,l,0,1,1,2,0,79,79,70,,,['l'],0,[0.18429161432868568],2018_Jul_09_0511,60.0434335269,go-nogo,001,15,
logos/3.jpg,properties3.xlsx,frogs/ab40.jpg,0,0,400,l,0,1,1,2,0,80,80,39,,,['l'],0,[0.15093053922464605],2018_Jul_09_0511,60.0434335269,go-nogo,001,15,
logos/3.jpg,properties3.xlsx,frogs/ab9.jpg,0,0,400,l,0,1,1,2,0,81,81,8,,,['l'],0,[0.18788971420144662],2018_Jul_09_0511,60.0434335269,go-nogo,001,15,
logos/3.jpg,properties3.xlsx,frogs/ab1.jpg,0,0,400,l,0,1,1,2,0,82,82,0,,,['l'],0,[0.05080358159466414],2018_Jul_09_0511,60.0434335269,go-nogo,001,15,
logos/3.jpg,properties3.xlsx,frogs/ab14.jpg,0,0,400,l,0,1,1,2,0,83,83,13,,,['l'],0,[0.0009951336614903994],2018_Jul_09_0511,60.0434335269,go-nogo,001,15,
logos/3.jpg,properties3.xlsx,frogs/ab45.jpg,0,0,400,l,0,1,1,2,0,84,84,44,,,['l'],0,[0.15087297320133075],2018_Jul_09_0511,60.0434335269,go-nogo,001,15,
logos/3.jpg,properties3.xlsx,frogs/ab36.jpg,0,0,400,l,0,1,1,2,0,85,85,35,,,['l'],0,[0.23428704027901404],2018_Jul_09_0511,60.0434335269,go-nogo,001,15,
logos/3.jpg,properties3.xlsx,frogs/ab35.jpg,0,0,400,l,0,1,1,2,0,86,86,34,,,['l'],0,[0.267483449766587],2018_Jul_09_0511,60.0434335269,go-nogo,001,15,
logos/3.jpg,properties3.xlsx,frogs/ab22.jpg,0,0,400,l,0,1,1,2,0,87,87,21,,,['l'],0,[0.23475515472819097],2018_Jul_09_0511,60.0434335269,go-nogo,001,15,
logos/3.jpg,properties3.xlsx,frogs/ab42.jpg,0,0,400,l,0,1,1,2,0,88,88,41,,,['l'],0,[0.3514530959655531],2018_Jul_09_0511,60.0434335269,go-nogo,001,15,
logos/3.jpg,properties3.xlsx,frogs/ab55.jpg,0,0,400,l,0,1,1,2,0,89,89,54,,,['l'],0,[0.4340554374284693],2018_Jul_09_0511,60.0434335269,go-nogo,001,15,
logos/3.jpg,properties3.xlsx,,,,,,0,1,1,2,,,,,,,,,,2018_Jul_09_0511,60.0434335269,go-nogo,001,15,
logos/4.jpg,properties4.xlsx,frogs/ab38.jpg,0,0,400,l,0,2,2,3,0,0,0,37,space,1.27299372352,['l'],0,[1.034270975345862],2018_Jul_09_0511,60.0434335269,go-nogo,001,15,
logos/4.jpg,properties4.xlsx,frogs/ab66.jpg,0,0,400,l,0,2,2,3,0,1,1,64,,,['l'],0,[0.3179670713361702],2018_Jul_09_0511,60.0434335269,go-nogo,001,15,
logos/4.jpg,properties4.xlsx,frogs/ab8.jpg,0,0,400,l,0,2,2,3,0,2,2,7,,,['l'],0,[0.18426528567215428],2018_Jul_09_0511,60.0434335269,go-nogo,001,15,
logos/4.jpg,properties4.xlsx,frogs/ab23.jpg,0,0,400,l,0,2,2,3,0,3,3,22,,,['l'],0,[0.1844156713486882],2018_Jul_09_0511,60.0434335269,go-nogo,001,15,
logos/4.jpg,properties4.xlsx,frogs/ab14.jpg,0,0,400,l,0,2,2,3,0,4,4,13,,,['l'],0,[0.23429908898833673],2018_Jul_09_0511,60.0434335269,go-nogo,001,15,
logos/4.jpg,properties4.xlsx,frogs/ab22.jpg,0,0,400,l,0,2,2,3,0,5,5,21,,,['l'],0,[0.1678072028880706],2018_Jul_09_0511,60.0434335269,go-nogo,001,15,
logos/4.jpg,properties4.xlsx,frogs/ab64.jpg,0,0,400,l,0,2,2,3,0,6,6,62,,,['l'],0,[0.11696881394163938],2018_Jul_09_0511,60.0434335269,go-nogo,001,15,
logos/4.jpg,properties4.xlsx,frogs/ab50.jpg,0,0,400,l,0,2,2,3,0,7,7,49,,,['l'],0,[0.21813910005585058],2018_Jul_09_0511,60.0434335269,go-nogo,001,15,
logos/4.jpg,properties4.xlsx,frogs/ab51.jpg,0,0,400,l,0,2,2,3,0,8,8,50,,,['l'],0,[0.3180228523706319],2018_Jul_09_0511,60.0434335269,go-nogo,001,15,
logos/4.jpg,properties4.xlsx,frogs/ab32.jpg,0,0,400,l,0,2,2,3,0,9,9,31,,,['l'],0,[0.06711797242314788],2018_Jul_09_0511,60.0434335269,go-nogo,001,15,
logos/4.jpg,properties4.xlsx,frogs/ab18.jpg,0,0,400,l,0,2,2,3,0,10,10,17,,,['l'],0,[0.10115689865779132],2018_Jul_09_0511,60.0434335269,go-nogo,001,15,
logos/4.jpg,properties4.xlsx,frogs/ab76.jpg,0,0,400,l,0,2,2,3,0,11,11,74,,,['l'],0,[0.1679415236285422],2018_Jul_09_0511,60.0434335269,go-nogo,001,15,
logos/4.jpg,properties4.xlsx,frogs/ab15.jpg,0,0,400,l,0,2,2,3,0,12,12,14,,,['l'],0,[0.20099156367359683],2018_Jul_09_0511,60.0434335269,go-nogo,001,15,
logos/4.jpg,properties4.xlsx,frogs/ab27.jpg,0,0,400,l,0,2,2,3,0,13,13,26,,,['l'],0,[0.11769173615175532],2018_Jul_09_0511,60.0434335269,go-nogo,001,15,
logos/4.jpg,properties4.xlsx,logos/4.jpg,0,0,400,a,0,2,2,3,0,14,14,86,,,['l'],0,[0.4675610969643458],2018_Jul_09_0511,60.0434335269,go-nogo,001,15,
logos/4.jpg,properties4.xlsx,frogs/ab10.jpg,0,0,400,l,0,2,2,3,0,15,15,9,,,['l'],0,[0.08444445436180104],2018_Jul_09_0511,60.0434335269,go-nogo,001,15,
logos/4.jpg,properties4.xlsx,logos/4.jpg,0,0,400,a,0,2,2,3,0,16,16,89,,,['a'],0,[0.01769463676464511],2018_Jul_09_0511,60.0434335269,go-nogo,001,15,
logos/4.jpg,properties4.xlsx,frogs/ab19.jpg,0,0,400,l,0,2,2,3,0,17,17,18,,,['l'],0,[0.7507703360897722],2018_Jul_09_0511,60.0434335269,go-nogo,001,15,
logos/4.jpg,properties4.xlsx,frogs/ab74.jpg,0,0,400,l,0,2,2,3,0,18,18,72,,,['l'],0,[0.8008666141613503],2018_Jul_09_0511,60.0434335269,go-nogo,001,15,
logos/4.jpg,properties4.xlsx,frogs/ab41.jpg,0,0,400,l,0,2,2,3,0,19,19,40,,,['l'],0,[0.11765916003059829],2018_Jul_09_0511,60.0434335269,go-nogo,001,15,
logos/4.jpg,properties4.xlsx,frogs/ab17.jpg,0,0,400,l,0,2,2,3,0,20,20,16,,,['l'],0,[0.6509985920856707],2018_Jul_09_0511,60.0434335269,go-nogo,001,15,
logos/4.jpg,properties4.xlsx,frogs/ab45.jpg,0,0,400,l,0,2,2,3,0,21,21,44,,,['l'],0,[0.2008866953328834],2018_Jul_09_0511,60.0434335269,go-nogo,001,15,
logos/4.jpg,properties4.xlsx,logos/4.jpg,0,0,400,a,0,2,2,3,0,22,22,81,,,['l'],0,[0.3177796470627072],2018_Jul_09_0511,60.0434335269,go-nogo,001,15,
logos/4.jpg,properties4.xlsx,frogs/ab9.jpg,0,0,400,l,0,2,2,3,0,23,23,8,,,['l'],0,[0.08422490020893747],2018_Jul_09_0511,60.0434335269,go-nogo,001,15,
logos/4.jpg,properties4.xlsx,frogs/ab35.jpg,0,0,400,l,0,2,2,3,0,24,24,34,,,['l'],0,[0.5008065937654465],2018_Jul_09_0511,60.0434335269,go-nogo,001,15,
logos/4.jpg,properties4.xlsx,frogs/ab49.jpg,0,0,400,l,0,2,2,3,0,25,25,48,,,['l'],0,[0.23383231328625698],2018_Jul_09_0511,60.0434335269,go-nogo,001,15,
logos/4.jpg,properties4.xlsx,logos/4.jpg,0,0,400,a,0,2,2,3,0,26,26,82,,,['a'],0,[0.0009366751401103102],2018_Jul_09_0511,60.0434335269,go-nogo,001,15,
logos/4.jpg,properties4.xlsx,frogs/ab6.jpg,0,0,400,l,0,2,2,3,0,27,27,5,,,['l'],0,[0.18430321678170003],2018_Jul_09_0511,60.0434335269,go-nogo,001,15,
logos/4.jpg,properties4.xlsx,frogs/ab55.jpg,0,0,400,l,0,2,2,3,0,28,28,54,,,['l'],0,[0.584032344071602],2018_Jul_09_0511,60.0434335269,go-nogo,001,15,
logos/4.jpg,properties4.xlsx,frogs/ab61.jpg,0,0,400,l,0,2,2,3,0,29,29,59,,,['l'],0,[0.3341810563142644],2018_Jul_09_0511,60.0434335269,go-nogo,001,15,
logos/4.jpg,properties4.xlsx,frogs/ab4.jpg,0,0,400,l,0,2,2,3,0,30,30,3,,,['l'],0,[0.717359281181416],2018_Jul_09_0511,60.0434335269,go-nogo,001,15,
logos/4.jpg,properties4.xlsx,frogs/ab21.jpg,0,0,400,l,0,2,2,3,0,31,31,20,,,['l'],0,[0.0010602859110804275],2018_Jul_09_0511,60.0434335269,go-nogo,001,15,
logos/4.jpg,properties4.xlsx,frogs/ab44.jpg,0,0,400,l,0,2,2,3,0,32,32,43,,,['l'],0,[0.6341611982643371],2018_Jul_09_0511,60.0434335269,go-nogo,001,15,
logos/4.jpg,properties4.xlsx,frogs/ab75.jpg,0,0,400,l,0,2,2,3,0,33,33,73,,,['l'],0,[0.3841680035548052],2018_Jul_09_0511,60.0434335269,go-nogo,001,15,
logos/4.jpg,properties4.xlsx,frogs/ab70.jpg,0,0,400,l,0,2,2,3,0,34,34,68,,,['l'],0,[0.3509586528671207],2018_Jul_09_0511,60.0434335269,go-nogo,001,15,
logos/4.jpg,properties4.xlsx,frogs/ab5.jpg,0,0,400,l,0,2,2,3,0,35,35,4,,,['l'],0,[0.3174994031433016],2018_Jul_09_0511,60.0434335269,go-nogo,001,15,
logos/4.jpg,properties4.xlsx,frogs/ab62.jpg,0,0,400,l,0,2,2,3,0,36,36,60,,,['l'],0,[0.0009772837365744635],2018_Jul_09_0511,60.0434335269,go-nogo,001,15,
logos/4.jpg,properties4.xlsx,frogs/ab68.jpg,0,0,400,l,0,2,2,3,0,37,37,66,,,['l'],0,[0.6342134093138156],2018_Jul_09_0511,60.0434335269,go-nogo,001,15,
logos/4.jpg,properties4.xlsx,frogs/ab79.jpg,0,0,400,l,0,2,2,3,0,38,38,77,,,['l'],0,[0.40092462643951876],2018_Jul_09_0511,60.0434335269,go-nogo,001,15,
logos/4.jpg,properties4.xlsx,frogs/ab67.jpg,0,0,400,l,0,2,2,3,0,39,39,65,,,['l'],0,[0.0009326589060947299],2018_Jul_09_0511,60.0434335269,go-nogo,001,15,
logos/4.jpg,properties4.xlsx,frogs/ab63.jpg,0,0,400,l,0,2,2,3,0,40,40,61,,,['l'],0,[0.5178175781693426],2018_Jul_09_0511,60.0434335269,go-nogo,001,15,
logos/4.jpg,properties4.xlsx,frogs/ab77.jpg,0,0,400,l,0,2,2,3,0,41,41,75,,,['l'],0,[0.30084050863661105],2018_Jul_09_0511,60.0434335269,go-nogo,001,15,
logos/4.jpg,properties4.xlsx,frogs/ab37.jpg,0,0,400,l,0,2,2,3,0,42,42,36,,,['l'],0,[0.30099580303794937],2018_Jul_09_0511,60.0434335269,go-nogo,001,15,
logos/4.jpg,properties4.xlsx,frogs/ab40.jpg,0,0,400,l,0,2,2,3,0,43,43,39,,,['l'],0,[0.06769229396013543],2018_Jul_09_0511,60.0434335269,go-nogo,001,15,
logos/4.jpg,properties4.xlsx,frogs/ab20.jpg,0,0,400,l,0,2,2,3,0,44,44,19,,,['l'],0,[0.550861816991528],2018_Jul_09_0511,60.0434335269,go-nogo,001,15,
logos/4.jpg,properties4.xlsx,frogs/ab33.jpg,0,0,400,l,0,2,2,3,0,45,45,32,,,['l'],0,[0.38466512413288],2018_Jul_09_0511,60.0434335269,go-nogo,001,15,
logos/4.jpg,properties4.xlsx,frogs/ab48.jpg,0,0,400,l,0,2,2,3,0,46,46,47,,,['l'],0,[0.3847552662846283],2018_Jul_09_0511,60.0434335269,go-nogo,001,15,
logos/4.jpg,properties4.xlsx,frogs/ab2.jpg,0,0,400,l,0,2,2,3,0,47,47,1,,,['l'],0,[0.17105722911219345],2018_Jul_09_0511,60.0434335269,go-nogo,001,15,
logos/4.jpg,properties4.xlsx,frogs/ab57.jpg,0,0,400,l,0,2,2,3,0,48,48,56,,,['l'],0,[0.3177484096813714],2018_Jul_09_0511,60.0434335269,go-nogo,001,15,
logos/4.jpg,properties4.xlsx,frogs/ab54.jpg,0,0,400,l,0,2,2,3,0,49,49,53,,,['l'],0,[0.3010265941702528],2018_Jul_09_0511,60.0434335269,go-nogo,001,15,
logos/4.jpg,properties4.xlsx,frogs/ab31.jpg,0,0,400,l,0,2,2,3,0,50,50,30,,,['l'],0,[0.4341312996330089],2018_Jul_09_0511,60.0434335269,go-nogo,001,15,
logos/4.jpg,properties4.xlsx,frogs/ab78.jpg,0,0,400,l,0,2,2,3,0,51,51,76,,,['l'],0,[0.3009453769773245],2018_Jul_09_0511,60.0434335269,go-nogo,001,15,
logos/4.jpg,properties4.xlsx,frogs/ab12.jpg,0,0,400,l,0,2,2,3,0,52,52,11,,,['l'],0,[0.25093031609867467],2018_Jul_09_0511,60.0434335269,go-nogo,001,15,
logos/4.jpg,properties4.xlsx,frogs/ab11.jpg,0,0,400,l,0,2,2,3,0,53,53,10,,,['l'],0,[0.284275326266652],2018_Jul_09_0511,60.0434335269,go-nogo,001,15,
logos/4.jpg,properties4.xlsx,frogs/ab28.jpg,0,0,400,l,0,2,2,3,0,54,54,27,,,['l'],0,[0.3008882571957656],2018_Jul_09_0511,60.0434335269,go-nogo,001,15,
logos/4.jpg,properties4.xlsx,frogs/ab71.jpg,0,0,400,l,0,2,2,3,0,55,55,69,,,['l'],0,[0.3010265941702528],2018_Jul_09_0511,60.0434335269,go-nogo,001,15,
logos/4.jpg,properties4.xlsx,frogs/ab69.jpg,0,0,400,l,0,2,2,3,0,56,56,67,,,['l'],0,[0.33369687692902517],2018_Jul_09_0511,60.0434335269,go-nogo,001,15,
logos/4.jpg,properties4.xlsx,frogs/ab56.jpg,0,0,400,l,0,2,2,3,0,57,57,55,,,['l'],0,[0.28466713225498097],2018_Jul_09_0511,60.0434335269,go-nogo,001,15,
logos/4.jpg,properties4.xlsx,logos/4.jpg,0,0,400,a,0,2,2,3,0,58,58,88,,,['a'],0,[0.01738895669404883],2018_Jul_09_0511,60.0434335269,go-nogo,001,15,
logos/4.jpg,properties4.xlsx,frogs/ab36.jpg,0,0,400,l,0,2,2,3,0,59,59,35,,,['l'],0,[0.2509503972760285],2018_Jul_09_0511,60.0434335269,go-nogo,001,15,
logos/4.jpg,properties4.xlsx,frogs/ab60.jpg,0,0,400,l,0,2,2,3,0,60,60,58,,,['l'],0,[0.3675175877579022],2018_Jul_09_0511,60.0434335269,go-nogo,001,15,
logos/4.jpg,properties4.xlsx,frogs/ab16.jpg,0,0,400,l,0,2,2,3,0,61,61,15,,,['l'],0,[0.4342392917169491],2018_Jul_09_0511,60.0434335269,go-nogo,001,15,
logos/4.jpg,properties4.xlsx,frogs/ab25.jpg,0,0,400,l,0,2,2,3,0,62,62,24,,,['l'],0,[0.45092317613307387],2018_Jul_09_0511,60.0434335269,go-nogo,001,15,
logos/4.jpg,properties4.xlsx,frogs/ab3.jpg,0,0,400,l,0,2,2,3,0,63,63,2,,,['l'],0,[0.0009411376231582835],2018_Jul_09_0511,60.0434335269,go-nogo,001,15,
logos/4.jpg,properties4.xlsx,frogs/ab81.jpg,0,0,400,l,0,2,2,3,0,64,64,79,,,['l'],0,[0.36756622882239753],2018_Jul_09_0511,60.0434335269,go-nogo,001,15,
logos/4.jpg,properties4.xlsx,frogs/ab53.jpg,0,0,400,l,0,2,2,3,0,65,65,52,,,['l'],0,[0.20096969750738936],2018_Jul_09_0511,60.0434335269,go-nogo,001,15,
logos/4.jpg,properties4.xlsx,frogs/ab73.jpg,0,0,400,l,0,2,2,3,0,66,66,71,,,['l'],0,[0.43426472786813974],2018_Jul_09_0511,60.0434335269,go-nogo,001,15,
logos/4.jpg,properties4.xlsx,logos/4.jpg,0,0,400,a,0,2,2,3,0,67,67,85,,,['l'],0,[0.367490366610582],2018_Jul_09_0511,60.0434335269,go-nogo,001,15,
logos/4.jpg,properties4.xlsx,frogs/ab58.jpg,0,0,400,l,0,2,2,3,0,68,68,57,,,['l'],0,[0.4846845359352301],2018_Jul_09_0511,60.0434335269,go-nogo,001,15,
logos/4.jpg,properties4.xlsx,frogs/ab34.jpg,0,0,400,l,0,2,2,3,0,69,69,33,,,['l'],0,[0.3680816455889726],2018_Jul_09_0511,60.0434335269,go-nogo,001,15,
logos/4.jpg,properties4.xlsx,frogs/ab30.jpg,0,0,400,l,0,2,2,3,0,70,70,29,,,['l'],0,[0.46773781129013514],2018_Jul_09_0511,60.0434335269,go-nogo,001,15,
logos/4.jpg,properties4.xlsx,frogs/ab29.jpg,0,0,400,l,0,2,2,3,0,71,71,28,,,['l'],0,[0.31781311568192905],2018_Jul_09_0511,60.0434335269,go-nogo,001,15,
logos/4.jpg,properties4.xlsx,frogs/ab42.jpg,0,0,400,l,0,2,2,3,0,72,72,41,,,['l'],0,[0.4675401232962031],2018_Jul_09_0511,60.0434335269,go-nogo,001,15,
logos/4.jpg,properties4.xlsx,frogs/ab39.jpg,0,0,400,l,0,2,2,3,0,73,73,38,,,['l'],0,[0.5341337539939559],2018_Jul_09_0511,60.0434335269,go-nogo,001,15,
logos/4.jpg,properties4.xlsx,frogs/ab46.jpg,0,0,400,l,0,2,2,3,0,74,74,45,,,['l'],0,[0.05103563069133088],2018_Jul_09_0511,60.0434335269,go-nogo,001,15,
logos/4.jpg,properties4.xlsx,frogs/ab7.jpg,0,0,400,l,0,2,2,3,0,75,75,6,,,['l'],0,[0.017721857911965344],2018_Jul_09_0511,60.0434335269,go-nogo,001,15,
logos/4.jpg,properties4.xlsx,frogs/ab65.jpg,0,0,400,l,0,2,2,3,0,76,76,63,,,['l'],0,[0.017650011934165377],2018_Jul_09_0511,60.0434335269,go-nogo,001,15,
logos/4.jpg,properties4.xlsx,frogs/ab26.jpg,0,0,400,l,0,2,2,3,0,77,77,25,,,['l'],0,[0.2841972328169504],2018_Jul_09_0511,60.0434335269,go-nogo,001,15,
logos/4.jpg,properties4.xlsx,frogs/ab24.jpg,0,0,400,l,0,2,2,3,0,78,78,23,,,['l'],0,[0.48408924073009985],2018_Jul_09_0511,60.0434335269,go-nogo,001,15,
logos/4.jpg,properties4.xlsx,logos/4.jpg,0,0,400,a,0,2,2,3,0,79,79,84,,,['l'],0,[0.43412594465189613],2018_Jul_09_0511,60.0434335269,go-nogo,001,15,
logos/4.jpg,properties4.xlsx,frogs/ab47.jpg,0,0,400,l,0,2,2,3,0,80,80,46,,,['l'],0,[0.16151554840325844],2018_Jul_09_0511,60.0434335269,go-nogo,001,15,
logos/4.jpg,properties4.xlsx,frogs/ab13.jpg,0,0,400,l,0,2,2,3,0,81,81,12,,,['l'],0,[0.5514441709965467],2018_Jul_09_0511,60.0434335269,go-nogo,001,15,
logos/4.jpg,properties4.xlsx,frogs/ab80.jpg,0,0,400,l,0,2,2,3,0,82,82,78,,,['l'],0,[0.33423237486567814],2018_Jul_09_0511,60.0434335269,go-nogo,001,15,
logos/4.jpg,properties4.xlsx,frogs/ab1.jpg,0,0,400,l,0,2,2,3,0,83,83,0,,,['l'],0,[0.700845863611903],2018_Jul_09_0511,60.0434335269,go-nogo,001,15,
logos/4.jpg,properties4.xlsx,logos/4.jpg,0,0,400,a,0,2,2,3,0,84,84,83,,,['a'],0,[0.08459974876313936],2018_Jul_09_0511,60.0434335269,go-nogo,001,15,
logos/4.jpg,properties4.xlsx,frogs/ab72.jpg,0,0,400,l,0,2,2,3,0,85,85,70,,,['l'],0,[0.6674272224845481],2018_Jul_09_0511,60.0434335269,go-nogo,001,15,
logos/4.jpg,properties4.xlsx,logos/4.jpg,0,0,400,a,0,2,2,3,0,86,86,87,,,['l'],0,[0.40091704021324404],2018_Jul_09_0511,60.0434335269,go-nogo,001,15,
logos/4.jpg,properties4.xlsx,logos/4.jpg,0,0,400,a,0,2,2,3,0,87,87,80,,,['a'],0,[0.5387296650224016],2018_Jul_09_0511,60.0434335269,go-nogo,001,15,
logos/4.jpg,properties4.xlsx,frogs/ab52.jpg,0,0,400,l,0,2,2,3,0,88,88,51,,,['l'],0,[0.2175982471308089],2018_Jul_09_0511,60.0434335269,go-nogo,001,15,
logos/4.jpg,properties4.xlsx,frogs/ab43.jpg,0,0,400,l,0,2,2,3,0,89,89,42,,,['l'],0,[0.30085925105959177],2018_Jul_09_0511,60.0434335269,go-nogo,001,15,
logos/4.jpg,properties4.xlsx,,,,,,0,2,2,3,,,,,,,,,,2018_Jul_09_0511,60.0434335269,go-nogo,001,15,
logos/2.jpg,properties2.xlsx,frogs/ab12.jpg,0,0,400,l,0,3,3,1,0,0,0,11,space,1.88353678536,['l'],0,[0.717540011733945],2018_Jul_09_0511,60.0434335269,go-nogo,001,15,
logos/2.jpg,properties2.xlsx,frogs/ab27.jpg,0,0,400,l,0,3,3,1,0,1,1,26,,,['l'],0,[0.16754793264408363],2018_Jul_09_0511,60.0434335269,go-nogo,001,15,
logos/2.jpg,properties2.xlsx,frogs/ab48.jpg,0,0,400,l,0,3,3,1,0,2,2,47,,,['l'],0,[0.03435799375438364],2018_Jul_09_0511,60.0434335269,go-nogo,001,15,
logos/2.jpg,properties2.xlsx,frogs/ab40.jpg,0,0,400,l,0,3,3,1,0,3,3,39,,,['l'],0,[0.13431537704309449],2018_Jul_09_0511,60.0434335269,go-nogo,001,15,
logos/2.jpg,properties2.xlsx,frogs/ab35.jpg,0,0,400,l,0,3,3,1,0,4,4,34,,,['l'],0,[0.11754135048249736],2018_Jul_09_0511,60.0434335269,go-nogo,001,15,
logos/2.jpg,properties2.xlsx,frogs/ab16.jpg,0,0,400,l,0,3,3,1,0,5,5,15,,,['l'],0,[0.1342743222048739],2018_Jul_09_0511,60.0434335269,go-nogo,001,15,
logos/2.jpg,properties2.xlsx,frogs/ab77.jpg,0,0,400,l,0,3,3,1,0,6,6,75,,,['l'],0,[0.13419489000807516],2018_Jul_09_0511,60.0434335269,go-nogo,001,15,
logos/2.jpg,properties2.xlsx,frogs/ab43.jpg,0,0,400,l,0,3,3,1,0,7,7,42,,,['l'],0,[0.18426037694734987],2018_Jul_09_0511,60.0434335269,go-nogo,001,15,
logos/2.jpg,properties2.xlsx,frogs/ab62.jpg,0,0,400,l,0,3,3,1,0,8,8,60,,,['l'],0,[0.10406018996582134],2018_Jul_09_0511,60.0434335269,go-nogo,001,15,
logos/2.jpg,properties2.xlsx,frogs/ab53.jpg,0,0,400,l,0,3,3,1,0,9,9,52,,,['l'],0,[0.434189758154389],2018_Jul_09_0511,60.0434335269,go-nogo,001,15,
logos/2.jpg,properties2.xlsx,logos/2.jpg,0,0,400,a,0,3,3,1,0,10,10,83,,,['l'],0,[0.3356010183415492],2018_Jul_09_0511,60.0434335269,go-nogo,001,15,
logos/2.jpg,properties2.xlsx,logos/2.jpg,0,0,400,a,0,3,3,1,0,11,11,85,,,['a'],0,[0.0010348497598897666],2018_Jul_09_0511,60.0434335269,go-nogo,001,15,
logos/2.jpg,properties2.xlsx,frogs/ab20.jpg,0,0,400,l,0,3,3,1,0,12,12,19,,,['l'],0,[0.21786911984236212],2018_Jul_09_0511,60.0434335269,go-nogo,001,15,
logos/2.jpg,properties2.xlsx,frogs/ab70.jpg,0,0,400,l,0,3,3,1,0,13,13,68,,,['l'],0,[0.20086750665359432],2018_Jul_09_0511,60.0434335269,go-nogo,001,15,
logos/2.jpg,properties2.xlsx,logos/2.jpg,0,0,400,a,0,3,3,1,0,14,14,82,,,['l'],0,[0.5008681760227773],2018_Jul_09_0511,60.0434335269,go-nogo,001,15,
logos/2.jpg,properties2.xlsx,frogs/ab44.jpg,0,0,400,l,0,3,3,1,0,15,15,43,,,['l'],0,[0.25098074215929955],2018_Jul_09_0511,60.0434335269,go-nogo,001,15,
logos/2.jpg,properties2.xlsx,frogs/ab9.jpg,0,0,400,l,0,3,3,1,0,16,16,8,,,['l'],0,[0.23398626894049812],2018_Jul_09_0511,60.0434335269,go-nogo,001,15,
logos/2.jpg,properties2.xlsx,frogs/ab66.jpg,0,0,400,l,0,3,3,1,0,17,17,64,,,['l'],0,[0.3341043016043841],2018_Jul_09_0511,60.0434335269,go-nogo,001,15,
logos/2.jpg,properties2.xlsx,logos/2.jpg,0,0,400,a,0,3,3,1,0,18,18,80,,,['l'],0,[0.2845778825940215],2018_Jul_09_0511,60.0434335269,go-nogo,001,15,
logos/2.jpg,properties2.xlsx,frogs/ab71.jpg,0,0,400,l,0,3,3,1,0,19,19,69,,,['l'],0,[0.31738560982921626],2018_Jul_09_0511,60.0434335269,go-nogo,001,15,
logos/2.jpg,properties2.xlsx,logos/2.jpg,0,0,400,a,0,3,3,1,0,20,20,81,,,['l'],0,[0.2509548597590765],2018_Jul_09_0511,60.0434335269,go-nogo,001,15,
logos/2.jpg,properties2.xlsx,frogs/ab47.jpg,0,0,400,l,0,3,3,1,0,21,21,46,,,['l'],0,[0.018812042457284406],2018_Jul_09_0511,60.0434335269,go-nogo,001,15,
logos/2.jpg,properties2.xlsx,frogs/ab67.jpg,0,0,400,l,0,3,3,1,0,22,22,65,,,['l'],0,[0.38419343970599584],2018_Jul_09_0511,60.0434335269,go-nogo,001,15,
logos/2.jpg,properties2.xlsx,frogs/ab64.jpg,0,0,400,l,0,3,3,1,0,23,23,62,,,['l'],0,[0.6166950406186515],2018_Jul_09_0511,60.0434335269,go-nogo,001,15,
logos/2.jpg,properties2.xlsx,frogs/ab37.jpg,0,0,400,l,0,3,3,1,0,24,24,36,,,['l'],0,[0.23488233548414428],2018_Jul_09_0511,60.0434335269,go-nogo,001,15,
logos/2.jpg,properties2.xlsx,frogs/ab21.jpg,0,0,400,l,0,3,3,1,0,25,25,20,,,['l'],0,[0.20096835876756813],2018_Jul_09_0511,60.0434335269,go-nogo,001,15,
logos/2.jpg,properties2.xlsx,frogs/ab51.jpg,0,0,400,l,0,3,3,1,0,26,26,50,,,['l'],0,[0.2508901537512429],2018_Jul_09_0511,60.0434335269,go-nogo,001,15,
logos/2.jpg,properties2.xlsx,frogs/ab74.jpg,0,0,400,l,0,3,3,1,0,27,27,72,,,['l'],0,[0.10094180699525168],2018_Jul_09_0511,60.0434335269,go-nogo,001,15,
logos/2.jpg,properties2.xlsx,frogs/ab42.jpg,0,0,400,l,0,3,3,1,0,28,28,41,,,['l'],0,[0.03406123864988331],2018_Jul_09_0511,60.0434335269,go-nogo,001,15,
logos/2.jpg,properties2.xlsx,frogs/ab56.jpg,0,0,400,l,0,3,3,1,0,29,29,55,,,['l'],0,[0.42042210624640575],2018_Jul_09_0511,60.0434335269,go-nogo,001,15,
logos/2.jpg,properties2.xlsx,frogs/ab2.jpg,0,0,400,l,0,3,3,1,0,30,30,1,,,['l'],0,[0.8097505248952075],2018_Jul_09_0511,60.0434335269,go-nogo,001,15,
logos/2.jpg,properties2.xlsx,frogs/ab19.jpg,0,0,400,l,0,3,3,1,0,31,31,18,,,['l'],0,[0.11767834870988736],2018_Jul_09_0511,60.0434335269,go-nogo,001,15,
logos/2.jpg,properties2.xlsx,frogs/ab45.jpg,0,0,400,l,0,3,3,1,0,32,32,44,,,['l'],0,[0.4342366142227547],2018_Jul_09_0511,60.0434335269,go-nogo,001,15,
logos/2.jpg,properties2.xlsx,frogs/ab39.jpg,0,0,400,l,0,3,3,1,0,33,33,38,,,['l'],0,[0.03422545801731758],2018_Jul_09_0511,60.0434335269,go-nogo,001,15,
logos/2.jpg,properties2.xlsx,frogs/ab55.jpg,0,0,400,l,0,3,3,1,0,34,34,54,,,['l'],0,[0.3342386223448557],2018_Jul_09_0511,60.0434335269,go-nogo,001,15,
logos/2.jpg,properties2.xlsx,frogs/ab81.jpg,0,0,400,l,0,3,3,1,0,35,35,79,,,['l'],0,[0.5673489059117856],2018_Jul_09_0511,60.0434335269,go-nogo,001,15,
logos/2.jpg,properties2.xlsx,frogs/ab46.jpg,0,0,400,l,0,3,3,1,0,36,36,45,,,['l'],0,[0.2842119590131915],2018_Jul_09_0511,60.0434335269,go-nogo,001,15,
logos/2.jpg,properties2.xlsx,frogs/ab69.jpg,0,0,400,l,0,3,3,1,0,37,37,67,,,['l'],0,[0.18422601583006326],2018_Jul_09_0511,60.0434335269,go-nogo,001,15,
logos/2.jpg,properties2.xlsx,frogs/ab41.jpg,0,0,400,l,0,3,3,1,0,38,38,40,,,['l'],0,[0.3341855187973124],2018_Jul_09_0511,60.0434335269,go-nogo,001,15,
logos/2.jpg,properties2.xlsx,frogs/ab58.jpg,0,0,400,l,0,3,3,1,0,39,39,57,,,['l'],0,[0.45121056002244586],2018_Jul_09_0511,60.0434335269,go-nogo,001,15,
logos/2.jpg,properties2.xlsx,frogs/ab36.jpg,0,0,400,l,0,3,3,1,0,40,40,35,,,['l'],0,[0.24587744683230994],2018_Jul_09_0511,60.0434335269,go-nogo,001,15,
logos/2.jpg,properties2.xlsx,logos/2.jpg,0,0,400,a,0,3,3,1,0,41,41,88,,,['l'],0,[0.3176591600276879],2018_Jul_09_0511,60.0434335269,go-nogo,001,15,
logos/2.jpg,properties2.xlsx,frogs/ab75.jpg,0,0,400,l,0,3,3,1,0,42,42,73,,,['l'],0,[0.25086114761506906],2018_Jul_09_0511,60.0434335269,go-nogo,001,15,
logos/2.jpg,properties2.xlsx,frogs/ab52.jpg,0,0,400,l,0,3,3,1,0,43,43,51,,,['l'],0,[0.48415796296467306],2018_Jul_09_0511,60.0434335269,go-nogo,001,15,
logos/2.jpg,properties2.xlsx,frogs/ab34.jpg,0,0,400,l,0,3,3,1,0,44,44,33,,,['l'],0,[0.26746069110231474],2018_Jul_09_0511,60.0434335269,go-nogo,001,15,
logos/2.jpg,properties2.xlsx,frogs/ab38.jpg,0,0,400,l,0,3,3,1,0,45,45,37,,,['l'],0,[0.8008514417160768],2018_Jul_09_0511,60.0434335269,go-nogo,001,15,
logos/2.jpg,properties2.xlsx,frogs/ab14.jpg,0,0,400,l,0,3,3,1,0,46,46,13,,,['l'],0,[0.9340172831944074],2018_Jul_09_0511,60.0434335269,go-nogo,001,15,
logos/2.jpg,properties2.xlsx,frogs/ab76.jpg,0,0,400,l,0,3,3,1,0,47,47,74,,,['l'],0,[0.2676075067865895],2018_Jul_09_0511,60.0434335269,go-nogo,001,15,
logos/2.jpg,properties2.xlsx,frogs/ab5.jpg,0,0,400,l,0,3,3,1,0,48,48,4,,,['l'],0,[0.2509383485739818],2018_Jul_09_0511,60.0434335269,go-nogo,001,15,
logos/2.jpg,properties2.xlsx,frogs/ab72.jpg,0,0,400,l,0,3,3,1,0,49,49,70,,,['l'],0,[0.4342196567886276],2018_Jul_09_0511,60.0434335269,go-nogo,001,15,
logos/2.jpg,properties2.xlsx,frogs/ab65.jpg,0,0,400,l,0,3,3,1,0,50,50,63,,,['l'],0,[0.25089684747945284],2018_Jul_09_0511,60.0434335269,go-nogo,001,15,
logos/2.jpg,properties2.xlsx,frogs/ab57.jpg,0,0,400,l,0,3,3,1,0,51,51,56,,,['l'],0,[0.30110691885784036],2018_Jul_09_0511,60.0434335269,go-nogo,001,15,
logos/2.jpg,properties2.xlsx,frogs/ab80.jpg,0,0,400,l,0,3,3,1,0,52,52,78,,,['l'],0,[0.11790548907447373],2018_Jul_09_0511,60.0434335269,go-nogo,001,15,
logos/2.jpg,properties2.xlsx,frogs/ab30.jpg,0,0,400,l,0,3,3,1,0,53,53,29,,,['l'],0,[0.16784870398259955],2018_Jul_09_0511,60.0434335269,go-nogo,001,15,
logos/2.jpg,properties2.xlsx,frogs/ab7.jpg,0,0,400,l,0,3,3,1,0,54,54,6,,,['l'],0,[0.15105905872769654],2018_Jul_09_0511,60.0434335269,go-nogo,001,15,
logos/2.jpg,properties2.xlsx,frogs/ab11.jpg,0,0,400,l,0,3,3,1,0,55,55,10,,,['l'],0,[0.16770545829058392],2018_Jul_09_0511,60.0434335269,go-nogo,001,15,
logos/2.jpg,properties2.xlsx,frogs/ab8.jpg,0,0,400,l,0,3,3,1,0,56,56,7,,,['l'],0,[0.05235117061965866],2018_Jul_09_0511,60.0434335269,go-nogo,001,15,
logos/2.jpg,properties2.xlsx,frogs/ab22.jpg,0,0,400,l,0,3,3,1,0,57,57,21,,,['l'],0,[0.26785249709064374],2018_Jul_09_0511,60.0434335269,go-nogo,001,15,
logos/2.jpg,properties2.xlsx,frogs/ab29.jpg,0,0,400,l,0,3,3,1,0,58,58,28,,,['l'],0,[0.16796428229281446],2018_Jul_09_0511,60.0434335269,go-nogo,001,15,
logos/2.jpg,properties2.xlsx,frogs/ab17.jpg,0,0,400,l,0,3,3,1,0,59,59,16,,,['l'],0,[0.4013164324205718],2018_Jul_09_0511,60.0434335269,go-nogo,001,15,
logos/2.jpg,properties2.xlsx,frogs/ab25.jpg,0,0,400,l,0,3,3,1,0,60,60,24,,,['l'],0,[0.23456996168533806],2018_Jul_09_0511,60.0434335269,go-nogo,001,15,
logos/2.jpg,properties2.xlsx,frogs/ab24.jpg,0,0,400,l,0,3,3,1,0,61,61,23,,,['l'],0,[0.20120933283033082],2018_Jul_09_0511,60.0434335269,go-nogo,001,15,
logos/2.jpg,properties2.xlsx,frogs/ab33.jpg,0,0,400,l,0,3,3,1,0,62,62,32,,,['l'],0,[0.01764510320208501],2018_Jul_09_0511,60.0434335269,go-nogo,001,15,
logos/2.jpg,properties2.xlsx,frogs/ab4.jpg,0,0,400,l,0,3,3,1,0,63,63,3,,,['l'],0,[0.1509715940701426],2018_Jul_09_0511,60.0434335269,go-nogo,001,15,
logos/2.jpg,properties2.xlsx,logos/2.jpg,0,0,400,a,0,3,3,1,0,64,64,84,,,['a'],0,[0.0009277501740143634],2018_Jul_09_0511,60.0434335269,go-nogo,001,15,
logos/2.jpg,properties2.xlsx,frogs/ab26.jpg,0,0,400,l,0,3,3,1,0,65,65,25,,,['l'],0,[0.300318398149102],2018_Jul_09_0511,60.0434335269,go-nogo,001,15,
logos/2.jpg,properties2.xlsx,frogs/ab49.jpg,0,0,400,l,0,3,3,1,0,66,66,48,,,['l'],0,[0.3336326171774999],2018_Jul_09_0511,60.0434335269,go-nogo,001,15,
logos/2.jpg,properties2.xlsx,frogs/ab1.jpg,0,0,400,l,0,3,3,1,0,67,67,0,,,['l'],0,[0.31782114815723617],2018_Jul_09_0511,60.0434335269,go-nogo,001,15,
logos/2.jpg,properties2.xlsx,frogs/ab15.jpg,0,0,400,l,0,3,3,1,0,68,68,14,,,['l'],0,[0.28451094535557786],2018_Jul_09_0511,60.0434335269,go-nogo,001,15,
logos/2.jpg,properties2.xlsx,frogs/ab60.jpg,0,0,400,l,0,3,3,1,0,69,69,58,,,['l'],0,[0.28479922174301464],2018_Jul_09_0511,60.0434335269,go-nogo,001,15,
logos/2.jpg,properties2.xlsx,frogs/ab31.jpg,0,0,400,l,0,3,3,1,0,70,70,30,,,['l'],0,[0.3013791303092148],2018_Jul_09_0511,60.0434335269,go-nogo,001,15,
logos/2.jpg,properties2.xlsx,frogs/ab78.jpg,0,0,400,l,0,3,3,1,0,71,71,76,,,['l'],0,[0.26805420131859137],2018_Jul_09_0511,60.0434335269,go-nogo,001,15,
logos/2.jpg,properties2.xlsx,frogs/ab10.jpg,0,0,400,l,0,3,3,1,0,72,72,9,,,['l'],0,[0.3510523650038522],2018_Jul_09_0511,60.0434335269,go-nogo,001,15,
logos/2.jpg,properties2.xlsx,logos/2.jpg,0,0,400,a,0,3,3,1,0,73,73,89,,,['l'],0,[0.2847336232443922],2018_Jul_09_0511,60.0434335269,go-nogo,001,15,
logos/2.jpg,properties2.xlsx,frogs/ab73.jpg,0,0,400,l,0,3,3,1,0,74,74,71,,,['l'],0,[0.36758095501863863],2018_Jul_09_0511,60.0434335269,go-nogo,001,15,
logos/2.jpg,properties2.xlsx,frogs/ab28.jpg,0,0,400,l,0,3,3,1,0,75,75,27,,,['l'],0,[0.26743927118513966],2018_Jul_09_0511,60.0434335269,go-nogo,001,15,
logos/2.jpg,properties2.xlsx,frogs/ab61.jpg,0,0,400,l,0,3,3,1,0,76,76,59,,,['l'],0,[0.28428068124776473],2018_Jul_09_0511,60.0434335269,go-nogo,001,15,
logos/2.jpg,properties2.xlsx,frogs/ab23.jpg,0,0,400,l,0,3,3,1,0,77,77,22,,,['l'],0,[0.2675253971028724],2018_Jul_09_0511,60.0434335269,go-nogo,001,15,
logos/2.jpg,properties2.xlsx,frogs/ab50.jpg,0,0,400,l,0,3,3,1,0,78,78,49,,,['l'],0,[0.2508865837662597],2018_Jul_09_0511,60.0434335269,go-nogo,001,15,
logos/2.jpg,properties2.xlsx,frogs/ab79.jpg,0,0,400,l,0,3,3,1,0,79,79,77,,,['l'],0,[0.1671485404294799],2018_Jul_09_0511,60.0434335269,go-nogo,001,15,
logos/2.jpg,properties2.xlsx,frogs/ab54.jpg,0,0,400,l,0,3,3,1,0,80,80,53,,,['l'],0,[0.18421976835088572],2018_Jul_09_0511,60.0434335269,go-nogo,001,15,
logos/2.jpg,properties2.xlsx,logos/2.jpg,0,0,400,a,0,3,3,1,0,81,81,86,,,['a'],0,[0.01768526554951677],2018_Jul_09_0511,60.0434335269,go-nogo,001,15,
logos/2.jpg,properties2.xlsx,frogs/ab63.jpg,0,0,400,l,0,3,3,1,0,82,82,61,,,['l'],0,[0.2509557522571413],2018_Jul_09_0511,60.0434335269,go-nogo,001,15,
logos/2.jpg,properties2.xlsx,frogs/ab6.jpg,0,0,400,l,0,3,3,1,0,83,83,5,,,['l'],0,[0.3012474870629376],2018_Jul_09_0511,60.0434335269,go-nogo,001,15,
logos/2.jpg,properties2.xlsx,frogs/ab68.jpg,0,0,400,l,0,3,3,1,0,84,84,66,,,['l'],0,[0.1177015536086401],2018_Jul_09_0511,60.0434335269,go-nogo,001,15,
logos/2.jpg,properties2.xlsx,frogs/ab3.jpg,0,0,400,l,0,3,3,1,0,85,85,2,,,['l'],0,[0.18416711105237482],2018_Jul_09_0511,60.0434335269,go-nogo,001,15,
logos/2.jpg,properties2.xlsx,frogs/ab13.jpg,0,0,400,l,0,3,3,1,0,86,86,12,,,['l'],0,[0.28426149256847566],2018_Jul_09_0511,60.0434335269,go-nogo,001,15,
logos/2.jpg,properties2.xlsx,frogs/ab32.jpg,0,0,400,l,0,3,3,1,0,87,87,31,,,['l'],0,[0.3174686120109982],2018_Jul_09_0511,60.0434335269,go-nogo,001,15,
logos/2.jpg,properties2.xlsx,logos/2.jpg,0,0,400,a,0,3,3,1,0,88,88,87,,,['a'],0,[0.1510492412635358],2018_Jul_09_0511,60.0434335269,go-nogo,001,15,
logos/2.jpg,properties2.xlsx,frogs/ab18.jpg,0,0,400,l,0,3,3,1,0,89,89,17,,,['l'],0,[0.20111963693489088],2018_Jul_09_0511,60.0434335269,go-nogo,001,15,
logos/2.jpg,properties2.xlsx,,,,,,0,3,3,1,,,,,,,,,,2018_Jul_09_0511,60.0434335269,go-nogo,001,15,
