pix,source,image1,x,y,size,answer,trials_2.thisRepN,trials_2.thisTrialN,trials_2.thisN,trials_2.thisIndex,trials.thisRepN,trials.thisTrialN,trials.thisN,trials.thisIndex,key_resp_3.keys,key_resp_3.rt,key_resp_2.keys,key_resp_2.corr,key_resp_2.rt,date,frameRate,expName,session,participant,
logos/1.jpg,properties1.xlsx,frogs/ab46.jpg,0,0,400,l,0,0,0,0,0,0,0,45,space,8.99448859974,['l'],0,[0.13447293252738746],2018_Jul_09_1211,60.0250985158,go-nogo,001,16,
logos/1.jpg,properties1.xlsx,frogs/ab52.jpg,0,0,400,l,0,0,0,0,0,1,1,51,,,['a'],0,[0.21759335901333543],2018_Jul_09_1211,60.0250985158,go-nogo,001,16,
logos/1.jpg,properties1.xlsx,frogs/ab42.jpg,0,0,400,l,0,0,0,0,0,2,2,41,,,['l'],0,[0.7671990902317702],2018_Jul_09_1211,60.0250985158,go-nogo,001,16,
logos/1.jpg,properties1.xlsx,frogs/ab36.jpg,0,0,400,l,0,0,0,0,0,3,3,35,,,['l'],0,[0.23416738204468857],2018_Jul_09_1211,60.0250985158,go-nogo,001,16,
logos/1.jpg,properties1.xlsx,frogs/ab33.jpg,0,0,400,l,0,0,0,0,0,4,4,32,,,['l'],0,[0.2176172523668356],2018_Jul_09_1211,60.0250985158,go-nogo,001,16,
logos/1.jpg,properties1.xlsx,frogs/ab51.jpg,0,0,400,l,0,0,0,0,0,5,5,50,,,['l'],0,[0.21732256767063518],2018_Jul_09_1211,60.0250985158,go-nogo,001,16,
logos/1.jpg,properties1.xlsx,frogs/ab74.jpg,0,0,400,l,0,0,0,0,0,6,6,72,,,['l'],0,[0.20095562037113268],2018_Jul_09_1211,60.0250985158,go-nogo,001,16,
logos/1.jpg,properties1.xlsx,frogs/ab44.jpg,0,0,400,l,0,0,0,0,0,7,7,43,,,['l'],0,[0.20024052642747847],2018_Jul_09_1211,60.0250985158,go-nogo,001,16,
logos/1.jpg,properties1.xlsx,frogs/ab17.jpg,0,0,400,l,0,0,0,0,0,8,8,16,,,['l'],0,[0.40081783536425064],2018_Jul_09_1211,60.0250985158,go-nogo,001,16,
logos/1.jpg,properties1.xlsx,frogs/ab54.jpg,0,0,400,l,0,0,0,0,0,9,9,53,,,['l'],0,[0.28515409222109156],2018_Jul_09_1211,60.0250985158,go-nogo,001,16,
logos/1.jpg,properties1.xlsx,frogs/ab13.jpg,0,0,400,l,0,0,0,0,0,10,10,12,,,['l'],0,[0.3008173233638445],2018_Jul_09_1211,60.0250985158,go-nogo,001,16,
logos/1.jpg,properties1.xlsx,frogs/ab53.jpg,0,0,400,l,0,0,0,0,0,11,11,52,,,['l'],0,[0.25003996447867394],2018_Jul_09_1211,60.0250985158,go-nogo,001,16,
logos/1.jpg,properties1.xlsx,frogs/ab20.jpg,0,0,400,l,0,0,0,0,0,12,12,19,,,['l'],0,[0.40078256422293634],2018_Jul_09_1211,60.0250985158,go-nogo,001,16,
logos/1.jpg,properties1.xlsx,frogs/ab77.jpg,0,0,400,l,0,0,0,0,0,13,13,75,,,['l'],0,[0.7338462439929572],2018_Jul_09_1211,60.0250985158,go-nogo,001,16,
logos/1.jpg,properties1.xlsx,frogs/ab68.jpg,0,0,400,l,0,0,0,0,0,14,14,66,,,['l'],0,[1.2503352180638103],2018_Jul_09_1211,60.0250985158,go-nogo,001,16,
logos/1.jpg,properties1.xlsx,frogs/ab18.jpg,0,0,400,l,0,0,0,0,0,15,15,17,,,['l'],0,[0.25093368968555296],2018_Jul_09_1211,60.0250985158,go-nogo,001,16,
logos/1.jpg,properties1.xlsx,frogs/ab3.jpg,0,0,400,l,0,0,0,0,0,16,16,2,,,['l'],0,[0.18424449499980255],2018_Jul_09_1211,60.0250985158,go-nogo,001,16,
logos/1.jpg,properties1.xlsx,frogs/ab34.jpg,0,0,400,l,0,0,0,0,0,17,17,33,,,['l'],0,[0.23412755978824862],2018_Jul_09_1211,60.0250985158,go-nogo,001,16,
logos/1.jpg,properties1.xlsx,logos/1.jpg,0,0,400,a,0,0,0,0,0,18,18,85,,,['a'],0,[0.017686770647742378],2018_Jul_09_1211,60.0250985158,go-nogo,001,16,
logos/1.jpg,properties1.xlsx,frogs/ab7.jpg,0,0,400,l,0,0,0,0,0,19,19,6,,,['l'],0,[0.05094916347661638],2018_Jul_09_1211,60.0250985158,go-nogo,001,16,
logos/1.jpg,properties1.xlsx,frogs/ab38.jpg,0,0,400,l,0,0,0,0,0,20,20,37,,,['l'],0,[0.03412084689352923],2018_Jul_09_1211,60.0250985158,go-nogo,001,16,
logos/1.jpg,properties1.xlsx,frogs/ab29.jpg,0,0,400,l,0,0,0,0,0,21,21,28,,,['l'],0,[0.4675360434084723],2018_Jul_09_1211,60.0250985158,go-nogo,001,16,
logos/1.jpg,properties1.xlsx,frogs/ab27.jpg,0,0,400,l,0,0,0,0,0,22,22,26,,,['l'],0,[0.184251890561427],2018_Jul_09_1211,60.0250985158,go-nogo,001,16,
logos/1.jpg,properties1.xlsx,frogs/ab80.jpg,0,0,400,l,0,0,0,0,0,23,23,78,,,['l'],0,[0.23409058197921695],2018_Jul_09_1211,60.0250985158,go-nogo,001,16,
logos/1.jpg,properties1.xlsx,frogs/ab58.jpg,0,0,400,l,0,0,0,0,0,24,24,57,,,['l'],0,[0.31742718642635737],2018_Jul_09_1211,60.0250985158,go-nogo,001,16,
logos/1.jpg,properties1.xlsx,logos/1.jpg,0,0,400,a,0,0,0,0,0,25,25,83,,,['a'],0,[0.18423539276955125],2018_Jul_09_1211,60.0250985158,go-nogo,001,16,
logos/1.jpg,properties1.xlsx,frogs/ab40.jpg,0,0,400,l,0,0,0,0,0,26,26,39,,,['l'],0,[0.1676784364190098],2018_Jul_09_1211,60.0250985158,go-nogo,001,16,
logos/1.jpg,properties1.xlsx,frogs/ab30.jpg,0,0,400,l,0,0,0,0,0,27,27,29,,,['l'],0,[0.2841079046611412],2018_Jul_09_1211,60.0250985158,go-nogo,001,16,
logos/1.jpg,properties1.xlsx,frogs/ab76.jpg,0,0,400,l,0,0,0,0,0,28,28,74,,,['l'],0,[0.2003406509575143],2018_Jul_09_1211,60.0250985158,go-nogo,001,16,
logos/1.jpg,properties1.xlsx,frogs/ab41.jpg,0,0,400,l,0,0,0,0,0,29,29,40,,,['l'],0,[0.3175352754078631],2018_Jul_09_1211,60.0250985158,go-nogo,001,16,
logos/1.jpg,properties1.xlsx,logos/1.jpg,0,0,400,a,0,0,0,0,0,30,30,82,,,['a'],0,[0.06773140001951106],2018_Jul_09_1211,60.0250985158,go-nogo,001,16,
logos/1.jpg,properties1.xlsx,frogs/ab8.jpg,0,0,400,l,0,0,0,0,0,31,31,7,,,['l'],0,[0.6174241713124502],2018_Jul_09_1211,60.0250985158,go-nogo,001,16,
logos/1.jpg,properties1.xlsx,frogs/ab47.jpg,0,0,400,l,0,0,0,0,0,32,32,46,,,['l'],0,[0.21764000794155436],2018_Jul_09_1211,60.0250985158,go-nogo,001,16,
logos/1.jpg,properties1.xlsx,frogs/ab32.jpg,0,0,400,l,0,0,0,0,0,33,33,31,,,['l'],0,[0.23429253770791547],2018_Jul_09_1211,60.0250985158,go-nogo,001,16,
logos/1.jpg,properties1.xlsx,frogs/ab43.jpg,0,0,400,l,0,0,0,0,0,34,34,42,,,['l'],0,[0.11737098015692027],2018_Jul_09_1211,60.0250985158,go-nogo,001,16,
logos/1.jpg,properties1.xlsx,frogs/ab6.jpg,0,0,400,l,0,0,0,0,0,35,35,5,,,['l'],0,[0.43401765036196593],2018_Jul_09_1211,60.0250985158,go-nogo,001,16,
logos/1.jpg,properties1.xlsx,frogs/ab66.jpg,0,0,400,l,0,0,0,0,0,36,36,64,,,['l'],0,[0.23422142653544142],2018_Jul_09_1211,60.0250985158,go-nogo,001,16,
logos/1.jpg,properties1.xlsx,frogs/ab2.jpg,0,0,400,l,0,0,0,0,0,37,37,1,,,['l'],0,[0.2341889998406259],2018_Jul_09_1211,60.0250985158,go-nogo,001,16,
logos/1.jpg,properties1.xlsx,frogs/ab26.jpg,0,0,400,l,0,0,0,0,0,38,38,25,,,['l'],0,[0.28349691747280303],2018_Jul_09_1211,60.0250985158,go-nogo,001,16,
logos/1.jpg,properties1.xlsx,frogs/ab35.jpg,0,0,400,l,0,0,0,0,0,39,39,34,,,['l'],0,[0.8331885509878703],2018_Jul_09_1211,60.0250985158,go-nogo,001,16,
logos/1.jpg,properties1.xlsx,frogs/ab5.jpg,0,0,400,l,0,0,0,0,0,40,40,4,,,['a'],0,[0.18431788172892993],2018_Jul_09_1211,60.0250985158,go-nogo,001,16,
logos/1.jpg,properties1.xlsx,logos/1.jpg,0,0,400,a,0,0,0,0,0,41,41,88,,,['a'],0,[0.08392824939710408],2018_Jul_09_1211,60.0250985158,go-nogo,001,16,
logos/1.jpg,properties1.xlsx,frogs/ab65.jpg,0,0,400,l,0,0,0,0,0,42,42,63,,,['l'],0,[0.5824511281352898],2018_Jul_09_1211,60.0250985158,go-nogo,001,16,
logos/1.jpg,properties1.xlsx,frogs/ab81.jpg,0,0,400,l,0,0,0,0,0,43,43,79,,,['l'],0,[0.10089423720819468],2018_Jul_09_1211,60.0250985158,go-nogo,001,16,
logos/1.jpg,properties1.xlsx,logos/1.jpg,0,0,400,a,0,0,0,0,0,44,44,86,,,['a'],0,[0.24493532012274954],2018_Jul_09_1211,60.0250985158,go-nogo,001,16,
logos/1.jpg,properties1.xlsx,frogs/ab4.jpg,0,0,400,l,0,0,0,0,0,45,45,3,,,['l'],0,[0.26739621039996564],2018_Jul_09_1211,60.0250985158,go-nogo,001,16,
logos/1.jpg,properties1.xlsx,frogs/ab19.jpg,0,0,400,l,0,0,0,0,0,46,46,18,,,['l'],0,[0.21848765310915041],2018_Jul_09_1211,60.0250985158,go-nogo,001,16,
logos/1.jpg,properties1.xlsx,frogs/ab78.jpg,0,0,400,l,0,0,0,0,0,47,47,76,,,['l'],0,[0.26857210473735904],2018_Jul_09_1211,60.0250985158,go-nogo,001,16,
logos/1.jpg,properties1.xlsx,frogs/ab28.jpg,0,0,400,l,0,0,0,0,0,48,48,27,,,['l'],0,[0.2508642851817058],2018_Jul_09_1211,60.0250985158,go-nogo,001,16,
logos/1.jpg,properties1.xlsx,frogs/ab75.jpg,0,0,400,l,0,0,0,0,0,49,49,73,,,['l'],0,[0.2675492416419729],2018_Jul_09_1211,60.0250985158,go-nogo,001,16,
logos/1.jpg,properties1.xlsx,logos/1.jpg,0,0,400,a,0,0,0,0,0,50,50,80,,,['a'],0,[0.050863830070738913],2018_Jul_09_1211,60.0250985158,go-nogo,001,16,
logos/1.jpg,properties1.xlsx,frogs/ab11.jpg,0,0,400,l,0,0,0,0,0,51,51,10,,,['l'],0,[0.15047465284987993],2018_Jul_09_1211,60.0250985158,go-nogo,001,16,
logos/1.jpg,properties1.xlsx,frogs/ab37.jpg,0,0,400,l,0,0,0,0,0,52,52,36,,,['l'],0,[0.11893827038329619],2018_Jul_09_1211,60.0250985158,go-nogo,001,16,
logos/1.jpg,properties1.xlsx,frogs/ab39.jpg,0,0,400,l,0,0,0,0,0,53,53,38,,,['l'],0,[0.2659074269076882],2018_Jul_09_1211,60.0250985158,go-nogo,001,16,
logos/1.jpg,properties1.xlsx,frogs/ab15.jpg,0,0,400,l,0,0,0,0,0,54,54,14,,,['l'],0,[2.950261433112246],2018_Jul_09_1211,60.0250985158,go-nogo,001,16,
logos/1.jpg,properties1.xlsx,frogs/ab70.jpg,0,0,400,l,0,0,0,0,0,55,55,68,,,['l'],0,[0.3005687187078365],2018_Jul_09_1211,60.0250985158,go-nogo,001,16,
logos/1.jpg,properties1.xlsx,frogs/ab61.jpg,0,0,400,l,0,0,0,0,0,56,56,59,,,['l'],0,[0.18433324174202426],2018_Jul_09_1211,60.0250985158,go-nogo,001,16,
logos/1.jpg,properties1.xlsx,frogs/ab71.jpg,0,0,400,l,0,0,0,0,0,57,57,69,,,['l'],0,[0.23417022649209684],2018_Jul_09_1211,60.0250985158,go-nogo,001,16,
logos/1.jpg,properties1.xlsx,frogs/ab1.jpg,0,0,400,l,0,0,0,0,0,58,58,0,,,['l'],0,[0.2507806584435457],2018_Jul_09_1211,60.0250985158,go-nogo,001,16,
logos/1.jpg,properties1.xlsx,logos/1.jpg,0,0,400,a,0,0,0,0,0,59,59,81,,,['a'],0,[0.1519526274441887],2018_Jul_09_1211,60.0250985158,go-nogo,001,16,
logos/1.jpg,properties1.xlsx,logos/1.jpg,0,0,400,a,0,0,0,0,0,60,60,87,,,['a'],0,[0.23346935478275554],2018_Jul_09_1211,60.0250985158,go-nogo,001,16,
logos/1.jpg,properties1.xlsx,frogs/ab12.jpg,0,0,400,l,0,0,0,0,0,61,61,11,,,['l'],0,[0.06759315990166215],2018_Jul_09_1211,60.0250985158,go-nogo,001,16,
logos/1.jpg,properties1.xlsx,frogs/ab14.jpg,0,0,400,l,0,0,0,0,0,62,62,13,,,['l'],0,[0.06764151549941744],2018_Jul_09_1211,60.0250985158,go-nogo,001,16,
logos/1.jpg,properties1.xlsx,frogs/ab62.jpg,0,0,400,l,0,0,0,0,0,63,63,60,,,['l'],0,[0.16755271186684695],2018_Jul_09_1211,60.0250985158,go-nogo,001,16,
logos/1.jpg,properties1.xlsx,frogs/ab10.jpg,0,0,400,l,0,0,0,0,0,64,64,9,,,['l'],0,[0.26755151719953574],2018_Jul_09_1211,60.0250985158,go-nogo,001,16,
logos/1.jpg,properties1.xlsx,frogs/ab50.jpg,0,0,400,l,0,0,0,0,0,65,65,49,,,['l'],0,[0.11847576332183962],2018_Jul_09_1211,60.0250985158,go-nogo,001,16,
logos/1.jpg,properties1.xlsx,frogs/ab64.jpg,0,0,400,l,0,0,0,0,0,66,66,62,,,['l'],0,[0.5832993421936408],2018_Jul_09_1211,60.0250985158,go-nogo,001,16,
logos/1.jpg,properties1.xlsx,frogs/ab72.jpg,0,0,400,l,0,0,0,0,0,67,67,70,,,['l'],0,[0.0011195742890777183],2018_Jul_09_1211,60.0250985158,go-nogo,001,16,
logos/1.jpg,properties1.xlsx,frogs/ab56.jpg,0,0,400,l,0,0,0,0,0,68,68,55,,,['l'],0,[0.5340380734905921],2018_Jul_09_1211,60.0250985158,go-nogo,001,16,
logos/1.jpg,properties1.xlsx,frogs/ab9.jpg,0,0,400,l,0,0,0,0,0,69,69,8,,,['l'],0,[0.23421459986366244],2018_Jul_09_1211,60.0250985158,go-nogo,001,16,
logos/1.jpg,properties1.xlsx,frogs/ab23.jpg,0,0,400,l,0,0,0,0,0,70,70,22,,,['l'],0,[0.25109411648918467],2018_Jul_09_1211,60.0250985158,go-nogo,001,16,
logos/1.jpg,properties1.xlsx,frogs/ab48.jpg,0,0,400,l,0,0,0,0,0,71,71,47,,,['l'],0,[0.11735050013885484],2018_Jul_09_1211,60.0250985158,go-nogo,001,16,
logos/1.jpg,properties1.xlsx,frogs/ab55.jpg,0,0,400,l,0,0,0,0,0,72,72,54,,,['l'],0,[0.40072510639674874],2018_Jul_09_1211,60.0250985158,go-nogo,001,16,
logos/1.jpg,properties1.xlsx,frogs/ab45.jpg,0,0,400,l,0,0,0,0,0,73,73,44,,,['l'],0,[0.18434006841471273],2018_Jul_09_1211,60.0250985158,go-nogo,001,16,
logos/1.jpg,properties1.xlsx,frogs/ab60.jpg,0,0,400,l,0,0,0,0,0,74,74,58,,,['l'],0,[0.26655937413033826],2018_Jul_09_1211,60.0250985158,go-nogo,001,16,
logos/1.jpg,properties1.xlsx,frogs/ab63.jpg,0,0,400,l,0,0,0,0,0,75,75,61,,,['l'],0,[0.23442110670657712],2018_Jul_09_1211,60.0250985158,go-nogo,001,16,
logos/1.jpg,properties1.xlsx,frogs/ab25.jpg,0,0,400,l,0,0,0,0,0,76,76,24,,,['l'],0,[0.21706144744803169],2018_Jul_09_1211,60.0250985158,go-nogo,001,16,
logos/1.jpg,properties1.xlsx,logos/1.jpg,0,0,400,a,0,0,0,0,0,77,77,89,,,['a'],0,[0.06764379105607077],2018_Jul_09_1211,60.0250985158,go-nogo,001,16,
logos/1.jpg,properties1.xlsx,frogs/ab24.jpg,0,0,400,l,0,0,0,0,0,78,78,23,,,['l'],0,[0.6005463613555548],2018_Jul_09_1211,60.0250985158,go-nogo,001,16,
logos/1.jpg,properties1.xlsx,frogs/ab73.jpg,0,0,400,l,0,0,0,0,0,79,79,71,,,['l'],0,[0.23435852887450892],2018_Jul_09_1211,60.0250985158,go-nogo,001,16,
logos/1.jpg,properties1.xlsx,frogs/ab21.jpg,0,0,400,l,0,0,0,0,0,80,80,20,,,['l'],0,[0.23429367548669688],2018_Jul_09_1211,60.0250985158,go-nogo,001,16,
logos/1.jpg,properties1.xlsx,frogs/ab31.jpg,0,0,400,l,0,0,0,0,0,81,81,30,,,['l'],0,[0.26745366822706274],2018_Jul_09_1211,60.0250985158,go-nogo,001,16,
logos/1.jpg,properties1.xlsx,frogs/ab49.jpg,0,0,400,l,0,0,0,0,0,82,82,48,,,['l'],0,[0.25070556504670094],2018_Jul_09_1211,60.0250985158,go-nogo,001,16,
logos/1.jpg,properties1.xlsx,frogs/ab79.jpg,0,0,400,l,0,0,0,0,0,83,83,77,,,['l'],0,[0.23456446682848764],2018_Jul_09_1211,60.0250985158,go-nogo,001,16,
logos/1.jpg,properties1.xlsx,frogs/ab22.jpg,0,0,400,l,0,0,0,0,0,84,84,21,,,['l'],0,[0.21764455905668],2018_Jul_09_1211,60.0250985158,go-nogo,001,16,
logos/1.jpg,properties1.xlsx,logos/1.jpg,0,0,400,a,0,0,0,0,0,85,85,84,,,['a'],0,[0.0509867101754935],2018_Jul_09_1211,60.0250985158,go-nogo,001,16,
logos/1.jpg,properties1.xlsx,frogs/ab16.jpg,0,0,400,l,0,0,0,0,0,86,86,15,,,['l'],0,[0.08492437469158176],2018_Jul_09_1211,60.0250985158,go-nogo,001,16,
logos/1.jpg,properties1.xlsx,frogs/ab67.jpg,0,0,400,l,0,0,0,0,0,87,87,65,,,['l'],0,[0.2342060665223471],2018_Jul_09_1211,60.0250985158,go-nogo,001,16,
logos/1.jpg,properties1.xlsx,frogs/ab57.jpg,0,0,400,l,0,0,0,0,0,88,88,56,,,['l'],0,[0.11746882912939327],2018_Jul_09_1211,60.0250985158,go-nogo,001,16,
logos/1.jpg,properties1.xlsx,frogs/ab69.jpg,0,0,400,l,0,0,0,0,0,89,89,67,,,['l'],0,[0.5175340238511126],2018_Jul_09_1211,60.0250985158,go-nogo,001,16,
logos/1.jpg,properties1.xlsx,,,,,,0,0,0,0,,,,,,,,,,2018_Jul_09_1211,60.0250985158,go-nogo,001,16,
logos/3.jpg,properties3.xlsx,frogs/ab78.jpg,0,0,400,l,0,1,1,2,0,0,0,76,space,14.49221162,['l'],0,[0.0841825429470191],2018_Jul_09_1211,60.0250985158,go-nogo,001,16,
logos/3.jpg,properties3.xlsx,frogs/ab31.jpg,0,0,400,l,0,1,1,2,0,1,1,30,,,['l'],0,[0.18422344609280117],2018_Jul_09_1211,60.0250985158,go-nogo,001,16,
logos/3.jpg,properties3.xlsx,logos/3.jpg,0,0,400,a,0,1,1,2,0,2,2,87,,,['a'],0,[0.25101731642371305],2018_Jul_09_1211,60.0250985158,go-nogo,001,16,
logos/3.jpg,properties3.xlsx,frogs/ab66.jpg,0,0,400,l,0,1,1,2,0,3,3,64,,,['l'],0,[0.43353068105716375],2018_Jul_09_1211,60.0250985158,go-nogo,001,16,
logos/3.jpg,properties3.xlsx,frogs/ab9.jpg,0,0,400,l,0,1,1,2,0,4,4,8,,,['l'],0,[0.11753538918583217],2018_Jul_09_1211,60.0250985158,go-nogo,001,16,
logos/3.jpg,properties3.xlsx,frogs/ab7.jpg,0,0,400,l,0,1,1,2,0,5,5,6,,,['l'],0,[0.20117691833820572],2018_Jul_09_1211,60.0250985158,go-nogo,001,16,
logos/3.jpg,properties3.xlsx,frogs/ab3.jpg,0,0,400,l,0,1,1,2,0,6,6,2,,,['l'],0,[0.23442338226323045],2018_Jul_09_1211,60.0250985158,go-nogo,001,16,
logos/3.jpg,properties3.xlsx,frogs/ab68.jpg,0,0,400,l,0,1,1,2,0,7,7,66,,,['l'],0,[0.18431674395014852],2018_Jul_09_1211,60.0250985158,go-nogo,001,16,
logos/3.jpg,properties3.xlsx,logos/3.jpg,0,0,400,a,0,1,1,2,0,8,8,85,,,['a'],0,[0.1844748951962174],2018_Jul_09_1211,60.0250985158,go-nogo,001,16,
logos/3.jpg,properties3.xlsx,frogs/ab47.jpg,0,0,400,l,0,1,1,2,0,9,9,46,,,['l'],0,[0.3006381232107742],2018_Jul_09_1211,60.0250985158,go-nogo,001,16,
logos/3.jpg,properties3.xlsx,frogs/ab36.jpg,0,0,400,l,0,1,1,2,0,10,10,35,,,['l'],0,[0.18436566843683977],2018_Jul_09_1211,60.0250985158,go-nogo,001,16,
logos/3.jpg,properties3.xlsx,frogs/ab6.jpg,0,0,400,l,0,1,1,2,0,11,11,5,,,['l'],0,[0.2335103148179769],2018_Jul_09_1211,60.0250985158,go-nogo,001,16,
logos/3.jpg,properties3.xlsx,frogs/ab75.jpg,0,0,400,l,0,1,1,2,0,12,12,73,,,['l'],0,[0.11770662488743255],2018_Jul_09_1211,60.0250985158,go-nogo,001,16,
logos/3.jpg,properties3.xlsx,frogs/ab64.jpg,0,0,400,l,0,1,1,2,0,13,13,62,,,['l'],0,[0.18434518841877434],2018_Jul_09_1211,60.0250985158,go-nogo,001,16,
logos/3.jpg,properties3.xlsx,frogs/ab67.jpg,0,0,400,l,0,1,1,2,0,14,14,65,,,['l'],0,[0.1509462621415878],2018_Jul_09_1211,60.0250985158,go-nogo,001,16,
logos/3.jpg,properties3.xlsx,frogs/ab24.jpg,0,0,400,l,0,1,1,2,0,15,15,23,,,['l'],0,[0.1676471475038852],2018_Jul_09_1211,60.0250985158,go-nogo,001,16,
logos/3.jpg,properties3.xlsx,frogs/ab55.jpg,0,0,400,l,0,1,1,2,0,16,16,54,,,['l'],0,[0.25093141412799014],2018_Jul_09_1211,60.0250985158,go-nogo,001,16,
logos/3.jpg,properties3.xlsx,frogs/ab27.jpg,0,0,400,l,0,1,1,2,0,17,17,26,,,['l'],0,[0.118203265311422],2018_Jul_09_1211,60.0250985158,go-nogo,001,16,
logos/3.jpg,properties3.xlsx,frogs/ab33.jpg,0,0,400,l,0,1,1,2,0,18,18,32,,,['l'],0,[0.017642397277086275],2018_Jul_09_1211,60.0250985158,go-nogo,001,16,
logos/3.jpg,properties3.xlsx,frogs/ab73.jpg,0,0,400,l,0,1,1,2,0,19,19,71,,,['l'],0,[0.5190404429140472],2018_Jul_09_1211,60.0250985158,go-nogo,001,16,
logos/3.jpg,properties3.xlsx,frogs/ab79.jpg,0,0,400,l,0,1,1,2,0,20,20,77,,,['l'],0,[0.1340690210727189],2018_Jul_09_1211,60.0250985158,go-nogo,001,16,
logos/3.jpg,properties3.xlsx,frogs/ab43.jpg,0,0,400,l,0,1,1,2,0,21,21,42,,,['l'],0,[0.15095707103864697],2018_Jul_09_1211,60.0250985158,go-nogo,001,16,
logos/3.jpg,properties3.xlsx,logos/3.jpg,0,0,400,a,0,1,1,2,0,22,22,83,,,['a'],0,[0.23355411929878755],2018_Jul_09_1211,60.0250985158,go-nogo,001,16,
logos/3.jpg,properties3.xlsx,frogs/ab34.jpg,0,0,400,l,0,1,1,2,0,23,23,33,,,['l'],0,[0.2176172523668356],2018_Jul_09_1211,60.0250985158,go-nogo,001,16,
logos/3.jpg,properties3.xlsx,frogs/ab21.jpg,0,0,400,l,0,1,1,2,0,24,24,20,,,['l'],0,[0.23431415550294332],2018_Jul_09_1211,60.0250985158,go-nogo,001,16,
logos/3.jpg,properties3.xlsx,frogs/ab71.jpg,0,0,400,l,0,1,1,2,0,25,25,69,,,['l'],0,[0.21752395450948825],2018_Jul_09_1211,60.0250985158,go-nogo,001,16,
logos/3.jpg,properties3.xlsx,frogs/ab61.jpg,0,0,400,l,0,1,1,2,0,26,26,59,,,['l'],0,[0.1770759199935128],2018_Jul_09_1211,60.0250985158,go-nogo,001,16,
logos/3.jpg,properties3.xlsx,frogs/ab35.jpg,0,0,400,l,0,1,1,2,0,27,27,34,,,['l'],0,[0.1678951832700477],2018_Jul_09_1211,60.0250985158,go-nogo,001,16,
logos/3.jpg,properties3.xlsx,frogs/ab26.jpg,0,0,400,l,0,1,1,2,0,28,28,25,,,['l'],0,[0.16769664087951242],2018_Jul_09_1211,60.0250985158,go-nogo,001,16,
logos/3.jpg,properties3.xlsx,logos/3.jpg,0,0,400,a,0,1,1,2,0,29,29,88,,,['a'],0,[0.15038419943903136],2018_Jul_09_1211,60.0250985158,go-nogo,001,16,
logos/3.jpg,properties3.xlsx,frogs/ab76.jpg,0,0,400,l,0,1,1,2,0,30,30,74,,,['l'],0,[0.06681662590563064],2018_Jul_09_1211,60.0250985158,go-nogo,001,16,
logos/3.jpg,properties3.xlsx,frogs/ab29.jpg,0,0,400,l,0,1,1,2,0,31,31,28,,,['l'],0,[0.11761617147658399],2018_Jul_09_1211,60.0250985158,go-nogo,001,16,
logos/3.jpg,properties3.xlsx,frogs/ab46.jpg,0,0,400,l,0,1,1,2,0,32,32,45,,,['l'],0,[0.08438392978496267],2018_Jul_09_1211,60.0250985158,go-nogo,001,16,
logos/3.jpg,properties3.xlsx,frogs/ab39.jpg,0,0,400,l,0,1,1,2,0,33,33,38,,,['l'],0,[0.2683491001025686],2018_Jul_09_1211,60.0250985158,go-nogo,001,16,
logos/3.jpg,properties3.xlsx,frogs/ab2.jpg,0,0,400,l,0,1,1,2,0,34,34,1,,,['l'],0,[0.11753026918177056],2018_Jul_09_1211,60.0250985158,go-nogo,001,16,
logos/3.jpg,properties3.xlsx,logos/3.jpg,0,0,400,a,0,1,1,2,0,35,35,82,,,['a'],0,[0.017660601736679382],2018_Jul_09_1211,60.0250985158,go-nogo,001,16,
logos/3.jpg,properties3.xlsx,frogs/ab74.jpg,0,0,400,l,0,1,1,2,0,36,36,72,,,['l'],0,[0.634159758927126],2018_Jul_09_1211,60.0250985158,go-nogo,001,16,
logos/3.jpg,properties3.xlsx,frogs/ab54.jpg,0,0,400,l,0,1,1,2,0,37,37,53,,,['l'],0,[0.10019905439185095],2018_Jul_09_1211,60.0250985158,go-nogo,001,16,
logos/3.jpg,properties3.xlsx,frogs/ab16.jpg,0,0,400,l,0,1,1,2,0,38,38,15,,,['l'],0,[0.15096275993255404],2018_Jul_09_1211,60.0250985158,go-nogo,001,16,
logos/3.jpg,properties3.xlsx,frogs/ab32.jpg,0,0,400,l,0,1,1,2,0,39,39,31,,,['l'],0,[0.13419474562306277],2018_Jul_09_1211,60.0250985158,go-nogo,001,16,
logos/3.jpg,properties3.xlsx,frogs/ab45.jpg,0,0,400,l,0,1,1,2,0,40,40,44,,,['l'],0,[0.1675794496677554],2018_Jul_09_1211,60.0250985158,go-nogo,001,16,
logos/3.jpg,properties3.xlsx,frogs/ab17.jpg,0,0,400,l,0,1,1,2,0,41,41,16,,,['l'],0,[0.018622593668624177],2018_Jul_09_1211,60.0250985158,go-nogo,001,16,
logos/3.jpg,properties3.xlsx,frogs/ab51.jpg,0,0,400,l,0,1,1,2,0,42,42,50,,,['l'],0,[0.23416453759818978],2018_Jul_09_1211,60.0250985158,go-nogo,001,16,
logos/3.jpg,properties3.xlsx,frogs/ab65.jpg,0,0,400,l,0,1,1,2,0,43,43,63,,,['l'],0,[0.2175455723054256],2018_Jul_09_1211,60.0250985158,go-nogo,001,16,
logos/3.jpg,properties3.xlsx,frogs/ab80.jpg,0,0,400,l,0,1,1,2,0,44,44,78,,,['l'],0,[0.1841369749081423],2018_Jul_09_1211,60.0250985158,go-nogo,001,16,
logos/3.jpg,properties3.xlsx,frogs/ab72.jpg,0,0,400,l,0,1,1,2,0,45,45,70,,,['l'],0,[0.11780049163371586],2018_Jul_09_1211,60.0250985158,go-nogo,001,16,
logos/3.jpg,properties3.xlsx,logos/3.jpg,0,0,400,a,0,1,1,2,0,46,46,86,,,['a'],0,[0.10099208617975819],2018_Jul_09_1211,60.0250985158,go-nogo,001,16,
logos/3.jpg,properties3.xlsx,frogs/ab62.jpg,0,0,400,l,0,1,1,2,0,47,47,60,,,['l'],0,[0.18416086826255196],2018_Jul_09_1211,60.0250985158,go-nogo,001,16,
logos/3.jpg,properties3.xlsx,frogs/ab50.jpg,0,0,400,l,0,1,1,2,0,48,48,49,,,['l'],0,[0.2175233856196428],2018_Jul_09_1211,60.0250985158,go-nogo,001,16,
logos/3.jpg,properties3.xlsx,frogs/ab58.jpg,0,0,400,l,0,1,1,2,0,49,49,57,,,['l'],0,[0.13429202570659982],2018_Jul_09_1211,60.0250985158,go-nogo,001,16,
logos/3.jpg,properties3.xlsx,frogs/ab8.jpg,0,0,400,l,0,1,1,2,0,50,50,7,,,['l'],0,[0.4675974834608496],2018_Jul_09_1211,60.0250985158,go-nogo,001,16,
logos/3.jpg,properties3.xlsx,frogs/ab40.jpg,0,0,400,l,0,1,1,2,0,51,51,39,,,['l'],0,[0.31717175509766093],2018_Jul_09_1211,60.0250985158,go-nogo,001,16,
logos/3.jpg,properties3.xlsx,frogs/ab11.jpg,0,0,400,l,0,1,1,2,0,52,52,10,,,['l'],0,[0.38411012332926475],2018_Jul_09_1211,60.0250985158,go-nogo,001,16,
logos/3.jpg,properties3.xlsx,frogs/ab60.jpg,0,0,400,l,0,1,1,2,0,53,53,58,,,['l'],0,[0.26759077056613023],2018_Jul_09_1211,60.0250985158,go-nogo,001,16,
logos/3.jpg,properties3.xlsx,frogs/ab44.jpg,0,0,400,l,0,1,1,2,0,54,54,43,,,['l'],0,[0.06764379105607077],2018_Jul_09_1211,60.0250985158,go-nogo,001,16,
logos/3.jpg,properties3.xlsx,frogs/ab19.jpg,0,0,400,l,0,1,1,2,0,55,55,18,,,['l'],0,[0.11765087372896232],2018_Jul_09_1211,60.0250985158,go-nogo,001,16,
logos/3.jpg,properties3.xlsx,logos/3.jpg,0,0,400,a,0,1,1,2,0,56,56,89,,,['a'],0,[0.05091275455652067],2018_Jul_09_1211,60.0250985158,go-nogo,001,16,
logos/3.jpg,properties3.xlsx,frogs/ab57.jpg,0,0,400,l,0,1,1,2,0,57,57,56,,,['l'],0,[0.08436970755064976],2018_Jul_09_1211,60.0250985158,go-nogo,001,16,
logos/3.jpg,properties3.xlsx,frogs/ab81.jpg,0,0,400,l,0,1,1,2,0,58,58,79,,,['l'],0,[0.21684697615364712],2018_Jul_09_1211,60.0250985158,go-nogo,001,16,
logos/3.jpg,properties3.xlsx,frogs/ab10.jpg,0,0,400,l,0,1,1,2,0,59,59,9,,,['l'],0,[0.11778342495290417],2018_Jul_09_1211,60.0250985158,go-nogo,001,16,
logos/3.jpg,properties3.xlsx,frogs/ab41.jpg,0,0,400,l,0,1,1,2,0,60,60,40,,,['l'],0,[0.11774018936011998],2018_Jul_09_1211,60.0250985158,go-nogo,001,16,
logos/3.jpg,properties3.xlsx,frogs/ab23.jpg,0,0,400,l,0,1,1,2,0,61,61,22,,,['l'],0,[0.13437906578110415],2018_Jul_09_1211,60.0250985158,go-nogo,001,16,
logos/3.jpg,properties3.xlsx,frogs/ab22.jpg,0,0,400,l,0,1,1,2,0,62,62,21,,,['l'],0,[0.15109588004634134],2018_Jul_09_1211,60.0250985158,go-nogo,001,16,
logos/3.jpg,properties3.xlsx,frogs/ab70.jpg,0,0,400,l,0,1,1,2,0,63,63,68,,,['l'],0,[0.11765713151271484],2018_Jul_09_1211,60.0250985158,go-nogo,001,16,
logos/3.jpg,properties3.xlsx,frogs/ab37.jpg,0,0,400,l,0,1,1,2,0,64,64,36,,,['l'],0,[0.06767849330753961],2018_Jul_09_1211,60.0250985158,go-nogo,001,16,
logos/3.jpg,properties3.xlsx,logos/3.jpg,0,0,400,a,0,1,1,2,0,65,65,80,,,['l'],0,[0.4841971065152393],2018_Jul_09_1211,60.0250985158,go-nogo,001,16,
logos/3.jpg,properties3.xlsx,frogs/ab69.jpg,0,0,400,l,0,1,1,2,0,66,66,67,,,['a'],0,[0.2675259171774087],2018_Jul_09_1211,60.0250985158,go-nogo,001,16,
logos/3.jpg,properties3.xlsx,frogs/ab56.jpg,0,0,400,l,0,1,1,2,0,67,67,55,,,['l'],0,[0.18437135732983734],2018_Jul_09_1211,60.0250985158,go-nogo,001,16,
logos/3.jpg,properties3.xlsx,frogs/ab77.jpg,0,0,400,l,0,1,1,2,0,68,68,75,,,['l'],0,[0.15300621056485397],2018_Jul_09_1211,60.0250985158,go-nogo,001,16,
logos/3.jpg,properties3.xlsx,frogs/ab63.jpg,0,0,400,l,0,1,1,2,0,69,69,61,,,['l'],0,[0.10084815716891171],2018_Jul_09_1211,60.0250985158,go-nogo,001,16,
logos/3.jpg,properties3.xlsx,frogs/ab1.jpg,0,0,400,l,0,1,1,2,0,70,70,0,,,['l'],0,[0.12693059720368183],2018_Jul_09_1211,60.0250985158,go-nogo,001,16,
logos/3.jpg,properties3.xlsx,frogs/ab18.jpg,0,0,400,l,0,1,1,2,0,71,71,17,,,['l'],0,[0.1834867343532096],2018_Jul_09_1211,60.0250985158,go-nogo,001,16,
logos/3.jpg,properties3.xlsx,frogs/ab38.jpg,0,0,400,l,0,1,1,2,0,72,72,37,,,['l'],0,[0.1676983475472298],2018_Jul_09_1211,60.0250985158,go-nogo,001,16,
logos/3.jpg,properties3.xlsx,frogs/ab20.jpg,0,0,400,l,0,1,1,2,0,73,73,19,,,['l'],0,[0.28438836712302873],2018_Jul_09_1211,60.0250985158,go-nogo,001,16,
logos/3.jpg,properties3.xlsx,logos/3.jpg,0,0,400,a,0,1,1,2,0,74,74,84,,,['a'],0,[0.28425126478305174],2018_Jul_09_1211,60.0250985158,go-nogo,001,16,
logos/3.jpg,properties3.xlsx,frogs/ab4.jpg,0,0,400,l,0,1,1,2,0,75,75,3,,,['l'],0,[0.15083987982779945],2018_Jul_09_1211,60.0250985158,go-nogo,001,16,
logos/3.jpg,properties3.xlsx,frogs/ab12.jpg,0,0,400,l,0,1,1,2,0,76,76,11,,,['l'],0,[0.18427237057949242],2018_Jul_09_1211,60.0250985158,go-nogo,001,16,
logos/3.jpg,properties3.xlsx,frogs/ab48.jpg,0,0,400,l,0,1,1,2,0,77,77,47,,,['l'],0,[0.13453209702311142],2018_Jul_09_1211,60.0250985158,go-nogo,001,16,
logos/3.jpg,properties3.xlsx,frogs/ab52.jpg,0,0,400,l,0,1,1,2,0,78,78,51,,,['l'],0,[0.1676147208090697],2018_Jul_09_1211,60.0250985158,go-nogo,001,16,
logos/3.jpg,properties3.xlsx,frogs/ab15.jpg,0,0,400,l,0,1,1,2,0,79,79,14,,,['l'],0,[0.40103970222116914],2018_Jul_09_1211,60.0250985158,go-nogo,001,16,
logos/3.jpg,properties3.xlsx,frogs/ab14.jpg,0,0,400,l,0,1,1,2,0,80,80,13,,,['l'],0,[0.2841158691126111],2018_Jul_09_1211,60.0250985158,go-nogo,001,16,
logos/3.jpg,properties3.xlsx,frogs/ab13.jpg,0,0,400,l,0,1,1,2,0,81,81,12,,,['l'],0,[0.18425928612305142],2018_Jul_09_1211,60.0250985158,go-nogo,001,16,
logos/3.jpg,properties3.xlsx,logos/3.jpg,0,0,400,a,0,1,1,2,0,82,82,81,,,['a'],0,[0.300601714291588],2018_Jul_09_1211,60.0250985158,go-nogo,001,16,
logos/3.jpg,properties3.xlsx,frogs/ab30.jpg,0,0,400,l,0,1,1,2,0,83,83,29,,,['l'],0,[0.4673955277330606],2018_Jul_09_1211,60.0250985158,go-nogo,001,16,
logos/3.jpg,properties3.xlsx,frogs/ab25.jpg,0,0,400,l,0,1,1,2,0,84,84,24,,,['l'],0,[0.23424702655665897],2018_Jul_09_1211,60.0250985158,go-nogo,001,16,
logos/3.jpg,properties3.xlsx,frogs/ab5.jpg,0,0,400,l,0,1,1,2,0,85,85,4,,,['l'],0,[0.23420777319097397],2018_Jul_09_1211,60.0250985158,go-nogo,001,16,
logos/3.jpg,properties3.xlsx,frogs/ab42.jpg,0,0,400,l,0,1,1,2,0,86,86,41,,,['l'],0,[0.23416851982437947],2018_Jul_09_1211,60.0250985158,go-nogo,001,16,
logos/3.jpg,properties3.xlsx,frogs/ab28.jpg,0,0,400,l,0,1,1,2,0,87,87,27,,,['l'],0,[0.18436453065714886],2018_Jul_09_1211,60.0250985158,go-nogo,001,16,
logos/3.jpg,properties3.xlsx,frogs/ab53.jpg,0,0,400,l,0,1,1,2,0,88,88,52,,,['l'],0,[0.16749127181446966],2018_Jul_09_1211,60.0250985158,go-nogo,001,16,
logos/3.jpg,properties3.xlsx,frogs/ab49.jpg,0,0,400,l,0,1,1,2,0,89,89,48,,,['l'],0,[0.20318509782919136],2018_Jul_09_1211,60.0250985158,go-nogo,001,16,
logos/3.jpg,properties3.xlsx,,,,,,0,1,1,2,,,,,,,,,,2018_Jul_09_1211,60.0250985158,go-nogo,001,16,
logos/2.jpg,properties2.xlsx,frogs/ab42.jpg,0,0,400,l,0,2,2,1,0,0,0,41,space,2.95453493009,['l'],0,[0.18422344609280117],2018_Jul_09_1211,60.0250985158,go-nogo,001,16,
logos/2.jpg,properties2.xlsx,frogs/ab53.jpg,0,0,400,l,0,2,2,1,0,1,1,52,,,['l'],0,[0.13351207837422407],2018_Jul_09_1211,60.0250985158,go-nogo,001,16,
logos/2.jpg,properties2.xlsx,frogs/ab49.jpg,0,0,400,l,0,2,2,1,0,2,2,48,,,['l'],0,[0.18415574825758085],2018_Jul_09_1211,60.0250985158,go-nogo,001,16,
logos/2.jpg,properties2.xlsx,frogs/ab77.jpg,0,0,400,l,0,2,2,1,0,3,3,75,,,['l'],0,[0.18418305494742526],2018_Jul_09_1211,60.0250985158,go-nogo,001,16,
logos/2.jpg,properties2.xlsx,frogs/ab3.jpg,0,0,400,l,0,2,2,1,0,4,4,2,,,['l'],0,[0.2841943758458001],2018_Jul_09_1211,60.0250985158,go-nogo,001,16,
logos/2.jpg,properties2.xlsx,frogs/ab56.jpg,0,0,400,l,0,2,2,1,0,5,5,55,,,['l'],0,[0.2509865963975244],2018_Jul_09_1211,60.0250985158,go-nogo,001,16,
logos/2.jpg,properties2.xlsx,frogs/ab76.jpg,0,0,400,l,0,2,2,1,0,6,6,74,,,['l'],0,[0.25095587637133576],2018_Jul_09_1211,60.0250985158,go-nogo,001,16,
logos/2.jpg,properties2.xlsx,frogs/ab64.jpg,0,0,400,l,0,2,2,1,0,7,7,62,,,['l'],0,[0.2509342585753984],2018_Jul_09_1211,60.0250985158,go-nogo,001,16,
logos/2.jpg,properties2.xlsx,logos/2.jpg,0,0,400,a,0,2,2,1,0,8,8,83,,,['a'],0,[0.31743913310401695],2018_Jul_09_1211,60.0250985158,go-nogo,001,16,
logos/2.jpg,properties2.xlsx,frogs/ab70.jpg,0,0,400,l,0,2,2,1,0,9,9,68,,,['l'],0,[0.1840010103478562],2018_Jul_09_1211,60.0250985158,go-nogo,001,16,
logos/2.jpg,properties2.xlsx,frogs/ab1.jpg,0,0,400,l,0,2,2,1,0,10,10,0,,,['l'],0,[0.21758539456186554],2018_Jul_09_1211,60.0250985158,go-nogo,001,16,
logos/2.jpg,properties2.xlsx,frogs/ab50.jpg,0,0,400,l,0,2,2,1,0,11,11,49,,,['l'],0,[0.21757629233161424],2018_Jul_09_1211,60.0250985158,go-nogo,001,16,
logos/2.jpg,properties2.xlsx,frogs/ab32.jpg,0,0,400,l,0,2,2,1,0,12,12,31,,,['l'],0,[0.23423507987990888],2018_Jul_09_1211,60.0250985158,go-nogo,001,16,
logos/2.jpg,properties2.xlsx,frogs/ab38.jpg,0,0,400,l,0,2,2,1,0,13,13,37,,,['l'],0,[0.21754898564176983],2018_Jul_09_1211,60.0250985158,go-nogo,001,16,
logos/2.jpg,properties2.xlsx,frogs/ab20.jpg,0,0,400,l,0,2,2,1,0,14,14,19,,,['l'],0,[0.1507124486079192],2018_Jul_09_1211,60.0250985158,go-nogo,001,16,
logos/2.jpg,properties2.xlsx,logos/2.jpg,0,0,400,a,0,2,2,1,0,15,15,82,,,['a'],0,[0.21774866581290553],2018_Jul_09_1211,60.0250985158,go-nogo,001,16,
logos/2.jpg,properties2.xlsx,frogs/ab48.jpg,0,0,400,l,0,2,2,1,0,16,16,47,,,['l'],0,[0.21766219462733716],2018_Jul_09_1211,60.0250985158,go-nogo,001,16,
logos/2.jpg,properties2.xlsx,frogs/ab26.jpg,0,0,400,l,0,2,2,1,0,17,17,25,,,['l'],0,[0.2509826141722442],2018_Jul_09_1211,60.0250985158,go-nogo,001,16,
logos/2.jpg,properties2.xlsx,frogs/ab17.jpg,0,0,400,l,0,2,2,1,0,18,18,16,,,['l'],0,[0.23423166654447414],2018_Jul_09_1211,60.0250985158,go-nogo,001,16,
logos/2.jpg,properties2.xlsx,frogs/ab60.jpg,0,0,400,l,0,2,2,1,0,19,19,58,,,['l'],0,[0.2677073928889513],2018_Jul_09_1211,60.0250985158,go-nogo,001,16,
logos/2.jpg,properties2.xlsx,frogs/ab41.jpg,0,0,400,l,0,2,2,1,0,20,20,40,,,['l'],0,[0.334249245225692],2018_Jul_09_1211,60.0250985158,go-nogo,001,16,
logos/2.jpg,properties2.xlsx,frogs/ab29.jpg,0,0,400,l,0,2,2,1,0,21,21,28,,,['l'],0,[0.26747813047040836],2018_Jul_09_1211,60.0250985158,go-nogo,001,16,
logos/2.jpg,properties2.xlsx,frogs/ab80.jpg,0,0,400,l,0,2,2,1,0,22,22,78,,,['l'],0,[0.3174499420010761],2018_Jul_09_1211,60.0250985158,go-nogo,001,16,
logos/2.jpg,properties2.xlsx,frogs/ab65.jpg,0,0,400,l,0,2,2,1,0,23,23,63,,,['l'],0,[0.23420265318600286],2018_Jul_09_1211,60.0250985158,go-nogo,001,16,
logos/2.jpg,properties2.xlsx,logos/2.jpg,0,0,400,a,0,2,2,1,0,24,24,86,,,['a'],0,[0.23442622670972924],2018_Jul_09_1211,60.0250985158,go-nogo,001,16,
logos/2.jpg,properties2.xlsx,frogs/ab12.jpg,0,0,400,l,0,2,2,1,0,25,25,11,,,['l'],0,[0.2342697821331967],2018_Jul_09_1211,60.0250985158,go-nogo,001,16,
logos/2.jpg,properties2.xlsx,frogs/ab22.jpg,0,0,400,l,0,2,2,1,0,26,26,21,,,['l'],0,[0.33397560943649296],2018_Jul_09_1211,60.0250985158,go-nogo,001,16,
logos/2.jpg,properties2.xlsx,frogs/ab10.jpg,0,0,400,l,0,2,2,1,0,27,27,9,,,['l'],0,[0.3172861018620097],2018_Jul_09_1211,60.0250985158,go-nogo,001,16,
logos/2.jpg,properties2.xlsx,frogs/ab25.jpg,0,0,400,l,0,2,2,1,0,28,28,24,,,['l'],0,[0.3182424049000474],2018_Jul_09_1211,60.0250985158,go-nogo,001,16,
logos/2.jpg,properties2.xlsx,frogs/ab62.jpg,0,0,400,l,0,2,2,1,0,29,29,60,,,['l'],0,[0.31735664414463827],2018_Jul_09_1211,60.0250985158,go-nogo,001,16,
logos/2.jpg,properties2.xlsx,frogs/ab74.jpg,0,0,400,l,0,2,2,1,0,30,30,72,,,['l'],0,[0.3175699776602414],2018_Jul_09_1211,60.0250985158,go-nogo,001,16,
logos/2.jpg,properties2.xlsx,frogs/ab33.jpg,0,0,400,l,0,2,2,1,0,31,31,32,,,['l'],0,[0.6339771454386209],2018_Jul_09_1211,60.0250985158,go-nogo,001,16,
logos/2.jpg,properties2.xlsx,frogs/ab14.jpg,0,0,400,l,0,2,2,1,0,32,32,13,,,['l'],0,[0.050994105737117934],2018_Jul_09_1211,60.0250985158,go-nogo,001,16,
logos/2.jpg,properties2.xlsx,frogs/ab72.jpg,0,0,400,l,0,2,2,1,0,33,33,70,,,['l'],0,[0.4338657568987401],2018_Jul_09_1211,60.0250985158,go-nogo,001,16,
logos/2.jpg,properties2.xlsx,frogs/ab71.jpg,0,0,400,l,0,2,2,1,0,34,34,69,,,['l'],0,[0.21755695009323972],2018_Jul_09_1211,60.0250985158,go-nogo,001,16,
logos/2.jpg,properties2.xlsx,frogs/ab79.jpg,0,0,400,l,0,2,2,1,0,35,35,77,,,['l'],0,[0.5180022198064762],2018_Jul_09_1211,60.0250985158,go-nogo,001,16,
logos/2.jpg,properties2.xlsx,frogs/ab63.jpg,0,0,400,l,0,2,2,1,0,36,36,61,,,['l'],0,[0.41756423187689506],2018_Jul_09_1211,60.0250985158,go-nogo,001,16,
logos/2.jpg,properties2.xlsx,frogs/ab81.jpg,0,0,400,l,0,2,2,1,0,37,37,79,,,['l'],0,[0.2341696576022514],2018_Jul_09_1211,60.0250985158,go-nogo,001,16,
logos/2.jpg,properties2.xlsx,frogs/ab35.jpg,0,0,400,l,0,2,2,1,0,38,38,34,,,['l'],0,[0.2509644097117416],2018_Jul_09_1211,60.0250985158,go-nogo,001,16,
logos/2.jpg,properties2.xlsx,frogs/ab75.jpg,0,0,400,l,0,2,2,1,0,39,39,73,,,['l'],0,[0.2842586603446762],2018_Jul_09_1211,60.0250985158,go-nogo,001,16,
logos/2.jpg,properties2.xlsx,frogs/ab5.jpg,0,0,400,l,0,2,2,1,0,40,40,4,,,['l'],0,[0.4666047715027162],2018_Jul_09_1211,60.0250985158,go-nogo,001,16,
logos/2.jpg,properties2.xlsx,logos/2.jpg,0,0,400,a,0,2,2,1,0,41,41,87,,,['a'],0,[0.2674491171119371],2018_Jul_09_1211,60.0250985158,go-nogo,001,16,
logos/2.jpg,properties2.xlsx,frogs/ab34.jpg,0,0,400,l,0,2,2,1,0,42,42,33,,,['l'],0,[0.3841670122674259],2018_Jul_09_1211,60.0250985158,go-nogo,001,16,
logos/2.jpg,properties2.xlsx,frogs/ab40.jpg,0,0,400,l,0,2,2,1,0,43,43,39,,,['l'],0,[0.38349572280458233],2018_Jul_09_1211,60.0250985158,go-nogo,001,16,
logos/2.jpg,properties2.xlsx,frogs/ab37.jpg,0,0,400,l,0,2,2,1,0,44,44,36,,,['l'],0,[0.2841619491518941],2018_Jul_09_1211,60.0250985158,go-nogo,001,16,
logos/2.jpg,properties2.xlsx,frogs/ab16.jpg,0,0,400,l,0,2,2,1,0,45,45,15,,,['l'],0,[0.21762863015464973],2018_Jul_09_1211,60.0250985158,go-nogo,001,16,
logos/2.jpg,properties2.xlsx,frogs/ab28.jpg,0,0,400,l,0,2,2,1,0,46,46,27,,,['l'],0,[0.3176405199419605],2018_Jul_09_1211,60.0250985158,go-nogo,001,16,
logos/2.jpg,properties2.xlsx,logos/2.jpg,0,0,400,a,0,2,2,1,0,47,47,85,,,['a'],0,[0.25098488972889754],2018_Jul_09_1211,60.0250985158,go-nogo,001,16,
logos/2.jpg,properties2.xlsx,frogs/ab52.jpg,0,0,400,l,0,2,2,1,0,48,48,51,,,['l'],0,[0.3674672646830004],2018_Jul_09_1211,60.0250985158,go-nogo,001,16,
logos/2.jpg,properties2.xlsx,frogs/ab18.jpg,0,0,400,l,0,2,2,1,0,49,49,17,,,['l'],0,[0.30089469231916155],2018_Jul_09_1211,60.0250985158,go-nogo,001,16,
logos/2.jpg,properties2.xlsx,logos/2.jpg,0,0,400,a,0,2,2,1,0,50,50,81,,,['a'],0,[0.2508512007270838],2018_Jul_09_1211,60.0250985158,go-nogo,001,16,
logos/2.jpg,properties2.xlsx,frogs/ab39.jpg,0,0,400,l,0,2,2,1,0,51,51,38,,,['l'],0,[0.5344812383127646],2018_Jul_09_1211,60.0250985158,go-nogo,001,16,
logos/2.jpg,properties2.xlsx,frogs/ab68.jpg,0,0,400,l,0,2,2,1,0,52,52,66,,,['l'],0,[0.3676771848622593],2018_Jul_09_1211,60.0250985158,go-nogo,001,16,
logos/2.jpg,properties2.xlsx,frogs/ab66.jpg,0,0,400,l,0,2,2,1,0,53,53,64,,,['l'],0,[0.2843092914999943],2018_Jul_09_1211,60.0250985158,go-nogo,001,16,
logos/2.jpg,properties2.xlsx,frogs/ab67.jpg,0,0,400,l,0,2,2,1,0,54,54,65,,,['l'],0,[0.3007854655588744],2018_Jul_09_1211,60.0250985158,go-nogo,001,16,
logos/2.jpg,properties2.xlsx,frogs/ab30.jpg,0,0,400,l,0,2,2,1,0,55,55,29,,,['l'],0,[0.2508142229171426],2018_Jul_09_1211,60.0250985158,go-nogo,001,16,
logos/2.jpg,properties2.xlsx,frogs/ab43.jpg,0,0,400,l,0,2,2,1,0,56,56,42,,,['l'],0,[0.1843366550783685],2018_Jul_09_1211,60.0250985158,go-nogo,001,16,
logos/2.jpg,properties2.xlsx,frogs/ab6.jpg,0,0,400,l,0,2,2,1,0,57,57,5,,,['l'],0,[0.3009214301191605],2018_Jul_09_1211,60.0250985158,go-nogo,001,16,
logos/2.jpg,properties2.xlsx,frogs/ab58.jpg,0,0,400,l,0,2,2,1,0,58,58,57,,,['l'],0,[0.21758937678714574],2018_Jul_09_1211,60.0250985158,go-nogo,001,16,
logos/2.jpg,properties2.xlsx,frogs/ab54.jpg,0,0,400,l,0,2,2,1,0,59,59,53,,,['l'],0,[0.2509837519510256],2018_Jul_09_1211,60.0250985158,go-nogo,001,16,
logos/2.jpg,properties2.xlsx,frogs/ab78.jpg,0,0,400,l,0,2,2,1,0,60,60,76,,,['l'],0,[0.6008876949799742],2018_Jul_09_1211,60.0250985158,go-nogo,001,16,
logos/2.jpg,properties2.xlsx,frogs/ab7.jpg,0,0,400,l,0,2,2,1,0,61,61,6,,,['l'],0,[0.2843798337817134],2018_Jul_09_1211,60.0250985158,go-nogo,001,16,
logos/2.jpg,properties2.xlsx,frogs/ab73.jpg,0,0,400,l,0,2,2,1,0,62,62,71,,,['l'],0,[0.11848429666224547],2018_Jul_09_1211,60.0250985158,go-nogo,001,16,
logos/2.jpg,properties2.xlsx,frogs/ab36.jpg,0,0,400,l,0,2,2,1,0,63,63,35,,,['l'],0,[0.3174590442322369],2018_Jul_09_1211,60.0250985158,go-nogo,001,16,
logos/2.jpg,properties2.xlsx,frogs/ab27.jpg,0,0,400,l,0,2,2,1,0,64,64,26,,,['l'],0,[1.0506152254138215],2018_Jul_09_1211,60.0250985158,go-nogo,001,16,
logos/2.jpg,properties2.xlsx,frogs/ab69.jpg,0,0,400,l,0,2,2,1,0,65,65,67,,,['l'],0,[0.31756201320877153],2018_Jul_09_1211,60.0250985158,go-nogo,001,16,
logos/2.jpg,properties2.xlsx,frogs/ab4.jpg,0,0,400,l,0,2,2,1,0,66,66,3,,,['l'],0,[0.2520606595362551],2018_Jul_09_1211,60.0250985158,go-nogo,001,16,
logos/2.jpg,properties2.xlsx,frogs/ab44.jpg,0,0,400,l,0,2,2,1,0,67,67,43,,,['l'],0,[0.4008468487227219],2018_Jul_09_1211,60.0250985158,go-nogo,001,16,
logos/2.jpg,properties2.xlsx,logos/2.jpg,0,0,400,a,0,2,2,1,0,68,68,89,,,['a'],0,[0.18444986406393582],2018_Jul_09_1211,60.0250985158,go-nogo,001,16,
logos/2.jpg,properties2.xlsx,frogs/ab15.jpg,0,0,400,l,0,2,2,1,0,69,69,14,,,['l'],0,[0.20090100699053437],2018_Jul_09_1211,60.0250985158,go-nogo,001,16,
logos/2.jpg,properties2.xlsx,frogs/ab13.jpg,0,0,400,l,0,2,2,1,0,70,70,12,,,['l'],0,[0.20090612699550547],2018_Jul_09_1211,60.0250985158,go-nogo,001,16,
logos/2.jpg,properties2.xlsx,frogs/ab55.jpg,0,0,400,l,0,2,2,1,0,71,71,54,,,['l'],0,[0.21741472774920112],2018_Jul_09_1211,60.0250985158,go-nogo,001,16,
logos/2.jpg,properties2.xlsx,logos/2.jpg,0,0,400,a,0,2,2,1,0,72,72,80,,,['a'],0,[0.10098525950797921],2018_Jul_09_1211,60.0250985158,go-nogo,001,16,
logos/2.jpg,properties2.xlsx,logos/2.jpg,0,0,400,a,0,2,2,1,0,73,73,84,,,['a'],0,[0.23428627992416295],2018_Jul_09_1211,60.0250985158,go-nogo,001,16,
logos/2.jpg,properties2.xlsx,frogs/ab11.jpg,0,0,400,l,0,2,2,1,0,74,74,10,,,['l'],0,[0.15085068872576812],2018_Jul_09_1211,60.0250985158,go-nogo,001,16,
logos/2.jpg,properties2.xlsx,frogs/ab19.jpg,0,0,400,l,0,2,2,1,0,75,75,18,,,['l'],0,[0.2177361502454005],2018_Jul_09_1211,60.0250985158,go-nogo,001,16,
logos/2.jpg,properties2.xlsx,frogs/ab31.jpg,0,0,400,l,0,2,2,1,0,76,76,30,,,['l'],0,[0.4009304754599725],2018_Jul_09_1211,60.0250985158,go-nogo,001,16,
logos/2.jpg,properties2.xlsx,frogs/ab21.jpg,0,0,400,l,0,2,2,1,0,77,77,20,,,['l'],0,[0.20093286479550443],2018_Jul_09_1211,60.0250985158,go-nogo,001,16,
logos/2.jpg,properties2.xlsx,frogs/ab45.jpg,0,0,400,l,0,2,2,1,0,78,78,44,,,['l'],0,[0.2675372949652228],2018_Jul_09_1211,60.0250985158,go-nogo,001,16,
logos/2.jpg,properties2.xlsx,frogs/ab51.jpg,0,0,400,l,0,2,2,1,0,79,79,50,,,['l'],0,[0.2675168149480669],2018_Jul_09_1211,60.0250985158,go-nogo,001,16,
logos/2.jpg,properties2.xlsx,frogs/ab9.jpg,0,0,400,l,0,2,2,1,0,80,80,8,,,['l'],0,[0.2668785210689748],2018_Jul_09_1211,60.0250985158,go-nogo,001,16,
logos/2.jpg,properties2.xlsx,frogs/ab23.jpg,0,0,400,l,0,2,2,1,0,81,81,22,,,['l'],0,[0.26695645891413733],2018_Jul_09_1211,60.0250985158,go-nogo,001,16,
logos/2.jpg,properties2.xlsx,logos/2.jpg,0,0,400,a,0,2,2,1,0,82,82,88,,,['a'],0,[0.284006642352324],2018_Jul_09_1211,60.0250985158,go-nogo,001,16,
logos/2.jpg,properties2.xlsx,frogs/ab2.jpg,0,0,400,l,0,2,2,1,0,83,83,1,,,['l'],0,[0.2675975972388187],2018_Jul_09_1211,60.0250985158,go-nogo,001,16,
logos/2.jpg,properties2.xlsx,frogs/ab24.jpg,0,0,400,l,0,2,2,1,0,84,84,23,,,['l'],0,[0.2508381162706428],2018_Jul_09_1211,60.0250985158,go-nogo,001,16,
logos/2.jpg,properties2.xlsx,frogs/ab46.jpg,0,0,400,l,0,2,2,1,0,85,85,45,,,['l'],0,[0.2343494266451671],2018_Jul_09_1211,60.0250985158,go-nogo,001,16,
logos/2.jpg,properties2.xlsx,frogs/ab57.jpg,0,0,400,l,0,2,2,1,0,86,86,56,,,['l'],0,[0.3010608080167003],2018_Jul_09_1211,60.0250985158,go-nogo,001,16,
logos/2.jpg,properties2.xlsx,frogs/ab8.jpg,0,0,400,l,0,2,2,1,0,87,87,7,,,['l'],0,[0.2175336256286755],2018_Jul_09_1211,60.0250985158,go-nogo,001,16,
logos/2.jpg,properties2.xlsx,frogs/ab47.jpg,0,0,400,l,0,2,2,1,0,88,88,46,,,['l'],0,[0.3007854655597839],2018_Jul_09_1211,60.0250985158,go-nogo,001,16,
logos/2.jpg,properties2.xlsx,frogs/ab61.jpg,0,0,400,l,0,2,2,1,0,89,89,59,,,['l'],0,[0.23422199542528688],2018_Jul_09_1211,60.0250985158,go-nogo,001,16,
logos/2.jpg,properties2.xlsx,,,,,,0,2,2,1,,,,,,,,,,2018_Jul_09_1211,60.0250985158,go-nogo,001,16,
logos/4.jpg,properties4.xlsx,frogs/ab38.jpg,0,0,400,l,0,3,3,3,0,0,0,37,space,2.12553624935,['l'],0,[0.26742977487356256],2018_Jul_09_1211,60.0250985158,go-nogo,001,16,
logos/4.jpg,properties4.xlsx,frogs/ab40.jpg,0,0,400,l,0,3,3,3,0,1,1,39,,,['l'],0,[0.30222475567552465],2018_Jul_09_1211,60.0250985158,go-nogo,001,16,
logos/4.jpg,properties4.xlsx,logos/4.jpg,0,0,400,a,0,3,3,3,0,2,2,87,,,['a'],0,[0.26754753497425554],2018_Jul_09_1211,60.0250985158,go-nogo,001,16,
logos/4.jpg,properties4.xlsx,frogs/ab30.jpg,0,0,400,l,0,3,3,3,0,3,3,29,,,['l'],0,[0.3151476467037355],2018_Jul_09_1211,60.0250985158,go-nogo,001,16,
logos/4.jpg,properties4.xlsx,frogs/ab23.jpg,0,0,400,l,0,3,3,3,0,4,4,22,,,['l'],0,[0.3005471009118992],2018_Jul_09_1211,60.0250985158,go-nogo,001,16,
logos/4.jpg,properties4.xlsx,logos/4.jpg,0,0,400,a,0,3,3,3,0,5,5,80,,,['a'],0,[0.18409999709911062],2018_Jul_09_1211,60.0250985158,go-nogo,001,16,
logos/4.jpg,properties4.xlsx,frogs/ab45.jpg,0,0,400,l,0,3,3,3,0,6,6,44,,,['l'],0,[0.3175295865148655],2018_Jul_09_1211,60.0250985158,go-nogo,001,16,
logos/4.jpg,properties4.xlsx,frogs/ab65.jpg,0,0,400,l,0,3,3,3,0,7,7,63,,,['l'],0,[0.30093679013225483],2018_Jul_09_1211,60.0250985158,go-nogo,001,16,
logos/4.jpg,properties4.xlsx,frogs/ab2.jpg,0,0,400,l,0,3,3,3,0,8,8,1,,,['l'],0,[0.33427598302660044],2018_Jul_09_1211,60.0250985158,go-nogo,001,16,
logos/4.jpg,properties4.xlsx,frogs/ab33.jpg,0,0,400,l,0,3,3,3,0,9,9,32,,,['l'],0,[0.3845441859220955],2018_Jul_09_1211,60.0250985158,go-nogo,001,16,
logos/4.jpg,properties4.xlsx,frogs/ab7.jpg,0,0,400,l,0,3,3,3,0,10,10,6,,,['l'],0,[0.3009032256595674],2018_Jul_09_1211,60.0250985158,go-nogo,001,16,
logos/4.jpg,properties4.xlsx,frogs/ab5.jpg,0,0,400,l,0,3,3,3,0,11,11,4,,,['l'],0,[0.31699653717078036],2018_Jul_09_1211,60.0250985158,go-nogo,001,16,
logos/4.jpg,properties4.xlsx,frogs/ab77.jpg,0,0,400,l,0,3,3,3,0,12,12,75,,,['l'],0,[0.24798513605765038],2018_Jul_09_1211,60.0250985158,go-nogo,001,16,
logos/4.jpg,properties4.xlsx,frogs/ab44.jpg,0,0,400,l,0,3,3,3,0,13,13,43,,,['l'],0,[0.3008537322839402],2018_Jul_09_1211,60.0250985158,go-nogo,001,16,
logos/4.jpg,properties4.xlsx,frogs/ab58.jpg,0,0,400,l,0,3,3,3,0,14,14,57,,,['l'],0,[0.2841750336074256],2018_Jul_09_1211,60.0250985158,go-nogo,001,16,
logos/4.jpg,properties4.xlsx,frogs/ab48.jpg,0,0,400,l,0,3,3,3,0,15,15,47,,,['l'],0,[0.1841642815979867],2018_Jul_09_1211,60.0250985158,go-nogo,001,16,
logos/4.jpg,properties4.xlsx,logos/4.jpg,0,0,400,a,0,3,3,3,0,16,16,86,,,['a'],0,[0.20102218042757158],2018_Jul_09_1211,60.0250985158,go-nogo,001,16,
logos/4.jpg,properties4.xlsx,frogs/ab19.jpg,0,0,400,l,0,3,3,3,0,17,17,18,,,['l'],0,[0.21755410564583144],2018_Jul_09_1211,60.0250985158,go-nogo,001,16,
logos/4.jpg,properties4.xlsx,frogs/ab62.jpg,0,0,400,l,0,3,3,3,0,18,18,60,,,['l'],0,[0.23436990666232305],2018_Jul_09_1211,60.0250985158,go-nogo,001,16,
logos/4.jpg,properties4.xlsx,frogs/ab9.jpg,0,0,400,l,0,3,3,3,0,19,19,8,,,['l'],0,[0.23452919568717334],2018_Jul_09_1211,60.0250985158,go-nogo,001,16,
logos/4.jpg,properties4.xlsx,logos/4.jpg,0,0,400,a,0,3,3,3,0,20,20,84,,,['a'],0,[0.30012839833216276],2018_Jul_09_1211,60.0250985158,go-nogo,001,16,
logos/4.jpg,properties4.xlsx,frogs/ab39.jpg,0,0,400,l,0,3,3,3,0,21,21,38,,,['l'],0,[0.3842358478814276],2018_Jul_09_1211,60.0250985158,go-nogo,001,16,
logos/4.jpg,properties4.xlsx,frogs/ab37.jpg,0,0,400,l,0,3,3,3,0,22,22,36,,,['l'],0,[0.23433349774313683],2018_Jul_09_1211,60.0250985158,go-nogo,001,16,
logos/4.jpg,properties4.xlsx,logos/4.jpg,0,0,400,a,0,3,3,3,0,23,23,88,,,['a'],0,[0.285050554353802],2018_Jul_09_1211,60.0250985158,go-nogo,001,16,
logos/4.jpg,properties4.xlsx,frogs/ab20.jpg,0,0,400,l,0,3,3,3,0,24,24,19,,,['l'],0,[0.15094171102555265],2018_Jul_09_1211,60.0250985158,go-nogo,001,16,
logos/4.jpg,properties4.xlsx,frogs/ab49.jpg,0,0,400,l,0,3,3,3,0,25,25,48,,,['l'],0,[0.31759045767648786],2018_Jul_09_1211,60.0250985158,go-nogo,001,16,
logos/4.jpg,properties4.xlsx,frogs/ab56.jpg,0,0,400,l,0,3,3,3,0,26,26,55,,,['l'],0,[0.16743210732056468],2018_Jul_09_1211,60.0250985158,go-nogo,001,16,
logos/4.jpg,properties4.xlsx,frogs/ab50.jpg,0,0,400,l,0,3,3,3,0,27,27,49,,,['l'],0,[0.20082534470475366],2018_Jul_09_1211,60.0250985158,go-nogo,001,16,
logos/4.jpg,properties4.xlsx,frogs/ab12.jpg,0,0,400,l,0,3,3,3,0,28,28,11,,,['l'],0,[0.23421289319503558],2018_Jul_09_1211,60.0250985158,go-nogo,001,16,
logos/4.jpg,properties4.xlsx,frogs/ab31.jpg,0,0,400,l,0,3,3,3,0,29,29,30,,,['l'],0,[0.48410779088317213],2018_Jul_09_1211,60.0250985158,go-nogo,001,16,
logos/4.jpg,properties4.xlsx,frogs/ab52.jpg,0,0,400,l,0,3,3,3,0,30,30,51,,,['l'],0,[0.26761125058328616],2018_Jul_09_1211,60.0250985158,go-nogo,001,16,
logos/4.jpg,properties4.xlsx,frogs/ab16.jpg,0,0,400,l,0,3,3,3,0,31,31,15,,,['l'],0,[0.2675298994035984],2018_Jul_09_1211,60.0250985158,go-nogo,001,16,
logos/4.jpg,properties4.xlsx,frogs/ab4.jpg,0,0,400,l,0,3,3,3,0,32,32,3,,,['l'],0,[0.2423372023504271],2018_Jul_09_1211,60.0250985158,go-nogo,001,16,
logos/4.jpg,properties4.xlsx,frogs/ab79.jpg,0,0,400,l,0,3,3,3,0,33,33,77,,,['l'],0,[0.2340769286347495],2018_Jul_09_1211,60.0250985158,go-nogo,001,16,
logos/4.jpg,properties4.xlsx,frogs/ab61.jpg,0,0,400,l,0,3,3,3,0,34,34,59,,,['l'],0,[0.26759702834897325],2018_Jul_09_1211,60.0250985158,go-nogo,001,16,
logos/4.jpg,properties4.xlsx,frogs/ab73.jpg,0,0,400,l,0,3,3,3,0,35,35,71,,,['l'],0,[0.26745765045234293],2018_Jul_09_1211,60.0250985158,go-nogo,001,16,
logos/4.jpg,properties4.xlsx,frogs/ab22.jpg,0,0,400,l,0,3,3,3,0,36,36,21,,,['l'],0,[0.2673990548473739],2018_Jul_09_1211,60.0250985158,go-nogo,001,16,
logos/4.jpg,properties4.xlsx,frogs/ab32.jpg,0,0,400,l,0,3,3,3,0,37,37,31,,,['l'],0,[0.23441826225916884],2018_Jul_09_1211,60.0250985158,go-nogo,001,16,
logos/4.jpg,properties4.xlsx,frogs/ab24.jpg,0,0,400,l,0,3,3,3,0,38,38,23,,,['l'],0,[0.25086712962911406],2018_Jul_09_1211,60.0250985158,go-nogo,001,16,
logos/4.jpg,properties4.xlsx,frogs/ab35.jpg,0,0,400,l,0,3,3,3,0,39,39,34,,,['l'],0,[0.2667988765570044],2018_Jul_09_1211,60.0250985158,go-nogo,001,16,
logos/4.jpg,properties4.xlsx,logos/4.jpg,0,0,400,a,0,3,3,3,0,40,40,89,,,['a'],0,[0.15098096439305664],2018_Jul_09_1211,60.0250985158,go-nogo,001,16,
logos/4.jpg,properties4.xlsx,frogs/ab80.jpg,0,0,400,l,0,3,3,3,0,41,41,78,,,['l'],0,[0.6182206164367017],2018_Jul_09_1211,60.0250985158,go-nogo,001,16,
logos/4.jpg,properties4.xlsx,frogs/ab51.jpg,0,0,400,l,0,3,3,3,0,42,42,50,,,['l'],0,[0.18427237057949242],2018_Jul_09_1211,60.0250985158,go-nogo,001,16,
logos/4.jpg,properties4.xlsx,frogs/ab17.jpg,0,0,400,l,0,3,3,3,0,43,43,16,,,['l'],0,[0.21766219462733716],2018_Jul_09_1211,60.0250985158,go-nogo,001,16,
logos/4.jpg,properties4.xlsx,frogs/ab66.jpg,0,0,400,l,0,3,3,3,0,44,44,64,,,['l'],0,[0.2342231332040683],2018_Jul_09_1211,60.0250985158,go-nogo,001,16,
logos/4.jpg,properties4.xlsx,frogs/ab60.jpg,0,0,400,l,0,3,3,3,0,45,45,58,,,['l'],0,[0.2554762713398304],2018_Jul_09_1211,60.0250985158,go-nogo,001,16,
logos/4.jpg,properties4.xlsx,frogs/ab3.jpg,0,0,400,l,0,3,3,3,0,46,46,2,,,['l'],0,[0.2676175083661292],2018_Jul_09_1211,60.0250985158,go-nogo,001,16,
logos/4.jpg,properties4.xlsx,frogs/ab54.jpg,0,0,400,l,0,3,3,3,0,47,47,53,,,['l'],0,[0.3510269306543705],2018_Jul_09_1211,60.0250985158,go-nogo,001,16,
logos/4.jpg,properties4.xlsx,frogs/ab14.jpg,0,0,400,l,0,3,3,3,0,48,48,13,,,['l'],0,[0.3507515881965446],2018_Jul_09_1211,60.0250985158,go-nogo,001,16,
logos/4.jpg,properties4.xlsx,frogs/ab11.jpg,0,0,400,l,0,3,3,3,0,49,49,10,,,['l'],0,[0.35056726803941274],2018_Jul_09_1211,60.0250985158,go-nogo,001,16,
logos/4.jpg,properties4.xlsx,frogs/ab69.jpg,0,0,400,l,0,3,3,3,0,50,50,67,,,['l'],0,[0.2685140780204165],2018_Jul_09_1211,60.0250985158,go-nogo,001,16,
logos/4.jpg,properties4.xlsx,frogs/ab34.jpg,0,0,400,l,0,3,3,3,0,51,51,33,,,['l'],0,[0.2174761678015784],2018_Jul_09_1211,60.0250985158,go-nogo,001,16,
logos/4.jpg,properties4.xlsx,frogs/ab57.jpg,0,0,400,l,0,3,3,3,0,52,52,56,,,['l'],0,[0.25071978728101385],2018_Jul_09_1211,60.0250985158,go-nogo,001,16,
logos/4.jpg,properties4.xlsx,frogs/ab1.jpg,0,0,400,l,0,3,3,3,0,53,53,0,,,['l'],0,[0.2867253646718382],2018_Jul_09_1211,60.0250985158,go-nogo,001,16,
logos/4.jpg,properties4.xlsx,frogs/ab27.jpg,0,0,400,l,0,3,3,3,0,54,54,26,,,['l'],0,[1.134092914426219],2018_Jul_09_1211,60.0250985158,go-nogo,001,16,
logos/4.jpg,properties4.xlsx,logos/4.jpg,0,0,400,a,0,3,3,3,0,55,55,83,,,['l'],0,[1.8998822967887463],2018_Jul_09_1211,60.0250985158,go-nogo,001,16,
logos/4.jpg,properties4.xlsx,frogs/ab29.jpg,0,0,400,l,0,3,3,3,0,56,56,28,,,['l'],0,[0.36750936249700317],2018_Jul_09_1211,60.0250985158,go-nogo,001,16,
logos/4.jpg,properties4.xlsx,frogs/ab63.jpg,0,0,400,l,0,3,3,3,0,57,57,61,,,['l'],0,[0.2842370425487388],2018_Jul_09_1211,60.0250985158,go-nogo,001,16,
logos/4.jpg,properties4.xlsx,frogs/ab10.jpg,0,0,400,l,0,3,3,3,0,58,58,9,,,['l'],0,[0.31769342665393197],2018_Jul_09_1211,60.0250985158,go-nogo,001,16,
logos/4.jpg,properties4.xlsx,frogs/ab72.jpg,0,0,400,l,0,3,3,3,0,59,59,70,,,['l'],0,[0.3008770567485044],2018_Jul_09_1211,60.0250985158,go-nogo,001,16,
logos/4.jpg,properties4.xlsx,frogs/ab67.jpg,0,0,400,l,0,3,3,3,0,60,60,65,,,['l'],0,[0.3008992434342872],2018_Jul_09_1211,60.0250985158,go-nogo,001,16,
logos/4.jpg,properties4.xlsx,frogs/ab36.jpg,0,0,400,l,0,3,3,3,0,61,61,35,,,['l'],0,[0.2675896327873488],2018_Jul_09_1211,60.0250985158,go-nogo,001,16,
logos/4.jpg,properties4.xlsx,frogs/ab74.jpg,0,0,400,l,0,3,3,3,0,62,62,72,,,['l'],0,[0.20528885073599668],2018_Jul_09_1211,60.0250985158,go-nogo,001,16,
logos/4.jpg,properties4.xlsx,frogs/ab76.jpg,0,0,400,l,0,3,3,3,0,63,63,74,,,['l'],0,[0.01751098383192584],2018_Jul_09_1211,60.0250985158,go-nogo,001,16,
logos/4.jpg,properties4.xlsx,frogs/ab18.jpg,0,0,400,l,0,3,3,3,0,64,64,17,,,['l'],0,[0.06770693777616543],2018_Jul_09_1211,60.0250985158,go-nogo,001,16,
logos/4.jpg,properties4.xlsx,frogs/ab41.jpg,0,0,400,l,0,3,3,3,0,65,65,40,,,['l'],0,[0.10099151728991274],2018_Jul_09_1211,60.0250985158,go-nogo,001,16,
logos/4.jpg,properties4.xlsx,logos/4.jpg,0,0,400,a,0,3,3,3,0,66,66,85,,,['a'],0,[0.2025018616905072],2018_Jul_09_1211,60.0250985158,go-nogo,001,16,
logos/4.jpg,properties4.xlsx,frogs/ab8.jpg,0,0,400,l,0,3,3,3,0,67,67,7,,,['l'],0,[0.7340595775085603],2018_Jul_09_1211,60.0250985158,go-nogo,001,16,
logos/4.jpg,properties4.xlsx,frogs/ab64.jpg,0,0,400,l,0,3,3,3,0,68,68,62,,,['l'],0,[0.21773387468783767],2018_Jul_09_1211,60.0250985158,go-nogo,001,16,
logos/4.jpg,properties4.xlsx,frogs/ab43.jpg,0,0,400,l,0,3,3,3,0,69,69,42,,,['l'],0,[0.21770429244133993],2018_Jul_09_1211,60.0250985158,go-nogo,001,16,
logos/4.jpg,properties4.xlsx,logos/4.jpg,0,0,400,a,0,3,3,3,0,70,70,82,,,['a'],0,[0.33410645399271743],2018_Jul_09_1211,60.0250985158,go-nogo,001,16,
logos/4.jpg,properties4.xlsx,frogs/ab70.jpg,0,0,400,l,0,3,3,3,0,71,71,68,,,['l'],0,[0.08425137856102083],2018_Jul_09_1211,60.0250985158,go-nogo,001,16,
logos/4.jpg,properties4.xlsx,frogs/ab78.jpg,0,0,400,l,0,3,3,3,0,72,72,76,,,['l'],0,[0.267404743741281],2018_Jul_09_1211,60.0250985158,go-nogo,001,16,
logos/4.jpg,properties4.xlsx,frogs/ab21.jpg,0,0,400,l,0,3,3,3,0,73,73,20,,,['l'],0,[0.21774297691808897],2018_Jul_09_1211,60.0250985158,go-nogo,001,16,
logos/4.jpg,properties4.xlsx,frogs/ab75.jpg,0,0,400,l,0,3,3,3,0,74,74,73,,,['l'],0,[0.18430309060477157],2018_Jul_09_1211,60.0250985158,go-nogo,001,16,
logos/4.jpg,properties4.xlsx,frogs/ab28.jpg,0,0,400,l,0,3,3,3,0,75,75,27,,,['l'],0,[0.2011575760989217],2018_Jul_09_1211,60.0250985158,go-nogo,001,16,
logos/4.jpg,properties4.xlsx,frogs/ab47.jpg,0,0,400,l,0,3,3,3,0,76,76,46,,,['l'],0,[0.2344632045196704],2018_Jul_09_1211,60.0250985158,go-nogo,001,16,
logos/4.jpg,properties4.xlsx,frogs/ab25.jpg,0,0,400,l,0,3,3,3,0,77,77,24,,,['l'],0,[0.2841943758458001],2018_Jul_09_1211,60.0250985158,go-nogo,001,16,
logos/4.jpg,properties4.xlsx,frogs/ab81.jpg,0,0,400,l,0,3,3,3,0,78,78,79,,,['l'],0,[0.2009123847783485],2018_Jul_09_1211,60.0250985158,go-nogo,001,16,
logos/4.jpg,properties4.xlsx,frogs/ab15.jpg,0,0,400,l,0,3,3,3,0,79,79,14,,,['l'],0,[0.40091397766900627],2018_Jul_09_1211,60.0250985158,go-nogo,001,16,
logos/4.jpg,properties4.xlsx,frogs/ab55.jpg,0,0,400,l,0,3,3,3,0,80,80,54,,,['l'],0,[0.30094020346950856],2018_Jul_09_1211,60.0250985158,go-nogo,001,16,
logos/4.jpg,properties4.xlsx,frogs/ab6.jpg,0,0,400,l,0,3,3,3,0,81,81,5,,,['l'],0,[0.251801245981369],2018_Jul_09_1211,60.0250985158,go-nogo,001,16,
logos/4.jpg,properties4.xlsx,frogs/ab13.jpg,0,0,400,l,0,3,3,3,0,82,82,12,,,['l'],0,[0.18419670829189272],2018_Jul_09_1211,60.0250985158,go-nogo,001,16,
logos/4.jpg,properties4.xlsx,frogs/ab42.jpg,0,0,400,l,0,3,3,3,0,83,83,41,,,['l'],0,[0.18430821060974267],2018_Jul_09_1211,60.0250985158,go-nogo,001,16,
logos/4.jpg,properties4.xlsx,frogs/ab53.jpg,0,0,400,l,0,3,3,3,0,84,84,52,,,['l'],0,[0.16765795640094439],2018_Jul_09_1211,60.0250985158,go-nogo,001,16,
logos/4.jpg,properties4.xlsx,frogs/ab68.jpg,0,0,400,l,0,3,3,3,0,85,85,66,,,['l'],0,[0.21751200783273816],2018_Jul_09_1211,60.0250985158,go-nogo,001,16,
logos/4.jpg,properties4.xlsx,frogs/ab71.jpg,0,0,400,l,0,3,3,3,0,86,86,69,,,['l'],0,[0.15104240444452444],2018_Jul_09_1211,60.0250985158,go-nogo,001,16,
logos/4.jpg,properties4.xlsx,frogs/ab26.jpg,0,0,400,l,0,3,3,3,0,87,87,25,,,['l'],0,[0.18443279738312413],2018_Jul_09_1211,60.0250985158,go-nogo,001,16,
logos/4.jpg,properties4.xlsx,frogs/ab46.jpg,0,0,400,l,0,3,3,3,0,88,88,45,,,['l'],0,[0.167584569671817],2018_Jul_09_1211,60.0250985158,go-nogo,001,16,
logos/4.jpg,properties4.xlsx,logos/4.jpg,0,0,400,a,0,3,3,3,0,89,89,81,,,['a'],0,[0.06778316895270109],2018_Jul_09_1211,60.0250985158,go-nogo,001,16,
logos/4.jpg,properties4.xlsx,,,,,,0,3,3,3,,,,,,,,,,2018_Jul_09_1211,60.0250985158,go-nogo,001,16,
