pix,source,image1,x,y,size,answer,trials_2.thisRepN,trials_2.thisTrialN,trials_2.thisN,trials_2.thisIndex,trials.thisRepN,trials.thisTrialN,trials.thisN,trials.thisIndex,key_resp_3.keys,key_resp_3.rt,key_resp_2.keys,key_resp_2.corr,key_resp_2.rt,date,frameRate,expName,session,participant,
logos/1.jpg,properties1.xlsx,frogs/ab68.jpg,0,0,400,l,0,0,0,0,0,0,0,66,space,13.1454576175,['l'],0,[2.866338872609049],2018_Jul_09_1220,60.00952472,go-nogo,001,17,
logos/1.jpg,properties1.xlsx,logos/1.jpg,0,0,400,a,0,0,0,0,0,1,1,82,,,['a'],0,[0.2842256647618342],2018_Jul_09_1220,60.00952472,go-nogo,001,17,
logos/1.jpg,properties1.xlsx,frogs/ab17.jpg,0,0,400,l,0,0,0,0,0,2,2,16,,,['a'],0,[0.3675309802929405],2018_Jul_09_1220,60.00952472,go-nogo,001,17,
logos/1.jpg,properties1.xlsx,frogs/ab15.jpg,0,0,400,l,0,0,0,0,0,3,3,14,,,['l'],0,[0.3009060701060662],2018_Jul_09_1220,60.00952472,go-nogo,001,17,
logos/1.jpg,properties1.xlsx,frogs/ab56.jpg,0,0,400,l,0,0,0,0,0,4,4,55,,,['a'],0,[0.1840664326255137],2018_Jul_09_1220,60.00952472,go-nogo,001,17,
logos/1.jpg,properties1.xlsx,frogs/ab43.jpg,0,0,400,l,0,0,0,0,0,5,5,42,,,['l'],0,[0.31773552446702524],2018_Jul_09_1220,60.00952472,go-nogo,001,17,
logos/1.jpg,properties1.xlsx,frogs/ab67.jpg,0,0,400,l,0,0,0,0,0,6,6,65,,,['l'],0,[0.35087219274464587],2018_Jul_09_1220,60.00952472,go-nogo,001,17,
logos/1.jpg,properties1.xlsx,frogs/ab25.jpg,0,0,400,l,0,0,0,0,0,7,7,24,,,['l'],0,[0.3001960961673831],2018_Jul_09_1220,60.00952472,go-nogo,001,17,
logos/1.jpg,properties1.xlsx,frogs/ab31.jpg,0,0,400,l,0,0,0,0,0,8,8,30,,,['l'],0,[0.32361897837654396],2018_Jul_09_1220,60.00952472,go-nogo,001,17,
logos/1.jpg,properties1.xlsx,frogs/ab9.jpg,0,0,400,l,0,0,0,0,0,9,9,8,,,['l'],0,[0.3509137216688032],2018_Jul_09_1220,60.00952472,go-nogo,001,17,
logos/1.jpg,properties1.xlsx,frogs/ab13.jpg,0,0,400,l,0,0,0,0,0,10,10,12,,,['l'],0,[0.2842893803717743],2018_Jul_09_1220,60.00952472,go-nogo,001,17,
logos/1.jpg,properties1.xlsx,logos/1.jpg,0,0,400,a,0,0,0,0,0,11,11,89,,,['a'],0,[0.3344017075778538],2018_Jul_09_1220,60.00952472,go-nogo,001,17,
logos/1.jpg,properties1.xlsx,logos/1.jpg,0,0,400,a,0,0,0,0,0,12,12,86,,,['a'],0,[0.31661026128494996],2018_Jul_09_1220,60.00952472,go-nogo,001,17,
logos/1.jpg,properties1.xlsx,frogs/ab54.jpg,0,0,400,l,0,0,0,0,0,13,13,53,,,['l'],0,[0.26746675268259423],2018_Jul_09_1220,60.00952472,go-nogo,001,17,
logos/1.jpg,properties1.xlsx,frogs/ab50.jpg,0,0,400,l,0,0,0,0,0,14,14,49,,,['l'],0,[0.2840390690471395],2018_Jul_09_1220,60.00952472,go-nogo,001,17,
logos/1.jpg,properties1.xlsx,frogs/ab73.jpg,0,0,400,l,0,0,0,0,0,15,15,71,,,['l'],0,[0.2509302763492087],2018_Jul_09_1220,60.00952472,go-nogo,001,17,
logos/1.jpg,properties1.xlsx,frogs/ab77.jpg,0,0,400,l,0,0,0,0,0,16,16,75,,,['l'],0,[0.2674656149038128],2018_Jul_09_1220,60.00952472,go-nogo,001,17,
logos/1.jpg,properties1.xlsx,frogs/ab29.jpg,0,0,400,l,0,0,0,0,0,17,17,28,,,['l'],0,[0.30088274564150197],2018_Jul_09_1220,60.00952472,go-nogo,001,17,
logos/1.jpg,properties1.xlsx,frogs/ab69.jpg,0,0,400,l,0,0,0,0,0,18,18,67,,,['l'],0,[0.33415594736925414],2018_Jul_09_1220,60.00952472,go-nogo,001,17,
logos/1.jpg,properties1.xlsx,frogs/ab24.jpg,0,0,400,l,0,0,0,0,0,19,19,23,,,['l'],0,[0.25093255190677155],2018_Jul_09_1220,60.00952472,go-nogo,001,17,
logos/1.jpg,properties1.xlsx,frogs/ab75.jpg,0,0,400,l,0,0,0,0,0,20,20,73,,,['a'],0,[0.2341565731467199],2018_Jul_09_1220,60.00952472,go-nogo,001,17,
logos/1.jpg,properties1.xlsx,frogs/ab80.jpg,0,0,400,l,0,0,0,0,0,21,21,78,,,['a'],0,[0.26729551698099385],2018_Jul_09_1220,60.00952472,go-nogo,001,17,
logos/1.jpg,properties1.xlsx,frogs/ab23.jpg,0,0,400,l,0,0,0,0,0,22,22,22,,,['l'],0,[0.25086883629683143],2018_Jul_09_1220,60.00952472,go-nogo,001,17,
logos/1.jpg,properties1.xlsx,frogs/ab35.jpg,0,0,400,l,0,0,0,0,0,23,23,34,,,['l'],0,[0.2509695297158032],2018_Jul_09_1220,60.00952472,go-nogo,001,17,
logos/1.jpg,properties1.xlsx,frogs/ab26.jpg,0,0,400,l,0,0,0,0,0,24,24,25,,,['a'],0,[0.2676681395214473],2018_Jul_09_1220,60.00952472,go-nogo,001,17,
logos/1.jpg,properties1.xlsx,frogs/ab16.jpg,0,0,400,l,0,0,0,0,0,25,25,15,,,['a'],0,[0.3011211102902962],2018_Jul_09_1220,60.00952472,go-nogo,001,17,
logos/1.jpg,properties1.xlsx,frogs/ab40.jpg,0,0,400,l,0,0,0,0,0,26,26,39,,,['a'],0,[0.33399665834440384],2018_Jul_09_1220,60.00952472,go-nogo,001,17,
logos/1.jpg,properties1.xlsx,frogs/ab12.jpg,0,0,400,l,0,0,0,0,0,27,27,11,,,['l'],0,[0.3341081606613443],2018_Jul_09_1220,60.00952472,go-nogo,001,17,
logos/1.jpg,properties1.xlsx,frogs/ab55.jpg,0,0,400,l,0,0,0,0,0,28,28,54,,,['l'],0,[0.30036619409020204],2018_Jul_09_1220,60.00952472,go-nogo,001,17,
logos/1.jpg,properties1.xlsx,frogs/ab27.jpg,0,0,400,l,0,0,0,0,0,29,29,26,,,['l'],0,[0.31758419989364484],2018_Jul_09_1220,60.00952472,go-nogo,001,17,
logos/1.jpg,properties1.xlsx,frogs/ab28.jpg,0,0,400,l,0,0,0,0,0,30,30,27,,,['a'],0,[0.2842933625970545],2018_Jul_09_1220,60.00952472,go-nogo,001,17,
logos/1.jpg,properties1.xlsx,frogs/ab47.jpg,0,0,400,l,0,0,0,0,0,31,31,46,,,['a'],0,[0.5007984362364368],2018_Jul_09_1220,60.00952472,go-nogo,001,17,
logos/1.jpg,properties1.xlsx,frogs/ab79.jpg,0,0,400,l,0,0,0,0,0,32,32,77,,,['l'],0,[0.28414146913473814],2018_Jul_09_1220,60.00952472,go-nogo,001,17,
logos/1.jpg,properties1.xlsx,logos/1.jpg,0,0,400,a,0,0,0,0,0,33,33,84,,,['a'],0,[0.3342441252216304],2018_Jul_09_1220,60.00952472,go-nogo,001,17,
logos/1.jpg,properties1.xlsx,frogs/ab14.jpg,0,0,400,l,0,0,0,0,0,34,34,13,,,['l'],0,[0.3842557590096476],2018_Jul_09_1220,60.00952472,go-nogo,001,17,
logos/1.jpg,properties1.xlsx,frogs/ab5.jpg,0,0,400,l,0,0,0,0,0,35,35,4,,,['a'],0,[0.2509712363844301],2018_Jul_09_1220,60.00952472,go-nogo,001,17,
logos/1.jpg,properties1.xlsx,frogs/ab3.jpg,0,0,400,l,0,0,0,0,0,36,36,2,,,['l'],0,[0.2675077127169061],2018_Jul_09_1220,60.00952472,go-nogo,001,17,
logos/1.jpg,properties1.xlsx,frogs/ab70.jpg,0,0,400,l,0,0,0,0,0,37,37,68,,,['l'],0,[0.26758280611556984],2018_Jul_09_1220,60.00952472,go-nogo,001,17,
logos/1.jpg,properties1.xlsx,frogs/ab30.jpg,0,0,400,l,0,0,0,0,0,38,38,29,,,['a'],0,[0.2508238940363299],2018_Jul_09_1220,60.00952472,go-nogo,001,17,
logos/1.jpg,properties1.xlsx,frogs/ab20.jpg,0,0,400,l,0,0,0,0,0,39,39,19,,,['l'],0,[0.3172508307206954],2018_Jul_09_1220,60.00952472,go-nogo,001,17,
logos/1.jpg,properties1.xlsx,frogs/ab57.jpg,0,0,400,l,0,0,0,0,0,40,40,56,,,['l'],0,[0.25095075636636466],2018_Jul_09_1220,60.00952472,go-nogo,001,17,
logos/1.jpg,properties1.xlsx,frogs/ab8.jpg,0,0,400,l,0,0,0,0,0,41,41,7,,,['l'],0,[0.2509450674733671],2018_Jul_09_1220,60.00952472,go-nogo,001,17,
logos/1.jpg,properties1.xlsx,frogs/ab63.jpg,0,0,400,l,0,0,0,0,0,42,42,61,,,['l'],0,[0.2344199689268862],2018_Jul_09_1220,60.00952472,go-nogo,001,17,
logos/1.jpg,properties1.xlsx,frogs/ab45.jpg,0,0,400,l,0,0,0,0,0,43,43,44,,,['a'],0,[0.23432837773816573],2018_Jul_09_1220,60.00952472,go-nogo,001,17,
logos/1.jpg,properties1.xlsx,frogs/ab64.jpg,0,0,400,l,0,0,0,0,0,44,44,62,,,['a'],0,[0.2975450716821797],2018_Jul_09_1220,60.00952472,go-nogo,001,17,
logos/1.jpg,properties1.xlsx,frogs/ab7.jpg,0,0,400,l,0,0,0,0,0,45,45,6,,,['l'],0,[0.4008354709349078],2018_Jul_09_1220,60.00952472,go-nogo,001,17,
logos/1.jpg,properties1.xlsx,frogs/ab1.jpg,0,0,400,l,0,0,0,0,0,46,46,0,,,['l'],0,[0.2834832641283356],2018_Jul_09_1220,60.00952472,go-nogo,001,17,
logos/1.jpg,properties1.xlsx,logos/1.jpg,0,0,400,a,0,0,0,0,0,47,47,81,,,['a'],0,[0.28426150479117496],2018_Jul_09_1220,60.00952472,go-nogo,001,17,
logos/1.jpg,properties1.xlsx,frogs/ab49.jpg,0,0,400,l,0,0,0,0,0,48,48,48,,,['l'],0,[0.2688281049559009],2018_Jul_09_1220,60.00952472,go-nogo,001,17,
logos/1.jpg,properties1.xlsx,frogs/ab52.jpg,0,0,400,l,0,0,0,0,0,49,49,51,,,['a'],0,[0.26744285932909406],2018_Jul_09_1220,60.00952472,go-nogo,001,17,
logos/1.jpg,properties1.xlsx,frogs/ab71.jpg,0,0,400,l,0,0,0,0,0,50,50,69,,,['l'],0,[0.1343796346709496],2018_Jul_09_1220,60.00952472,go-nogo,001,17,
logos/1.jpg,properties1.xlsx,frogs/ab62.jpg,0,0,400,l,0,0,0,0,0,51,51,60,,,['a'],0,[0.05092185678677197],2018_Jul_09_1220,60.00952472,go-nogo,001,17,
logos/1.jpg,properties1.xlsx,frogs/ab61.jpg,0,0,400,l,0,0,0,0,0,52,52,59,,,['l'],0,[0.017671410634648055],2018_Jul_09_1220,60.00952472,go-nogo,001,17,
logos/1.jpg,properties1.xlsx,frogs/ab46.jpg,0,0,400,l,0,0,0,0,0,53,53,45,,,['a'],0,[0.05078873667298467],2018_Jul_09_1220,60.00952472,go-nogo,001,17,
logos/1.jpg,properties1.xlsx,frogs/ab81.jpg,0,0,400,l,0,0,0,0,0,54,54,79,,,['a'],0,[1.5334555307708797],2018_Jul_09_1220,60.00952472,go-nogo,001,17,
logos/1.jpg,properties1.xlsx,frogs/ab41.jpg,0,0,400,l,0,0,0,0,0,55,55,40,,,['l'],0,[0.4008354709358173],2018_Jul_09_1220,60.00952472,go-nogo,001,17,
logos/1.jpg,properties1.xlsx,frogs/ab65.jpg,0,0,400,l,0,0,0,0,0,56,56,63,,,['l'],0,[0.2844162427018091],2018_Jul_09_1220,60.00952472,go-nogo,001,17,
logos/1.jpg,properties1.xlsx,logos/1.jpg,0,0,400,a,0,0,0,0,0,57,57,87,,,['a'],0,[0.1173470868025106],2018_Jul_09_1220,60.00952472,go-nogo,001,17,
logos/1.jpg,properties1.xlsx,frogs/ab38.jpg,0,0,400,l,0,0,0,0,0,58,58,37,,,['l'],0,[0.20099430484788172],2018_Jul_09_1220,60.00952472,go-nogo,001,17,
logos/1.jpg,properties1.xlsx,frogs/ab2.jpg,0,0,400,l,0,0,0,0,0,59,59,1,,,['l'],0,[0.2840953890945457],2018_Jul_09_1220,60.00952472,go-nogo,001,17,
logos/1.jpg,properties1.xlsx,frogs/ab78.jpg,0,0,400,l,0,0,0,0,0,60,60,76,,,['a'],0,[0.33434766308801045],2018_Jul_09_1220,60.00952472,go-nogo,001,17,
logos/1.jpg,properties1.xlsx,frogs/ab74.jpg,0,0,400,l,0,0,0,0,0,61,61,72,,,['a'],0,[0.26757768611059873],2018_Jul_09_1220,60.00952472,go-nogo,001,17,
logos/1.jpg,properties1.xlsx,frogs/ab34.jpg,0,0,400,l,0,0,0,0,0,62,62,33,,,['l'],0,[0.26744968600087304],2018_Jul_09_1220,60.00952472,go-nogo,001,17,
logos/1.jpg,properties1.xlsx,frogs/ab11.jpg,0,0,400,l,0,0,0,0,0,63,63,10,,,['l'],0,[0.25088760964627],2018_Jul_09_1220,60.00952472,go-nogo,001,17,
logos/1.jpg,properties1.xlsx,frogs/ab37.jpg,0,0,400,l,0,0,0,0,0,64,64,36,,,['l'],0,[0.4676054479123195],2018_Jul_09_1220,60.00952472,go-nogo,001,17,
logos/1.jpg,properties1.xlsx,frogs/ab42.jpg,0,0,400,l,0,0,0,0,0,65,65,41,,,['l'],0,[0.2675725661065371],2018_Jul_09_1220,60.00952472,go-nogo,001,17,
logos/1.jpg,properties1.xlsx,logos/1.jpg,0,0,400,a,0,0,0,0,0,66,66,88,,,['a'],0,[0.4842767510272097],2018_Jul_09_1220,60.00952472,go-nogo,001,17,
logos/1.jpg,properties1.xlsx,frogs/ab21.jpg,0,0,400,l,0,0,0,0,0,67,67,20,,,['l'],0,[0.28414146913473814],2018_Jul_09_1220,60.00952472,go-nogo,001,17,
logos/1.jpg,properties1.xlsx,frogs/ab4.jpg,0,0,400,l,0,0,0,0,0,68,68,3,,,['l'],0,[0.30108242581263767],2018_Jul_09_1220,60.00952472,go-nogo,001,17,
logos/1.jpg,properties1.xlsx,frogs/ab48.jpg,0,0,400,l,0,0,0,0,0,69,69,47,,,['l'],0,[0.30056985648661794],2018_Jul_09_1220,60.00952472,go-nogo,001,17,
logos/1.jpg,properties1.xlsx,logos/1.jpg,0,0,400,a,0,0,0,0,0,70,70,83,,,['a'],0,[0.31855870739218517],2018_Jul_09_1220,60.00952472,go-nogo,001,17,
logos/1.jpg,properties1.xlsx,frogs/ab72.jpg,0,0,400,l,0,0,0,0,0,71,71,70,,,['a'],0,[0.333335608890593],2018_Jul_09_1220,60.00952472,go-nogo,001,17,
logos/1.jpg,properties1.xlsx,frogs/ab32.jpg,0,0,400,l,0,0,0,0,0,72,72,31,,,['l'],0,[0.3009669412695075],2018_Jul_09_1220,60.00952472,go-nogo,001,17,
logos/1.jpg,properties1.xlsx,frogs/ab58.jpg,0,0,400,l,0,0,0,0,0,73,73,57,,,['l'],0,[0.30088957231509994],2018_Jul_09_1220,60.00952472,go-nogo,001,17,
logos/1.jpg,properties1.xlsx,frogs/ab33.jpg,0,0,400,l,0,0,0,0,0,74,74,32,,,['l'],0,[0.334294756376039],2018_Jul_09_1220,60.00952472,go-nogo,001,17,
logos/1.jpg,properties1.xlsx,frogs/ab22.jpg,0,0,400,l,0,0,0,0,0,75,75,21,,,['l'],0,[0.30108925248532614],2018_Jul_09_1220,60.00952472,go-nogo,001,17,
logos/1.jpg,properties1.xlsx,frogs/ab18.jpg,0,0,400,l,0,0,0,0,0,76,76,17,,,['l'],0,[0.23432439551197604],2018_Jul_09_1220,60.00952472,go-nogo,001,17,
logos/1.jpg,properties1.xlsx,frogs/ab76.jpg,0,0,400,l,0,0,0,0,0,77,77,74,,,['l'],0,[0.28424330033158185],2018_Jul_09_1220,60.00952472,go-nogo,001,17,
logos/1.jpg,properties1.xlsx,frogs/ab66.jpg,0,0,400,l,0,0,0,0,0,78,78,64,,,['l'],0,[0.31782256454243907],2018_Jul_09_1220,60.00952472,go-nogo,001,17,
logos/1.jpg,properties1.xlsx,logos/1.jpg,0,0,400,a,0,0,0,0,0,79,79,80,,,['a'],0,[0.28421997586701764],2018_Jul_09_1220,60.00952472,go-nogo,001,17,
logos/1.jpg,properties1.xlsx,frogs/ab10.jpg,0,0,400,l,0,0,0,0,0,80,80,9,,,['l'],0,[0.2668079787872557],2018_Jul_09_1220,60.00952472,go-nogo,001,17,
logos/1.jpg,properties1.xlsx,frogs/ab44.jpg,0,0,400,l,0,0,0,0,0,81,81,43,,,['l'],0,[0.2675532238681626],2018_Jul_09_1220,60.00952472,go-nogo,001,17,
logos/1.jpg,properties1.xlsx,frogs/ab36.jpg,0,0,400,l,0,0,0,0,0,82,82,35,,,['l'],0,[0.35147578437045013],2018_Jul_09_1220,60.00952472,go-nogo,001,17,
logos/1.jpg,properties1.xlsx,logos/1.jpg,0,0,400,a,0,0,0,0,0,83,83,85,,,['a'],0,[0.3168565903843046],2018_Jul_09_1220,60.00952472,go-nogo,001,17,
logos/1.jpg,properties1.xlsx,frogs/ab53.jpg,0,0,400,l,0,0,0,0,0,84,84,52,,,['a'],0,[0.30090663899591163],2018_Jul_09_1220,60.00952472,go-nogo,001,17,
logos/1.jpg,properties1.xlsx,frogs/ab39.jpg,0,0,400,l,0,0,0,0,0,85,85,38,,,['l'],0,[0.3843900169022163],2018_Jul_09_1220,60.00952472,go-nogo,001,17,
logos/1.jpg,properties1.xlsx,frogs/ab19.jpg,0,0,400,l,0,0,0,0,0,86,86,18,,,['l'],0,[0.3009237056776328],2018_Jul_09_1220,60.00952472,go-nogo,001,17,
logos/1.jpg,properties1.xlsx,frogs/ab60.jpg,0,0,400,l,0,0,0,0,0,87,87,58,,,['l'],0,[0.31744937311214017],2018_Jul_09_1220,60.00952472,go-nogo,001,17,
logos/1.jpg,properties1.xlsx,frogs/ab51.jpg,0,0,400,l,0,0,0,0,0,88,88,50,,,['l'],0,[0.3675258602888789],2018_Jul_09_1220,60.00952472,go-nogo,001,17,
logos/1.jpg,properties1.xlsx,frogs/ab6.jpg,0,0,400,l,0,0,0,0,0,89,89,5,,,['a'],0,[0.31757851100064727],2018_Jul_09_1220,60.00952472,go-nogo,001,17,
logos/1.jpg,properties1.xlsx,,,,,,0,0,0,0,,,,,,,,,,2018_Jul_09_1220,60.00952472,go-nogo,001,17,
logos/2.jpg,properties2.xlsx,frogs/ab3.jpg,0,0,400,l,0,1,1,1,0,0,0,2,space,3.2720275388,['l'],0,[0.2676368506054132],2018_Jul_09_1220,60.00952472,go-nogo,001,17,
logos/2.jpg,properties2.xlsx,frogs/ab25.jpg,0,0,400,l,0,1,1,1,0,1,1,24,,,['l'],0,[0.36771586933991784],2018_Jul_09_1220,60.00952472,go-nogo,001,17,
logos/2.jpg,properties2.xlsx,frogs/ab76.jpg,0,0,400,l,0,1,1,1,0,2,2,74,,,['l'],0,[0.31755632431486447],2018_Jul_09_1220,60.00952472,go-nogo,001,17,
logos/2.jpg,properties2.xlsx,frogs/ab49.jpg,0,0,400,l,0,1,1,1,0,3,3,48,,,['a'],0,[0.16761528969800565],2018_Jul_09_1220,60.00952472,go-nogo,001,17,
logos/2.jpg,properties2.xlsx,frogs/ab18.jpg,0,0,400,l,0,1,1,1,0,4,4,17,,,['l'],0,[0.25091548522595986],2018_Jul_09_1220,60.00952472,go-nogo,001,17,
logos/2.jpg,properties2.xlsx,logos/2.jpg,0,0,400,a,0,1,1,1,0,5,5,83,,,['a'],0,[0.2843730071099344],2018_Jul_09_1220,60.00952472,go-nogo,001,17,
logos/2.jpg,properties2.xlsx,frogs/ab75.jpg,0,0,400,l,0,1,1,1,0,6,6,73,,,['a'],0,[0.2510497431176191],2018_Jul_09_1220,60.00952472,go-nogo,001,17,
logos/2.jpg,properties2.xlsx,frogs/ab7.jpg,0,0,400,l,0,1,1,1,0,7,7,6,,,['l'],0,[0.26784221966954647],2018_Jul_09_1220,60.00952472,go-nogo,001,17,
logos/2.jpg,properties2.xlsx,frogs/ab12.jpg,0,0,400,l,0,1,1,1,0,8,8,11,,,['l'],0,[0.2674747171340641],2018_Jul_09_1220,60.00952472,go-nogo,001,17,
logos/2.jpg,properties2.xlsx,frogs/ab69.jpg,0,0,400,l,0,1,1,1,0,9,9,67,,,['l'],0,[0.20130207399961364],2018_Jul_09_1220,60.00952472,go-nogo,001,17,
logos/2.jpg,properties2.xlsx,frogs/ab43.jpg,0,0,400,l,0,1,1,1,0,10,10,42,,,['l'],0,[0.18435713509552443],2018_Jul_09_1220,60.00952472,go-nogo,001,17,
logos/2.jpg,properties2.xlsx,frogs/ab32.jpg,0,0,400,l,0,1,1,1,0,11,11,31,,,['l'],0,[0.3342634674609144],2018_Jul_09_1220,60.00952472,go-nogo,001,17,
logos/2.jpg,properties2.xlsx,frogs/ab19.jpg,0,0,400,l,0,1,1,1,0,12,12,18,,,['l'],0,[0.23442622671063873],2018_Jul_09_1220,60.00952472,go-nogo,001,17,
logos/2.jpg,properties2.xlsx,frogs/ab77.jpg,0,0,400,l,0,1,1,1,0,13,13,75,,,['l'],0,[0.1511681289966873],2018_Jul_09_1220,60.00952472,go-nogo,001,17,
logos/2.jpg,properties2.xlsx,frogs/ab11.jpg,0,0,400,l,0,1,1,1,0,14,14,10,,,['l'],0,[0.20107736269710585],2018_Jul_09_1220,60.00952472,go-nogo,001,17,
logos/2.jpg,properties2.xlsx,frogs/ab34.jpg,0,0,400,l,0,1,1,1,0,15,15,33,,,['l'],0,[0.11763835816327628],2018_Jul_09_1220,60.00952472,go-nogo,001,17,
logos/2.jpg,properties2.xlsx,frogs/ab52.jpg,0,0,400,l,0,1,1,1,0,16,16,51,,,['a'],0,[0.2509422230259588],2018_Jul_09_1220,60.00952472,go-nogo,001,17,
logos/2.jpg,properties2.xlsx,frogs/ab16.jpg,0,0,400,l,0,1,1,1,0,17,17,15,,,['a'],0,[0.21751485227923695],2018_Jul_09_1220,60.00952472,go-nogo,001,17,
logos/2.jpg,properties2.xlsx,frogs/ab2.jpg,0,0,400,l,0,1,1,1,0,18,18,1,,,['l'],0,[0.2676305928225702],2018_Jul_09_1220,60.00952472,go-nogo,001,17,
logos/2.jpg,properties2.xlsx,frogs/ab70.jpg,0,0,400,l,0,1,1,1,0,19,19,68,,,['l'],0,[0.2336735860681074],2018_Jul_09_1220,60.00952472,go-nogo,001,17,
logos/2.jpg,properties2.xlsx,frogs/ab48.jpg,0,0,400,l,0,1,1,1,0,20,20,47,,,['l'],0,[0.21762806126480427],2018_Jul_09_1220,60.00952472,go-nogo,001,17,
logos/2.jpg,properties2.xlsx,frogs/ab13.jpg,0,0,400,l,0,1,1,1,0,21,21,12,,,['l'],0,[0.21757117232755263],2018_Jul_09_1220,60.00952472,go-nogo,001,17,
logos/2.jpg,properties2.xlsx,frogs/ab53.jpg,0,0,400,l,0,1,1,1,0,22,22,52,,,['a'],0,[0.23412016422753368],2018_Jul_09_1220,60.00952472,go-nogo,001,17,
logos/2.jpg,properties2.xlsx,frogs/ab81.jpg,0,0,400,l,0,1,1,1,0,23,23,79,,,['a'],0,[0.2510548631225902],2018_Jul_09_1220,60.00952472,go-nogo,001,17,
logos/2.jpg,properties2.xlsx,frogs/ab1.jpg,0,0,400,l,0,1,1,1,0,24,24,0,,,['l'],0,[0.1843497395339],2018_Jul_09_1220,60.00952472,go-nogo,001,17,
logos/2.jpg,properties2.xlsx,frogs/ab5.jpg,0,0,400,l,0,1,1,1,0,25,25,4,,,['a'],0,[0.16826439247415692],2018_Jul_09_1220,60.00952472,go-nogo,001,17,
logos/2.jpg,properties2.xlsx,logos/2.jpg,0,0,400,a,0,1,1,1,0,26,26,80,,,['a'],0,[0.2342555598979743],2018_Jul_09_1220,60.00952472,go-nogo,001,17,
logos/2.jpg,properties2.xlsx,frogs/ab14.jpg,0,0,400,l,0,1,1,1,0,27,27,13,,,['l'],0,[0.25102357420746557],2018_Jul_09_1220,60.00952472,go-nogo,001,17,
logos/2.jpg,properties2.xlsx,frogs/ab44.jpg,0,0,400,l,0,1,1,1,0,28,28,43,,,['a'],0,[0.2343078977201003],2018_Jul_09_1220,60.00952472,go-nogo,001,17,
logos/2.jpg,properties2.xlsx,frogs/ab47.jpg,0,0,400,l,0,1,1,1,0,29,29,46,,,['a'],0,[0.3509518372566163],2018_Jul_09_1220,60.00952472,go-nogo,001,17,
logos/2.jpg,properties2.xlsx,frogs/ab60.jpg,0,0,400,l,0,1,1,1,0,30,30,58,,,['l'],0,[0.28424955811533437],2018_Jul_09_1220,60.00952472,go-nogo,001,17,
logos/2.jpg,properties2.xlsx,frogs/ab26.jpg,0,0,400,l,0,1,1,1,0,31,31,25,,,['a'],0,[0.22962536928025656],2018_Jul_09_1220,60.00952472,go-nogo,001,17,
logos/2.jpg,properties2.xlsx,logos/2.jpg,0,0,400,a,0,1,1,1,0,32,32,86,,,['a'],0,[0.2675390016329402],2018_Jul_09_1220,60.00952472,go-nogo,001,17,
logos/2.jpg,properties2.xlsx,frogs/ab72.jpg,0,0,400,l,0,1,1,1,0,33,33,70,,,['a'],0,[0.26684780104369565],2018_Jul_09_1220,60.00952472,go-nogo,001,17,
logos/2.jpg,properties2.xlsx,frogs/ab24.jpg,0,0,400,l,0,1,1,1,0,34,34,23,,,['l'],0,[0.30087250563337875],2018_Jul_09_1220,60.00952472,go-nogo,001,17,
logos/2.jpg,properties2.xlsx,frogs/ab30.jpg,0,0,400,l,0,1,1,1,0,35,35,29,,,['a'],0,[0.26755493053588],2018_Jul_09_1220,60.00952472,go-nogo,001,17,
logos/2.jpg,properties2.xlsx,frogs/ab35.jpg,0,0,400,l,0,1,1,1,0,36,36,34,,,['l'],0,[0.35086195273561316],2018_Jul_09_1220,60.00952472,go-nogo,001,17,
logos/2.jpg,properties2.xlsx,frogs/ab64.jpg,0,0,400,l,0,1,1,1,0,37,37,62,,,['a'],0,[0.23437502666638466],2018_Jul_09_1220,60.00952472,go-nogo,001,17,
logos/2.jpg,properties2.xlsx,logos/2.jpg,0,0,400,a,0,1,1,1,0,38,38,82,,,['a'],0,[0.250104817866486],2018_Jul_09_1220,60.00952472,go-nogo,001,17,
logos/2.jpg,properties2.xlsx,frogs/ab23.jpg,0,0,400,l,0,1,1,1,0,39,39,22,,,['l'],0,[0.30207968888589676],2018_Jul_09_1220,60.00952472,go-nogo,001,17,
logos/2.jpg,properties2.xlsx,frogs/ab9.jpg,0,0,400,l,0,1,1,1,0,40,40,8,,,['l'],0,[0.3175608754290806],2018_Jul_09_1220,60.00952472,go-nogo,001,17,
logos/2.jpg,properties2.xlsx,frogs/ab56.jpg,0,0,400,l,0,1,1,1,0,41,41,55,,,['a'],0,[0.3185376584851838],2018_Jul_09_1220,60.00952472,go-nogo,001,17,
logos/2.jpg,properties2.xlsx,logos/2.jpg,0,0,400,a,0,1,1,1,0,42,42,88,,,['a'],0,[0.28392358450400934],2018_Jul_09_1220,60.00952472,go-nogo,001,17,
logos/2.jpg,properties2.xlsx,frogs/ab57.jpg,0,0,400,l,0,1,1,1,0,43,43,56,,,['a'],0,[0.2841005090986073],2018_Jul_09_1220,60.00952472,go-nogo,001,17,
logos/2.jpg,properties2.xlsx,frogs/ab80.jpg,0,0,400,l,0,1,1,1,0,44,44,78,,,['a'],0,[0.2510321075469619],2018_Jul_09_1220,60.00952472,go-nogo,001,17,
logos/2.jpg,properties2.xlsx,frogs/ab40.jpg,0,0,400,l,0,1,1,1,0,45,45,39,,,['a'],0,[0.3007672610992813],2018_Jul_09_1220,60.00952472,go-nogo,001,17,
logos/2.jpg,properties2.xlsx,logos/2.jpg,0,0,400,a,0,1,1,1,0,46,46,81,,,['a'],0,[0.28533556793081516],2018_Jul_09_1220,60.00952472,go-nogo,001,17,
logos/2.jpg,properties2.xlsx,frogs/ab58.jpg,0,0,400,l,0,1,1,1,0,47,47,57,,,['l'],0,[0.3169897104980919],2018_Jul_09_1220,60.00952472,go-nogo,001,17,
logos/2.jpg,properties2.xlsx,frogs/ab29.jpg,0,0,400,l,0,1,1,1,0,48,48,28,,,['l'],0,[0.3007098032721842],2018_Jul_09_1220,60.00952472,go-nogo,001,17,
logos/2.jpg,properties2.xlsx,frogs/ab79.jpg,0,0,400,l,0,1,1,1,0,49,49,77,,,['l'],0,[0.26750941938553296],2018_Jul_09_1220,60.00952472,go-nogo,001,17,
logos/2.jpg,properties2.xlsx,frogs/ab54.jpg,0,0,400,l,0,1,1,1,0,50,50,53,,,['l'],0,[0.26753331273994263],2018_Jul_09_1220,60.00952472,go-nogo,001,17,
logos/2.jpg,properties2.xlsx,frogs/ab4.jpg,0,0,400,l,0,1,1,1,0,51,51,3,,,['l'],0,[0.28407092685210955],2018_Jul_09_1220,60.00952472,go-nogo,001,17,
logos/2.jpg,properties2.xlsx,frogs/ab62.jpg,0,0,400,l,0,1,1,1,0,52,52,60,,,['l'],0,[0.29991563370549557],2018_Jul_09_1220,60.00952472,go-nogo,001,17,
logos/2.jpg,properties2.xlsx,frogs/ab55.jpg,0,0,400,l,0,1,1,1,0,53,53,54,,,['l'],0,[0.3185012495650881],2018_Jul_09_1220,60.00952472,go-nogo,001,17,
logos/2.jpg,properties2.xlsx,frogs/ab73.jpg,0,0,400,l,0,1,1,1,0,54,54,71,,,['l'],0,[1.100499427981049],2018_Jul_09_1220,60.00952472,go-nogo,001,17,
logos/2.jpg,properties2.xlsx,frogs/ab66.jpg,0,0,400,l,0,1,1,1,0,55,55,64,,,['l'],0,[0.23409683976205997],2018_Jul_09_1220,60.00952472,go-nogo,001,17,
logos/2.jpg,properties2.xlsx,frogs/ab74.jpg,0,0,400,l,0,1,1,1,0,56,56,72,,,['a'],0,[0.2508142229171426],2018_Jul_09_1220,60.00952472,go-nogo,001,17,
logos/2.jpg,properties2.xlsx,logos/2.jpg,0,0,400,a,0,1,1,1,0,57,57,89,,,['a'],0,[0.28425126478305174],2018_Jul_09_1220,60.00952472,go-nogo,001,17,
logos/2.jpg,properties2.xlsx,frogs/ab10.jpg,0,0,400,l,0,1,1,1,0,58,58,9,,,['l'],0,[0.4675104433863453],2018_Jul_09_1220,60.00952472,go-nogo,001,17,
logos/2.jpg,properties2.xlsx,frogs/ab39.jpg,0,0,400,l,0,1,1,1,0,59,59,38,,,['l'],0,[0.30075645220131264],2018_Jul_09_1220,60.00952472,go-nogo,001,17,
logos/2.jpg,properties2.xlsx,frogs/ab22.jpg,0,0,400,l,0,1,1,1,0,60,60,21,,,['l'],0,[0.2674189659755939],2018_Jul_09_1220,60.00952472,go-nogo,001,17,
logos/2.jpg,properties2.xlsx,frogs/ab63.jpg,0,0,400,l,0,1,1,1,0,61,61,61,,,['l'],0,[0.25098375195011613],2018_Jul_09_1220,60.00952472,go-nogo,001,17,
logos/2.jpg,properties2.xlsx,frogs/ab31.jpg,0,0,400,l,0,1,1,1,0,62,62,30,,,['l'],0,[0.43415987270600453],2018_Jul_09_1220,60.00952472,go-nogo,001,17,
logos/2.jpg,properties2.xlsx,frogs/ab8.jpg,0,0,400,l,0,1,1,1,0,63,63,7,,,['l'],0,[0.23431017327857262],2018_Jul_09_1220,60.00952472,go-nogo,001,17,
logos/2.jpg,properties2.xlsx,frogs/ab38.jpg,0,0,400,l,0,1,1,1,0,64,64,37,,,['l'],0,[0.23288169205898157],2018_Jul_09_1220,60.00952472,go-nogo,001,17,
logos/2.jpg,properties2.xlsx,frogs/ab27.jpg,0,0,400,l,0,1,1,1,0,65,65,26,,,['l'],0,[0.2507926051202958],2018_Jul_09_1220,60.00952472,go-nogo,001,17,
logos/2.jpg,properties2.xlsx,frogs/ab65.jpg,0,0,400,l,0,1,1,1,0,66,66,63,,,['l'],0,[0.20222083033968374],2018_Jul_09_1220,60.00952472,go-nogo,001,17,
logos/2.jpg,properties2.xlsx,frogs/ab51.jpg,0,0,400,l,0,1,1,1,0,67,67,50,,,['l'],0,[0.3175961465703949],2018_Jul_09_1220,60.00952472,go-nogo,001,17,
logos/2.jpg,properties2.xlsx,frogs/ab15.jpg,0,0,400,l,0,1,1,1,0,68,68,14,,,['l'],0,[0.21771453244946315],2018_Jul_09_1220,60.00952472,go-nogo,001,17,
logos/2.jpg,properties2.xlsx,frogs/ab78.jpg,0,0,400,l,0,1,1,1,0,69,69,76,,,['a'],0,[0.3008013944618142],2018_Jul_09_1220,60.00952472,go-nogo,001,17,
logos/2.jpg,properties2.xlsx,frogs/ab21.jpg,0,0,400,l,0,1,1,1,0,70,70,20,,,['l'],0,[0.2175768612214597],2018_Jul_09_1220,60.00952472,go-nogo,001,17,
logos/2.jpg,properties2.xlsx,frogs/ab67.jpg,0,0,400,l,0,1,1,1,0,71,71,65,,,['a'],0,[0.23413267979321972],2018_Jul_09_1220,60.00952472,go-nogo,001,17,
logos/2.jpg,properties2.xlsx,logos/2.jpg,0,0,400,a,0,1,1,1,0,72,72,85,,,['a'],0,[0.21780555474924768],2018_Jul_09_1220,60.00952472,go-nogo,001,17,
logos/2.jpg,properties2.xlsx,frogs/ab36.jpg,0,0,400,l,0,1,1,1,0,73,73,35,,,['l'],0,[0.31755006653202145],2018_Jul_09_1220,60.00952472,go-nogo,001,17,
logos/2.jpg,properties2.xlsx,frogs/ab50.jpg,0,0,400,l,0,1,1,1,0,74,74,49,,,['a'],0,[0.2674513926694999],2018_Jul_09_1220,60.00952472,go-nogo,001,17,
logos/2.jpg,properties2.xlsx,frogs/ab45.jpg,0,0,400,l,0,1,1,1,0,75,75,44,,,['a'],0,[0.3508130282498314],2018_Jul_09_1220,60.00952472,go-nogo,001,17,
logos/2.jpg,properties2.xlsx,frogs/ab20.jpg,0,0,400,l,0,1,1,1,0,76,76,19,,,['l'],0,[0.2842859670354301],2018_Jul_09_1220,60.00952472,go-nogo,001,17,
logos/2.jpg,properties2.xlsx,frogs/ab46.jpg,0,0,400,l,0,1,1,1,0,77,77,45,,,['a'],0,[0.2674957660410655],2018_Jul_09_1220,60.00952472,go-nogo,001,17,
logos/2.jpg,properties2.xlsx,frogs/ab71.jpg,0,0,400,l,0,1,1,1,0,78,78,69,,,['l'],0,[0.35124993528916093],2018_Jul_09_1220,60.00952472,go-nogo,001,17,
logos/2.jpg,properties2.xlsx,frogs/ab68.jpg,0,0,400,l,0,1,1,1,0,79,79,66,,,['l'],0,[0.31706309722721926],2018_Jul_09_1220,60.00952472,go-nogo,001,17,
logos/2.jpg,properties2.xlsx,frogs/ab37.jpg,0,0,400,l,0,1,1,1,0,80,80,36,,,['l'],0,[0.30090379454941285],2018_Jul_09_1220,60.00952472,go-nogo,001,17,
logos/2.jpg,properties2.xlsx,frogs/ab6.jpg,0,0,400,l,0,1,1,1,0,81,81,5,,,['a'],0,[0.26759987279638153],2018_Jul_09_1220,60.00952472,go-nogo,001,17,
logos/2.jpg,properties2.xlsx,frogs/ab42.jpg,0,0,400,l,0,1,1,1,0,82,82,41,,,['l'],0,[0.2839918512281656],2018_Jul_09_1220,60.00952472,go-nogo,001,17,
logos/2.jpg,properties2.xlsx,frogs/ab28.jpg,0,0,400,l,0,1,1,1,0,83,83,27,,,['a'],0,[0.250913778557333],2018_Jul_09_1220,60.00952472,go-nogo,001,17,
logos/2.jpg,properties2.xlsx,frogs/ab33.jpg,0,0,400,l,0,1,1,1,0,84,84,32,,,['l'],0,[0.28422111364670855],2018_Jul_09_1220,60.00952472,go-nogo,001,17,
logos/2.jpg,properties2.xlsx,logos/2.jpg,0,0,400,a,0,1,1,1,0,85,85,84,,,['a'],0,[0.28431213594649307],2018_Jul_09_1220,60.00952472,go-nogo,001,17,
logos/2.jpg,properties2.xlsx,frogs/ab41.jpg,0,0,400,l,0,1,1,1,0,86,86,40,,,['l'],0,[0.23433065329572855],2018_Jul_09_1220,60.00952472,go-nogo,001,17,
logos/2.jpg,properties2.xlsx,frogs/ab17.jpg,0,0,400,l,0,1,1,1,0,87,87,16,,,['a'],0,[0.23425783545553713],2018_Jul_09_1220,60.00952472,go-nogo,001,17,
logos/2.jpg,properties2.xlsx,logos/2.jpg,0,0,400,a,0,1,1,1,0,88,88,87,,,['l'],0,[0.35082440603673604],2018_Jul_09_1220,60.00952472,go-nogo,001,17,
logos/2.jpg,properties2.xlsx,frogs/ab61.jpg,0,0,400,l,0,1,1,1,0,89,89,59,,,['l'],0,[0.6176483137269315],2018_Jul_09_1220,60.00952472,go-nogo,001,17,
logos/2.jpg,properties2.xlsx,,,,,,0,1,1,1,,,,,,,,,,2018_Jul_09_1220,60.00952472,go-nogo,001,17,
logos/4.jpg,properties4.xlsx,frogs/ab9.jpg,0,0,400,l,0,2,2,3,0,0,0,8,space,15.6849587356,['l'],0,[0.2834474240971758],2018_Jul_09_1220,60.00952472,go-nogo,001,17,
logos/4.jpg,properties4.xlsx,frogs/ab70.jpg,0,0,400,l,0,2,2,3,0,1,1,68,,,['l'],0,[0.034409842696732085],2018_Jul_09_1220,60.00952472,go-nogo,001,17,
logos/4.jpg,properties4.xlsx,frogs/ab50.jpg,0,0,400,l,0,2,2,3,0,2,2,49,,,['l'],0,[0.08388444491538394],2018_Jul_09_1220,60.00952472,go-nogo,001,17,
logos/4.jpg,properties4.xlsx,frogs/ab17.jpg,0,0,400,l,0,2,2,3,0,3,3,16,,,['a'],0,[0.08408583175332751],2018_Jul_09_1220,60.00952472,go-nogo,001,17,
logos/4.jpg,properties4.xlsx,logos/4.jpg,0,0,400,a,0,2,2,3,0,4,4,87,,,['a'],0,[0.11689197530358797],2018_Jul_09_1220,60.00952472,go-nogo,001,17,
logos/4.jpg,properties4.xlsx,frogs/ab55.jpg,0,0,400,l,0,2,2,3,0,5,5,54,,,['l'],0,[0.18468652204410319],2018_Jul_09_1220,60.00952472,go-nogo,001,17,
logos/4.jpg,properties4.xlsx,frogs/ab67.jpg,0,0,400,l,0,2,2,3,0,6,6,65,,,['a'],0,[0.08443399205043534],2018_Jul_09_1220,60.00952472,go-nogo,001,17,
logos/4.jpg,properties4.xlsx,frogs/ab16.jpg,0,0,400,l,0,2,2,3,0,7,7,15,,,['a'],0,[0.08413703179667209],2018_Jul_09_1220,60.00952472,go-nogo,001,17,
logos/4.jpg,properties4.xlsx,frogs/ab46.jpg,0,0,400,l,0,2,2,3,0,8,8,45,,,['a'],0,[0.18436680621562118],2018_Jul_09_1220,60.00952472,go-nogo,001,17,
logos/4.jpg,properties4.xlsx,frogs/ab53.jpg,0,0,400,l,0,2,2,3,0,9,9,52,,,['a'],0,[0.06773822669219953],2018_Jul_09_1220,60.00952472,go-nogo,001,17,
logos/4.jpg,properties4.xlsx,frogs/ab14.jpg,0,0,400,l,0,2,2,3,0,10,10,13,,,['l'],0,[0.1344069413598845],2018_Jul_09_1220,60.00952472,go-nogo,001,17,
logos/4.jpg,properties4.xlsx,frogs/ab21.jpg,0,0,400,l,0,2,2,3,0,11,11,20,,,['l'],0,[0.10262195423729281],2018_Jul_09_1220,60.00952472,go-nogo,001,17,
logos/4.jpg,properties4.xlsx,frogs/ab26.jpg,0,0,400,l,0,2,2,3,0,12,12,25,,,['a'],0,[0.1337623896997684],2018_Jul_09_1220,60.00952472,go-nogo,001,17,
logos/4.jpg,properties4.xlsx,frogs/ab73.jpg,0,0,400,l,0,2,2,3,0,13,13,71,,,['l'],0,[0.1175154780576122],2018_Jul_09_1220,60.00952472,go-nogo,001,17,
logos/4.jpg,properties4.xlsx,logos/4.jpg,0,0,400,a,0,2,2,3,0,14,14,81,,,['a'],0,[0.16768355642307142],2018_Jul_09_1220,60.00952472,go-nogo,001,17,
logos/4.jpg,properties4.xlsx,frogs/ab1.jpg,0,0,400,l,0,2,2,3,0,15,15,0,,,['l'],0,[0.1676158585878511],2018_Jul_09_1220,60.00952472,go-nogo,001,17,
logos/4.jpg,properties4.xlsx,frogs/ab29.jpg,0,0,400,l,0,2,2,3,0,16,16,28,,,['l'],0,[0.1839919081176049],2018_Jul_09_1220,60.00952472,go-nogo,001,17,
logos/4.jpg,properties4.xlsx,frogs/ab7.jpg,0,0,400,l,0,2,2,3,0,17,17,6,,,['l'],0,[0.2010204737598542],2018_Jul_09_1220,60.00952472,go-nogo,001,17,
logos/4.jpg,properties4.xlsx,frogs/ab68.jpg,0,0,400,l,0,2,2,3,0,18,18,66,,,['l'],0,[0.23340507028296997],2018_Jul_09_1220,60.00952472,go-nogo,001,17,
logos/4.jpg,properties4.xlsx,frogs/ab65.jpg,0,0,400,l,0,2,2,3,0,19,19,63,,,['l'],0,[0.25068337836091814],2018_Jul_09_1220,60.00952472,go-nogo,001,17,
logos/4.jpg,properties4.xlsx,frogs/ab13.jpg,0,0,400,l,0,2,2,3,0,20,20,12,,,['l'],0,[0.13420953674813063],2018_Jul_09_1220,60.00952472,go-nogo,001,17,
logos/4.jpg,properties4.xlsx,frogs/ab63.jpg,0,0,400,l,0,2,2,3,0,21,21,61,,,['l'],0,[0.23406043084287376],2018_Jul_09_1220,60.00952472,go-nogo,001,17,
logos/4.jpg,properties4.xlsx,frogs/ab33.jpg,0,0,400,l,0,2,2,3,0,22,22,32,,,['l'],0,[0.2506708627943226],2018_Jul_09_1220,60.00952472,go-nogo,001,17,
logos/4.jpg,properties4.xlsx,frogs/ab11.jpg,0,0,400,l,0,2,2,3,0,23,23,10,,,['l'],0,[0.18420979274742422],2018_Jul_09_1220,60.00952472,go-nogo,001,17,
logos/4.jpg,properties4.xlsx,frogs/ab10.jpg,0,0,400,l,0,2,2,3,0,24,24,9,,,['l'],0,[0.20096358482169308],2018_Jul_09_1220,60.00952472,go-nogo,001,17,
logos/4.jpg,properties4.xlsx,frogs/ab49.jpg,0,0,400,l,0,2,2,3,0,25,25,48,,,['a'],0,[0.2343027777160387],2018_Jul_09_1220,60.00952472,go-nogo,001,17,
logos/4.jpg,properties4.xlsx,frogs/ab69.jpg,0,0,400,l,0,2,2,3,0,26,26,67,,,['a'],0,[0.16763406304744422],2018_Jul_09_1220,60.00952472,go-nogo,001,17,
logos/4.jpg,properties4.xlsx,frogs/ab5.jpg,0,0,400,l,0,2,2,3,0,27,27,4,,,['a'],0,[0.16771200089260674],2018_Jul_09_1220,60.00952472,go-nogo,001,17,
logos/4.jpg,properties4.xlsx,frogs/ab8.jpg,0,0,400,l,0,2,2,3,0,28,28,7,,,['l'],0,[0.23418217316884693],2018_Jul_09_1220,60.00952472,go-nogo,001,17,
logos/4.jpg,properties4.xlsx,frogs/ab28.jpg,0,0,400,l,0,2,2,3,0,29,29,27,,,['a'],0,[0.21758482567292958],2018_Jul_09_1220,60.00952472,go-nogo,001,17,
logos/4.jpg,properties4.xlsx,frogs/ab36.jpg,0,0,400,l,0,2,2,3,0,30,30,35,,,['l'],0,[0.2508625785139884],2018_Jul_09_1220,60.00952472,go-nogo,001,17,
logos/4.jpg,properties4.xlsx,frogs/ab81.jpg,0,0,400,l,0,2,2,3,0,31,31,79,,,['a'],0,[0.184284317255333],2018_Jul_09_1220,60.00952472,go-nogo,001,17,
logos/4.jpg,properties4.xlsx,frogs/ab57.jpg,0,0,400,l,0,2,2,3,0,32,32,56,,,['a'],0,[0.7672656502891186],2018_Jul_09_1220,60.00952472,go-nogo,001,17,
logos/4.jpg,properties4.xlsx,frogs/ab61.jpg,0,0,400,l,0,2,2,3,0,33,33,59,,,['l'],0,[0.38417270116042346],2018_Jul_09_1220,60.00952472,go-nogo,001,17,
logos/4.jpg,properties4.xlsx,frogs/ab40.jpg,0,0,400,l,0,2,2,3,0,34,34,39,,,['a'],0,[0.25088192075236293],2018_Jul_09_1220,60.00952472,go-nogo,001,17,
logos/4.jpg,properties4.xlsx,logos/4.jpg,0,0,400,a,0,2,2,3,0,35,35,85,,,['a'],0,[0.23420549763341114],2018_Jul_09_1220,60.00952472,go-nogo,001,17,
logos/4.jpg,properties4.xlsx,frogs/ab19.jpg,0,0,400,l,0,2,2,3,0,36,36,18,,,['l'],0,[0.26692858333444747],2018_Jul_09_1220,60.00952472,go-nogo,001,17,
logos/4.jpg,properties4.xlsx,frogs/ab31.jpg,0,0,400,l,0,2,2,3,0,37,37,30,,,['a'],0,[0.3509279439031161],2018_Jul_09_1220,60.00952472,go-nogo,001,17,
logos/4.jpg,properties4.xlsx,frogs/ab77.jpg,0,0,400,l,0,2,2,3,0,38,38,75,,,['l'],0,[0.8006634387884333],2018_Jul_09_1220,60.00952472,go-nogo,001,17,
logos/4.jpg,properties4.xlsx,frogs/ab35.jpg,0,0,400,l,0,2,2,3,0,39,39,34,,,['l'],0,[0.2674036059615901],2018_Jul_09_1220,60.00952472,go-nogo,001,17,
logos/4.jpg,properties4.xlsx,frogs/ab25.jpg,0,0,400,l,0,2,2,3,0,40,40,24,,,['l'],0,[0.25097976972483593],2018_Jul_09_1220,60.00952472,go-nogo,001,17,
logos/4.jpg,properties4.xlsx,frogs/ab54.jpg,0,0,400,l,0,2,2,3,0,41,41,53,,,['l'],0,[0.3840976077635787],2018_Jul_09_1220,60.00952472,go-nogo,001,17,
logos/4.jpg,properties4.xlsx,frogs/ab4.jpg,0,0,400,l,0,2,2,3,0,42,42,3,,,['l'],0,[0.3342543652306631],2018_Jul_09_1220,60.00952472,go-nogo,001,17,
logos/4.jpg,properties4.xlsx,frogs/ab66.jpg,0,0,400,l,0,2,2,3,0,43,43,64,,,['l'],0,[0.9670965763662025],2018_Jul_09_1220,60.00952472,go-nogo,001,17,
logos/4.jpg,properties4.xlsx,frogs/ab42.jpg,0,0,400,l,0,2,2,3,0,44,44,41,,,['l'],0,[0.3167467947350815],2018_Jul_09_1220,60.00952472,go-nogo,001,17,
logos/4.jpg,properties4.xlsx,frogs/ab23.jpg,0,0,400,l,0,2,2,3,0,45,45,22,,,['l'],0,[0.21727421207378939],2018_Jul_09_1220,60.00952472,go-nogo,001,17,
logos/4.jpg,properties4.xlsx,frogs/ab72.jpg,0,0,400,l,0,2,2,3,0,46,46,70,,,['a'],0,[0.25090524521692714],2018_Jul_09_1220,60.00952472,go-nogo,001,17,
logos/4.jpg,properties4.xlsx,frogs/ab58.jpg,0,0,400,l,0,2,2,3,0,47,47,57,,,['l'],0,[0.26773640624651307],2018_Jul_09_1220,60.00952472,go-nogo,001,17,
logos/4.jpg,properties4.xlsx,frogs/ab3.jpg,0,0,400,l,0,2,2,3,0,48,48,2,,,['l'],0,[0.3176462088358676],2018_Jul_09_1220,60.00952472,go-nogo,001,17,
logos/4.jpg,properties4.xlsx,frogs/ab39.jpg,0,0,400,l,0,2,2,3,0,49,49,38,,,['l'],0,[0.3010755991399492],2018_Jul_09_1220,60.00952472,go-nogo,001,17,
logos/4.jpg,properties4.xlsx,frogs/ab56.jpg,0,0,400,l,0,2,2,3,0,50,50,55,,,['a'],0,[0.36738306905499485],2018_Jul_09_1220,60.00952472,go-nogo,001,17,
logos/4.jpg,properties4.xlsx,frogs/ab48.jpg,0,0,400,l,0,2,2,3,0,51,51,47,,,['l'],0,[0.35094842392027203],2018_Jul_09_1220,60.00952472,go-nogo,001,17,
logos/4.jpg,properties4.xlsx,logos/4.jpg,0,0,400,a,0,2,2,3,0,52,52,88,,,['a'],0,[0.2842216825356445],2018_Jul_09_1220,60.00952472,go-nogo,001,17,
logos/4.jpg,properties4.xlsx,logos/4.jpg,0,0,400,a,0,2,2,3,0,53,53,80,,,['a'],0,[0.3510872329279664],2018_Jul_09_1220,60.00952472,go-nogo,001,17,
logos/4.jpg,properties4.xlsx,frogs/ab62.jpg,0,0,400,l,0,2,2,3,0,54,54,60,,,['l'],0,[0.38410329665748577],2018_Jul_09_1220,60.00952472,go-nogo,001,17,
logos/4.jpg,properties4.xlsx,frogs/ab22.jpg,0,0,400,l,0,2,2,3,0,55,55,21,,,['l'],0,[0.23404393305099802],2018_Jul_09_1220,60.00952472,go-nogo,001,17,
logos/4.jpg,properties4.xlsx,frogs/ab30.jpg,0,0,400,l,0,2,2,3,0,56,56,29,,,['a'],0,[0.2842097358588944],2018_Jul_09_1220,60.00952472,go-nogo,001,17,
logos/4.jpg,properties4.xlsx,frogs/ab47.jpg,0,0,400,l,0,2,2,3,0,57,57,46,,,['a'],0,[0.2840805979712968],2018_Jul_09_1220,60.00952472,go-nogo,001,17,
logos/4.jpg,properties4.xlsx,frogs/ab24.jpg,0,0,400,l,0,2,2,3,0,58,58,23,,,['l'],0,[0.3677192826753526],2018_Jul_09_1220,60.00952472,go-nogo,001,17,
logos/4.jpg,properties4.xlsx,frogs/ab80.jpg,0,0,400,l,0,2,2,3,0,59,59,78,,,['a'],0,[0.25092970745936327],2018_Jul_09_1220,60.00952472,go-nogo,001,17,
logos/4.jpg,properties4.xlsx,frogs/ab12.jpg,0,0,400,l,0,2,2,3,0,60,60,11,,,['l'],0,[0.317581924336082],2018_Jul_09_1220,60.00952472,go-nogo,001,17,
logos/4.jpg,properties4.xlsx,frogs/ab32.jpg,0,0,400,l,0,2,2,3,0,61,61,31,,,['l'],0,[0.3009333767959106],2018_Jul_09_1220,60.00952472,go-nogo,001,17,
logos/4.jpg,properties4.xlsx,frogs/ab37.jpg,0,0,400,l,0,2,2,3,0,62,62,36,,,['l'],0,[0.284208598080113],2018_Jul_09_1220,60.00952472,go-nogo,001,17,
logos/4.jpg,properties4.xlsx,frogs/ab74.jpg,0,0,400,l,0,2,2,3,0,63,63,72,,,['a'],0,[0.3008924167615987],2018_Jul_09_1220,60.00952472,go-nogo,001,17,
logos/4.jpg,properties4.xlsx,frogs/ab27.jpg,0,0,400,l,0,2,2,3,0,64,64,26,,,['l'],0,[0.35091315277986723],2018_Jul_09_1220,60.00952472,go-nogo,001,17,
logos/4.jpg,properties4.xlsx,frogs/ab76.jpg,0,0,400,l,0,2,2,3,0,65,65,74,,,['l'],0,[0.3509290816818975],2018_Jul_09_1220,60.00952472,go-nogo,001,17,
logos/4.jpg,properties4.xlsx,frogs/ab78.jpg,0,0,400,l,0,2,2,3,0,66,66,76,,,['a'],0,[0.3006301587602138],2018_Jul_09_1220,60.00952472,go-nogo,001,17,
logos/4.jpg,properties4.xlsx,logos/4.jpg,0,0,400,a,0,2,2,3,0,67,67,84,,,['a'],0,[0.18133121251321427],2018_Jul_09_1220,60.00952472,go-nogo,001,17,
logos/4.jpg,properties4.xlsx,frogs/ab79.jpg,0,0,400,l,0,2,2,3,0,68,68,77,,,['l'],0,[0.28416650026701973],2018_Jul_09_1220,60.00952472,go-nogo,001,17,
logos/4.jpg,properties4.xlsx,frogs/ab64.jpg,0,0,400,l,0,2,2,3,0,69,69,62,,,['a'],0,[0.2343039154948201],2018_Jul_09_1220,60.00952472,go-nogo,001,17,
logos/4.jpg,properties4.xlsx,logos/4.jpg,0,0,400,a,0,2,2,3,0,70,70,82,,,['a'],0,[0.25015715568952146],2018_Jul_09_1220,60.00952472,go-nogo,001,17,
logos/4.jpg,properties4.xlsx,frogs/ab71.jpg,0,0,400,l,0,2,2,3,0,71,71,69,,,['l'],0,[0.23431984439685039],2018_Jul_09_1220,60.00952472,go-nogo,001,17,
logos/4.jpg,properties4.xlsx,frogs/ab2.jpg,0,0,400,l,0,2,2,3,0,72,72,1,,,['l'],0,[0.33420430296519044],2018_Jul_09_1220,60.00952472,go-nogo,001,17,
logos/4.jpg,properties4.xlsx,frogs/ab41.jpg,0,0,400,l,0,2,2,3,0,73,73,40,,,['l'],0,[0.18448342853662325],2018_Jul_09_1220,60.00952472,go-nogo,001,17,
logos/4.jpg,properties4.xlsx,logos/4.jpg,0,0,400,a,0,2,2,3,0,74,74,86,,,['a'],0,[0.26784392633726384],2018_Jul_09_1220,60.00952472,go-nogo,001,17,
logos/4.jpg,properties4.xlsx,logos/4.jpg,0,0,400,a,0,2,2,3,0,75,75,89,,,['a'],0,[0.10108310848045221],2018_Jul_09_1220,60.00952472,go-nogo,001,17,
logos/4.jpg,properties4.xlsx,frogs/ab20.jpg,0,0,400,l,0,2,2,3,0,76,76,19,,,['l'],0,[0.15095479548108415],2018_Jul_09_1220,60.00952472,go-nogo,001,17,
logos/4.jpg,properties4.xlsx,frogs/ab15.jpg,0,0,400,l,0,2,2,3,0,77,77,14,,,['a'],0,[0.3691614172403206],2018_Jul_09_1220,60.00952472,go-nogo,001,17,
logos/4.jpg,properties4.xlsx,frogs/ab18.jpg,0,0,400,l,0,2,2,3,0,78,78,17,,,['l'],0,[0.2174096077451395],2018_Jul_09_1220,60.00952472,go-nogo,001,17,
logos/4.jpg,properties4.xlsx,frogs/ab43.jpg,0,0,400,l,0,2,2,3,0,79,79,42,,,['a'],0,[0.1343261590700422],2018_Jul_09_1220,60.00952472,go-nogo,001,17,
logos/4.jpg,properties4.xlsx,frogs/ab75.jpg,0,0,400,l,0,2,2,3,0,80,80,73,,,['a'],0,[0.11781016275290312],2018_Jul_09_1220,60.00952472,go-nogo,001,17,
logos/4.jpg,properties4.xlsx,frogs/ab51.jpg,0,0,400,l,0,2,2,3,0,81,81,50,,,['l'],0,[0.21760473680024006],2018_Jul_09_1220,60.00952472,go-nogo,001,17,
logos/4.jpg,properties4.xlsx,frogs/ab38.jpg,0,0,400,l,0,2,2,3,0,82,82,37,,,['l'],0,[0.3017082041242247],2018_Jul_09_1220,60.00952472,go-nogo,001,17,
logos/4.jpg,properties4.xlsx,frogs/ab6.jpg,0,0,400,l,0,2,2,3,0,83,83,5,,,['a'],0,[0.06765175550663116],2018_Jul_09_1220,60.00952472,go-nogo,001,17,
logos/4.jpg,properties4.xlsx,frogs/ab34.jpg,0,0,400,l,0,2,2,3,0,84,84,33,,,['l'],0,[0.0011150231739520677],2018_Jul_09_1220,60.00952472,go-nogo,001,17,
logos/4.jpg,properties4.xlsx,frogs/ab44.jpg,0,0,400,l,0,2,2,3,0,85,85,43,,,['a'],0,[0.18445498406890692],2018_Jul_09_1220,60.00952472,go-nogo,001,17,
logos/4.jpg,properties4.xlsx,logos/4.jpg,0,0,400,a,0,2,2,3,0,86,86,83,,,['a'],0,[0.11764575372399122],2018_Jul_09_1220,60.00952472,go-nogo,001,17,
logos/4.jpg,properties4.xlsx,frogs/ab60.jpg,0,0,400,l,0,2,2,3,0,87,87,58,,,['l'],0,[0.9004745106267364],2018_Jul_09_1220,60.00952472,go-nogo,001,17,
logos/4.jpg,properties4.xlsx,frogs/ab52.jpg,0,0,400,l,0,2,2,3,0,88,88,51,,,['a'],0,[0.1343210390650711],2018_Jul_09_1220,60.00952472,go-nogo,001,17,
logos/4.jpg,properties4.xlsx,frogs/ab45.jpg,0,0,400,l,0,2,2,3,0,89,89,44,,,['a'],0,[0.051052132454060484],2018_Jul_09_1220,60.00952472,go-nogo,001,17,
logos/4.jpg,properties4.xlsx,,,,,,0,2,2,3,,,,,,,,,,2018_Jul_09_1220,60.00952472,go-nogo,001,17,
logos/3.jpg,properties3.xlsx,frogs/ab26.jpg,0,0,400,l,0,3,3,2,0,0,0,25,space,1.69240151529,['a'],0,[0.5674028664061552],2018_Jul_09_1220,60.00952472,go-nogo,001,17,
logos/3.jpg,properties3.xlsx,frogs/ab46.jpg,0,0,400,l,0,3,3,2,0,1,1,45,,,['a'],0,[0.30095613237153884],2018_Jul_09_1220,60.00952472,go-nogo,001,17,
logos/3.jpg,properties3.xlsx,frogs/ab9.jpg,0,0,400,l,0,3,3,2,0,2,2,8,,,['l'],0,[0.21682308280014695],2018_Jul_09_1220,60.00952472,go-nogo,001,17,
logos/3.jpg,properties3.xlsx,frogs/ab32.jpg,0,0,400,l,0,3,3,2,0,3,3,31,,,['l'],0,[1.3502401566493063],2018_Jul_09_1220,60.00952472,go-nogo,001,17,
logos/3.jpg,properties3.xlsx,frogs/ab22.jpg,0,0,400,l,0,3,3,2,0,4,4,21,,,['l'],0,[0.40111024450288824],2018_Jul_09_1220,60.00952472,go-nogo,001,17,
logos/3.jpg,properties3.xlsx,frogs/ab80.jpg,0,0,400,l,0,3,3,2,0,5,5,78,,,['a'],0,[0.1511248934048126],2018_Jul_09_1220,60.00952472,go-nogo,001,17,
logos/3.jpg,properties3.xlsx,frogs/ab54.jpg,0,0,400,l,0,3,3,2,0,6,6,53,,,['l'],0,[0.3520873404477243],2018_Jul_09_1220,60.00952472,go-nogo,001,17,
logos/3.jpg,properties3.xlsx,frogs/ab36.jpg,0,0,400,l,0,3,3,2,0,7,7,35,,,['l'],0,[0.484116324223578],2018_Jul_09_1220,60.00952472,go-nogo,001,17,
logos/3.jpg,properties3.xlsx,logos/3.jpg,0,0,400,a,0,3,3,2,0,8,8,80,,,['a'],0,[0.18461654865041055],2018_Jul_09_1220,60.00952472,go-nogo,001,17,
logos/3.jpg,properties3.xlsx,frogs/ab81.jpg,0,0,400,l,0,3,3,2,0,9,9,79,,,['a'],0,[0.5175510905328338],2018_Jul_09_1220,60.00952472,go-nogo,001,17,
logos/3.jpg,properties3.xlsx,frogs/ab67.jpg,0,0,400,l,0,3,3,2,0,10,10,65,,,['a'],0,[0.23423280432325555],2018_Jul_09_1220,60.00952472,go-nogo,001,17,
logos/3.jpg,properties3.xlsx,frogs/ab23.jpg,0,0,400,l,0,3,3,2,0,11,11,22,,,['l'],0,[0.33421169852772437],2018_Jul_09_1220,60.00952472,go-nogo,001,17,
logos/3.jpg,properties3.xlsx,frogs/ab14.jpg,0,0,400,l,0,3,3,2,0,12,12,13,,,['l'],0,[0.3509603705970221],2018_Jul_09_1220,60.00952472,go-nogo,001,17,
logos/3.jpg,properties3.xlsx,frogs/ab8.jpg,0,0,400,l,0,3,3,2,0,13,13,7,,,['l'],0,[0.30096409682300873],2018_Jul_09_1220,60.00952472,go-nogo,001,17,
logos/3.jpg,properties3.xlsx,frogs/ab13.jpg,0,0,400,l,0,3,3,2,0,14,14,12,,,['l'],0,[0.2671072145976723],2018_Jul_09_1220,60.00952472,go-nogo,001,17,
logos/3.jpg,properties3.xlsx,frogs/ab11.jpg,0,0,400,l,0,3,3,2,0,15,15,10,,,['l'],0,[0.2508625785139884],2018_Jul_09_1220,60.00952472,go-nogo,001,17,
logos/3.jpg,properties3.xlsx,logos/3.jpg,0,0,400,a,0,3,3,2,0,16,16,88,,,['a'],0,[0.2510360897731516],2018_Jul_09_1220,60.00952472,go-nogo,001,17,
logos/3.jpg,properties3.xlsx,frogs/ab20.jpg,0,0,400,l,0,3,3,2,0,17,17,19,,,['l'],0,[0.33408142286043585],2018_Jul_09_1220,60.00952472,go-nogo,001,17,
logos/3.jpg,properties3.xlsx,logos/3.jpg,0,0,400,a,0,3,3,2,0,18,18,86,,,['a'],0,[0.25082048069998564],2018_Jul_09_1220,60.00952472,go-nogo,001,17,
logos/3.jpg,properties3.xlsx,frogs/ab70.jpg,0,0,400,l,0,3,3,2,0,19,19,68,,,['l'],0,[0.2842319225446772],2018_Jul_09_1220,60.00952472,go-nogo,001,17,
logos/3.jpg,properties3.xlsx,frogs/ab17.jpg,0,0,400,l,0,3,3,2,0,20,20,16,,,['a'],0,[0.23435795998557296],2018_Jul_09_1220,60.00952472,go-nogo,001,17,
logos/3.jpg,properties3.xlsx,frogs/ab1.jpg,0,0,400,l,0,3,3,2,0,21,21,0,,,['l'],0,[0.31754608430583176],2018_Jul_09_1220,60.00952472,go-nogo,001,17,
logos/3.jpg,properties3.xlsx,frogs/ab76.jpg,0,0,400,l,0,3,3,2,0,22,22,74,,,['a'],0,[0.2510099208611791],2018_Jul_09_1220,60.00952472,go-nogo,001,17,
logos/3.jpg,properties3.xlsx,frogs/ab4.jpg,0,0,400,l,0,3,3,2,0,23,23,3,,,['l'],0,[0.018238024451420642],2018_Jul_09_1220,60.00952472,go-nogo,001,17,
logos/3.jpg,properties3.xlsx,frogs/ab38.jpg,0,0,400,l,0,3,3,2,0,24,24,37,,,['l'],0,[0.15098437772849138],2018_Jul_09_1220,60.00952472,go-nogo,001,17,
logos/3.jpg,properties3.xlsx,logos/3.jpg,0,0,400,a,0,3,3,2,0,25,25,89,,,['a'],0,[0.18441004180749587],2018_Jul_09_1220,60.00952472,go-nogo,001,17,
logos/3.jpg,properties3.xlsx,frogs/ab42.jpg,0,0,400,l,0,3,3,2,0,26,26,41,,,['l'],0,[0.317595008792523],2018_Jul_09_1220,60.00952472,go-nogo,001,17,
logos/3.jpg,properties3.xlsx,frogs/ab79.jpg,0,0,400,l,0,3,3,2,0,27,27,77,,,['l'],0,[0.23426067990203592],2018_Jul_09_1220,60.00952472,go-nogo,001,17,
logos/3.jpg,properties3.xlsx,frogs/ab75.jpg,0,0,400,l,0,3,3,2,0,28,28,73,,,['a'],0,[0.26762661059729],2018_Jul_09_1220,60.00952472,go-nogo,001,17,
logos/3.jpg,properties3.xlsx,frogs/ab31.jpg,0,0,400,l,0,3,3,2,0,29,29,30,,,['l'],0,[0.3008850211990648],2018_Jul_09_1220,60.00952472,go-nogo,001,17,
logos/3.jpg,properties3.xlsx,frogs/ab51.jpg,0,0,400,l,0,3,3,2,0,30,30,50,,,['l'],0,[0.30089184787266277],2018_Jul_09_1220,60.00952472,go-nogo,001,17,
logos/3.jpg,properties3.xlsx,frogs/ab43.jpg,0,0,400,l,0,3,3,2,0,31,31,42,,,['l'],0,[0.30091175899997324],2018_Jul_09_1220,60.00952472,go-nogo,001,17,
logos/3.jpg,properties3.xlsx,frogs/ab66.jpg,0,0,400,l,0,3,3,2,0,32,32,64,,,['l'],0,[0.28553012809607026],2018_Jul_09_1220,60.00952472,go-nogo,001,17,
logos/3.jpg,properties3.xlsx,frogs/ab2.jpg,0,0,400,l,0,3,3,2,0,33,33,1,,,['l'],0,[1.0003748980980163],2018_Jul_09_1220,60.00952472,go-nogo,001,17,
logos/3.jpg,properties3.xlsx,logos/3.jpg,0,0,400,a,0,3,3,2,0,34,34,87,,,['a'],0,[0.2506617605649808],2018_Jul_09_1220,60.00952472,go-nogo,001,17,
logos/3.jpg,properties3.xlsx,frogs/ab41.jpg,0,0,400,l,0,3,3,2,0,35,35,40,,,['l'],0,[0.3341474140279388],2018_Jul_09_1220,60.00952472,go-nogo,001,17,
logos/3.jpg,properties3.xlsx,frogs/ab68.jpg,0,0,400,l,0,3,3,2,0,36,36,66,,,['l'],0,[0.6839961747873531],2018_Jul_09_1220,60.00952472,go-nogo,001,17,
logos/3.jpg,properties3.xlsx,frogs/ab40.jpg,0,0,400,l,0,3,3,2,0,37,37,39,,,['a'],0,[0.3342532274518817],2018_Jul_09_1220,60.00952472,go-nogo,001,17,
logos/3.jpg,properties3.xlsx,frogs/ab69.jpg,0,0,400,l,0,3,3,2,0,38,38,67,,,['a'],0,[0.33440625869297946],2018_Jul_09_1220,60.00952472,go-nogo,001,17,
logos/3.jpg,properties3.xlsx,frogs/ab74.jpg,0,0,400,l,0,3,3,2,0,39,39,72,,,['a'],0,[0.3501070365364285],2018_Jul_09_1220,60.00952472,go-nogo,001,17,
logos/3.jpg,properties3.xlsx,frogs/ab52.jpg,0,0,400,l,0,3,3,2,0,40,40,51,,,['a'],0,[0.3008963989868789],2018_Jul_09_1220,60.00952472,go-nogo,001,17,
logos/3.jpg,properties3.xlsx,frogs/ab62.jpg,0,0,400,l,0,3,3,2,0,41,41,60,,,['l'],0,[0.41878108624860033],2018_Jul_09_1220,60.00952472,go-nogo,001,17,
logos/3.jpg,properties3.xlsx,frogs/ab77.jpg,0,0,400,l,0,3,3,2,0,42,42,75,,,['l'],0,[0.3009436168058528],2018_Jul_09_1220,60.00952472,go-nogo,001,17,
logos/3.jpg,properties3.xlsx,frogs/ab73.jpg,0,0,400,l,0,3,3,2,0,43,43,71,,,['l'],0,[0.25084096071805106],2018_Jul_09_1220,60.00952472,go-nogo,001,17,
logos/3.jpg,properties3.xlsx,frogs/ab35.jpg,0,0,400,l,0,3,3,2,0,44,44,34,,,['l'],0,[0.5340437623844991],2018_Jul_09_1220,60.00952472,go-nogo,001,17,
logos/3.jpg,properties3.xlsx,logos/3.jpg,0,0,400,a,0,3,3,2,0,45,45,84,,,['a'],0,[0.350916566115302],2018_Jul_09_1220,60.00952472,go-nogo,001,17,
logos/3.jpg,properties3.xlsx,frogs/ab63.jpg,0,0,400,l,0,3,3,2,0,46,46,61,,,['l'],0,[0.35088357053246],2018_Jul_09_1220,60.00952472,go-nogo,001,17,
logos/3.jpg,properties3.xlsx,logos/3.jpg,0,0,400,a,0,3,3,2,0,47,47,83,,,['a'],0,[0.3341946318460032],2018_Jul_09_1220,60.00952472,go-nogo,001,17,
logos/3.jpg,properties3.xlsx,frogs/ab24.jpg,0,0,400,l,0,3,3,2,0,48,48,23,,,['l'],0,[0.41750051626786444],2018_Jul_09_1220,60.00952472,go-nogo,001,17,
logos/3.jpg,properties3.xlsx,frogs/ab3.jpg,0,0,400,l,0,3,3,2,0,49,49,2,,,['l'],0,[0.36757478477466066],2018_Jul_09_1220,60.00952472,go-nogo,001,17,
logos/3.jpg,properties3.xlsx,logos/3.jpg,0,0,400,a,0,3,3,2,0,50,50,81,,,['a'],0,[0.303472898963264],2018_Jul_09_1220,60.00952472,go-nogo,001,17,
logos/3.jpg,properties3.xlsx,frogs/ab57.jpg,0,0,400,l,0,3,3,2,0,51,51,56,,,['a'],0,[0.3688860747834042],2018_Jul_09_1220,60.00952472,go-nogo,001,17,
logos/3.jpg,properties3.xlsx,frogs/ab27.jpg,0,0,400,l,0,3,3,2,0,52,52,26,,,['l'],0,[0.5165714630302318],2018_Jul_09_1220,60.00952472,go-nogo,001,17,
logos/3.jpg,properties3.xlsx,frogs/ab58.jpg,0,0,400,l,0,3,3,2,0,53,53,57,,,['l'],0,[0.33396764498593257],2018_Jul_09_1220,60.00952472,go-nogo,001,17,
logos/3.jpg,properties3.xlsx,frogs/ab18.jpg,0,0,400,l,0,3,3,2,0,54,54,17,,,['l'],0,[0.3884854515081315],2018_Jul_09_1220,60.00952472,go-nogo,001,17,
logos/3.jpg,properties3.xlsx,frogs/ab29.jpg,0,0,400,l,0,3,3,2,0,55,55,28,,,['l'],0,[0.36702011763463815],2018_Jul_09_1220,60.00952472,go-nogo,001,17,
logos/3.jpg,properties3.xlsx,frogs/ab34.jpg,0,0,400,l,0,3,3,2,0,56,56,33,,,['l'],0,[0.43353864550772414],2018_Jul_09_1220,60.00952472,go-nogo,001,17,
logos/3.jpg,properties3.xlsx,frogs/ab44.jpg,0,0,400,l,0,3,3,2,0,57,57,43,,,['a'],0,[0.4674865500328451],2018_Jul_09_1220,60.00952472,go-nogo,001,17,
logos/3.jpg,properties3.xlsx,frogs/ab21.jpg,0,0,400,l,0,3,3,2,0,58,58,20,,,['l'],0,[0.43436069065410265],2018_Jul_09_1220,60.00952472,go-nogo,001,17,
logos/3.jpg,properties3.xlsx,frogs/ab19.jpg,0,0,400,l,0,3,3,2,0,59,59,18,,,['l'],0,[0.23403824415709096],2018_Jul_09_1220,60.00952472,go-nogo,001,17,
logos/3.jpg,properties3.xlsx,frogs/ab12.jpg,0,0,400,l,0,3,3,2,0,60,60,11,,,['l'],0,[0.16762040970297676],2018_Jul_09_1220,60.00952472,go-nogo,001,17,
logos/3.jpg,properties3.xlsx,frogs/ab53.jpg,0,0,400,l,0,3,3,2,0,61,61,52,,,['a'],0,[0.06767280441454204],2018_Jul_09_1220,60.00952472,go-nogo,001,17,
logos/3.jpg,properties3.xlsx,frogs/ab50.jpg,0,0,400,l,0,3,3,2,0,62,62,49,,,['l'],0,[0.10102792621091794],2018_Jul_09_1220,60.00952472,go-nogo,001,17,
logos/3.jpg,properties3.xlsx,frogs/ab72.jpg,0,0,400,l,0,3,3,2,0,63,63,70,,,['a'],0,[0.0344644560764209],2018_Jul_09_1220,60.00952472,go-nogo,001,17,
logos/3.jpg,properties3.xlsx,frogs/ab45.jpg,0,0,400,l,0,3,3,2,0,64,64,44,,,['a'],0,[0.11767362930368108],2018_Jul_09_1220,60.00952472,go-nogo,001,17,
logos/3.jpg,properties3.xlsx,frogs/ab16.jpg,0,0,400,l,0,3,3,2,0,65,65,15,,,['a'],0,[0.10091642389306799],2018_Jul_09_1220,60.00952472,go-nogo,001,17,
logos/3.jpg,properties3.xlsx,frogs/ab56.jpg,0,0,400,l,0,3,3,2,0,66,66,55,,,['a'],0,[0.6998966328001188],2018_Jul_09_1220,60.00952472,go-nogo,001,17,
logos/3.jpg,properties3.xlsx,frogs/ab55.jpg,0,0,400,l,0,3,3,2,0,67,67,54,,,['l'],0,[0.38425234567239386],2018_Jul_09_1220,60.00952472,go-nogo,001,17,
logos/3.jpg,properties3.xlsx,frogs/ab30.jpg,0,0,400,l,0,3,3,2,0,68,68,29,,,['a'],0,[0.2009175047833196],2018_Jul_09_1220,60.00952472,go-nogo,001,17,
logos/3.jpg,properties3.xlsx,frogs/ab15.jpg,0,0,400,l,0,3,3,2,0,69,69,14,,,['a'],0,[0.41727864941185544],2018_Jul_09_1220,60.00952472,go-nogo,001,17,
logos/3.jpg,properties3.xlsx,frogs/ab49.jpg,0,0,400,l,0,3,3,2,0,70,70,48,,,['a'],0,[0.03449176276626531],2018_Jul_09_1220,60.00952472,go-nogo,001,17,
logos/3.jpg,properties3.xlsx,frogs/ab7.jpg,0,0,400,l,0,3,3,2,0,71,71,6,,,['l'],0,[0.05101856798046356],2018_Jul_09_1220,60.00952472,go-nogo,001,17,
logos/3.jpg,properties3.xlsx,frogs/ab25.jpg,0,0,400,l,0,3,3,2,0,72,72,24,,,['l'],0,[0.03441780714729248],2018_Jul_09_1220,60.00952472,go-nogo,001,17,
logos/3.jpg,properties3.xlsx,logos/3.jpg,0,0,400,a,0,3,3,2,0,73,73,82,,,['a'],0,[0.0003811558808592963],2018_Jul_09_1220,60.00952472,go-nogo,001,17,
logos/3.jpg,properties3.xlsx,frogs/ab6.jpg,0,0,400,l,0,3,3,2,0,74,74,5,,,['l'],0,[0.017109347933910612],2018_Jul_09_1220,60.00952472,go-nogo,001,17,
logos/3.jpg,properties3.xlsx,logos/3.jpg,0,0,400,a,0,3,3,2,0,75,75,85,,,['a'],0,[0.0011110409486718709],2018_Jul_09_1220,60.00952472,go-nogo,001,17,
logos/3.jpg,properties3.xlsx,frogs/ab37.jpg,0,0,400,l,0,3,3,2,0,76,76,36,,,['l'],0,[0.017614521697396412],2018_Jul_09_1220,60.00952472,go-nogo,001,17,
logos/3.jpg,properties3.xlsx,frogs/ab39.jpg,0,0,400,l,0,3,3,2,0,77,77,38,,,['l'],0,[0.01793253085725155],2018_Jul_09_1220,60.00952472,go-nogo,001,17,
logos/3.jpg,properties3.xlsx,frogs/ab5.jpg,0,0,400,l,0,3,3,2,0,78,78,4,,,['a'],0,[1.000494933756272],2018_Jul_09_1220,60.00952472,go-nogo,001,17,
logos/3.jpg,properties3.xlsx,frogs/ab78.jpg,0,0,400,l,0,3,3,2,0,79,79,76,,,['a'],0,[0.08426673857411515],2018_Jul_09_1220,60.00952472,go-nogo,001,17,
logos/3.jpg,properties3.xlsx,frogs/ab60.jpg,0,0,400,l,0,3,3,2,0,80,80,58,,,['l'],0,[0.38432687018121214],2018_Jul_09_1220,60.00952472,go-nogo,001,17,
logos/3.jpg,properties3.xlsx,frogs/ab48.jpg,0,0,400,l,0,3,3,2,0,81,81,47,,,['l'],0,[0.3007683988780627],2018_Jul_09_1220,60.00952472,go-nogo,001,17,
logos/3.jpg,properties3.xlsx,frogs/ab65.jpg,0,0,400,l,0,3,3,2,0,82,82,63,,,['l'],0,[0.0345179316782378],2018_Jul_09_1220,60.00952472,go-nogo,001,17,
logos/3.jpg,properties3.xlsx,frogs/ab28.jpg,0,0,400,l,0,3,3,2,0,83,83,27,,,['a'],0,[0.01792684196425398],2018_Jul_09_1220,60.00952472,go-nogo,001,17,
logos/3.jpg,properties3.xlsx,frogs/ab61.jpg,0,0,400,l,0,3,3,2,0,84,84,59,,,['l'],0,[0.034391069347293524],2018_Jul_09_1220,60.00952472,go-nogo,001,17,
logos/3.jpg,properties3.xlsx,frogs/ab71.jpg,0,0,400,l,0,3,3,2,0,85,85,69,,,['l'],0,[0.5677089288892603],2018_Jul_09_1220,60.00952472,go-nogo,001,17,
logos/3.jpg,properties3.xlsx,frogs/ab33.jpg,0,0,400,l,0,3,3,2,0,86,86,32,,,['l'],0,[0.01776584627077682],2018_Jul_09_1220,60.00952472,go-nogo,001,17,
logos/3.jpg,properties3.xlsx,frogs/ab10.jpg,0,0,400,l,0,3,3,2,0,87,87,9,,,['l'],0,[0.16765340528672823],2018_Jul_09_1220,60.00952472,go-nogo,001,17,
logos/3.jpg,properties3.xlsx,frogs/ab64.jpg,0,0,400,l,0,3,3,2,0,88,88,62,,,['a'],0,[0.01783013077056239],2018_Jul_09_1220,60.00952472,go-nogo,001,17,
logos/3.jpg,properties3.xlsx,frogs/ab47.jpg,0,0,400,l,0,3,3,2,0,89,89,46,,,['a'],0,[0.8172960574256649],2018_Jul_09_1220,60.00952472,go-nogo,001,17,
logos/3.jpg,properties3.xlsx,,,,,,0,3,3,2,,,,,,,,,,2018_Jul_09_1220,60.00952472,go-nogo,001,17,
