pix,source,image1,x,y,size,answer,trials_2.thisRepN,trials_2.thisTrialN,trials_2.thisN,trials_2.thisIndex,trials.thisRepN,trials.thisTrialN,trials.thisN,trials.thisIndex,key_resp_3.keys,key_resp_3.rt,key_resp_2.keys,key_resp_2.corr,key_resp_2.rt,date,frameRate,expName,session,participant,
logos/4.jpg,properties4.xlsx,frogs/ab57.jpg,0,0,400,l,0,0,0,3,0,0,0,56,space,16.2313052093,['l'],0,[0.15114875463041244],2018_Jul_09_0517,59.9807550238,go-nogo,001,18,
logos/4.jpg,properties4.xlsx,frogs/ab75.jpg,0,0,400,l,0,0,0,3,0,1,1,73,,,['l'],0,[0.9005955183238257],2018_Jul_09_0517,59.9807550238,go-nogo,001,18,
logos/4.jpg,properties4.xlsx,frogs/ab40.jpg,0,0,400,l,0,0,0,3,0,2,2,39,,,['l'],0,[0.18438309522753116],2018_Jul_09_0517,59.9807550238,go-nogo,001,18,
logos/4.jpg,properties4.xlsx,frogs/ab62.jpg,0,0,400,l,0,0,0,3,0,3,3,60,,,['l'],0,[0.3519984113590908],2018_Jul_09_0517,59.9807550238,go-nogo,001,18,
logos/4.jpg,properties4.xlsx,frogs/ab22.jpg,0,0,400,l,0,0,0,3,0,4,4,21,,,['l'],0,[0.2681055198700051],2018_Jul_09_0517,59.9807550238,go-nogo,001,18,
logos/4.jpg,properties4.xlsx,frogs/ab27.jpg,0,0,400,l,0,0,0,3,0,5,5,26,,,['l'],0,[0.25140378552896436],2018_Jul_09_0517,59.9807550238,go-nogo,001,18,
logos/4.jpg,properties4.xlsx,frogs/ab51.jpg,0,0,400,l,0,0,0,3,0,6,6,50,,,['l'],0,[0.30111138134088833],2018_Jul_09_0517,59.9807550238,go-nogo,001,18,
logos/4.jpg,properties4.xlsx,frogs/ab25.jpg,0,0,400,l,0,0,0,3,0,7,7,24,,,['l'],0,[0.28370234346948564],2018_Jul_09_0517,59.9807550238,go-nogo,001,18,
logos/4.jpg,properties4.xlsx,frogs/ab50.jpg,0,0,400,l,0,0,0,3,0,8,8,49,,,['l'],0,[0.2344200222651125],2018_Jul_09_0517,59.9807550238,go-nogo,001,18,
logos/4.jpg,properties4.xlsx,frogs/ab43.jpg,0,0,400,l,0,0,0,3,0,9,9,42,,,['l'],0,[0.2675566344842082],2018_Jul_09_0517,59.9807550238,go-nogo,001,18,
logos/4.jpg,properties4.xlsx,frogs/ab7.jpg,0,0,400,l,0,0,0,3,0,10,10,6,,,['l'],0,[0.3175658941399888],2018_Jul_09_0517,59.9807550238,go-nogo,001,18,
logos/4.jpg,properties4.xlsx,frogs/ab65.jpg,0,0,400,l,0,0,0,3,0,11,11,63,,,['l'],0,[0.234463308355771],2018_Jul_09_0517,59.9807550238,go-nogo,001,18,
logos/4.jpg,properties4.xlsx,frogs/ab47.jpg,0,0,400,l,0,0,0,3,0,12,12,46,,,['l'],0,[0.8964762004616205],2018_Jul_09_0517,59.9807550238,go-nogo,001,18,
logos/4.jpg,properties4.xlsx,frogs/ab1.jpg,0,0,400,l,0,0,0,3,0,13,13,0,,,['l'],0,[0.41757905846316135],2018_Jul_09_0517,59.9807550238,go-nogo,001,18,
logos/4.jpg,properties4.xlsx,frogs/ab30.jpg,0,0,400,l,0,0,0,3,0,14,14,29,,,['l'],0,[0.4341268371499609],2018_Jul_09_0517,59.9807550238,go-nogo,001,18,
logos/4.jpg,properties4.xlsx,frogs/ab42.jpg,0,0,400,l,0,0,0,3,0,15,15,41,,,['l'],0,[0.36769340957835084],2018_Jul_09_0517,59.9807550238,go-nogo,001,18,
logos/4.jpg,properties4.xlsx,frogs/ab73.jpg,0,0,400,l,0,0,0,3,0,16,16,71,,,['l'],0,[0.3009101233619731],2018_Jul_09_0517,59.9807550238,go-nogo,001,18,
logos/4.jpg,properties4.xlsx,logos/4.jpg,0,0,400,a,0,0,0,3,0,17,17,82,,,['a'],0,[0.3009377907583257],2018_Jul_09_0517,59.9807550238,go-nogo,001,18,
logos/4.jpg,properties4.xlsx,frogs/ab3.jpg,0,0,400,l,0,0,0,3,0,18,18,2,,,['l'],0,[0.38417246603785316],2018_Jul_09_0517,59.9807550238,go-nogo,001,18,
logos/4.jpg,properties4.xlsx,frogs/ab2.jpg,0,0,400,l,0,0,0,3,0,19,19,1,,,['l'],0,[0.09957182477955939],2018_Jul_09_0517,59.9807550238,go-nogo,001,18,
logos/4.jpg,properties4.xlsx,logos/4.jpg,0,0,400,a,0,0,0,3,0,20,20,86,,,['a'],0,[0.45093299358995864],2018_Jul_09_0517,59.9807550238,go-nogo,001,18,
logos/4.jpg,properties4.xlsx,frogs/ab34.jpg,0,0,400,l,0,0,0,3,0,21,21,33,,,['l'],0,[0.6675945655879332],2018_Jul_09_0517,59.9807550238,go-nogo,001,18,
logos/4.jpg,properties4.xlsx,frogs/ab44.jpg,0,0,400,l,0,0,0,3,0,22,22,43,,,['l'],0,[0.5013827002912876],2018_Jul_09_0517,59.9807550238,go-nogo,001,18,
logos/4.jpg,properties4.xlsx,frogs/ab31.jpg,0,0,400,l,0,0,0,3,0,23,23,30,,,['l'],0,[0.4679984202812193],2018_Jul_09_0517,59.9807550238,go-nogo,001,18,
logos/4.jpg,properties4.xlsx,frogs/ab60.jpg,0,0,400,l,0,0,0,3,0,24,24,58,,,['l'],0,[0.46779180732846726],2018_Jul_09_0517,59.9807550238,go-nogo,001,18,
logos/4.jpg,properties4.xlsx,frogs/ab6.jpg,0,0,400,l,0,0,0,3,0,25,25,5,,,['l'],0,[0.35012015234678984],2018_Jul_09_0517,59.9807550238,go-nogo,001,18,
logos/4.jpg,properties4.xlsx,logos/4.jpg,0,0,400,a,0,0,0,3,0,26,26,87,,,['a'],0,[0.3009426994904061],2018_Jul_09_0517,59.9807550238,go-nogo,001,18,
logos/4.jpg,properties4.xlsx,frogs/ab21.jpg,0,0,400,l,0,0,0,3,0,27,27,20,,,['l'],0,[0.41740145164658315],2018_Jul_09_0517,59.9807550238,go-nogo,001,18,
logos/4.jpg,properties4.xlsx,frogs/ab79.jpg,0,0,400,l,0,0,0,3,0,28,28,77,,,['l'],0,[0.46745533612556756],2018_Jul_09_0517,59.9807550238,go-nogo,001,18,
logos/4.jpg,properties4.xlsx,frogs/ab12.jpg,0,0,400,l,0,0,0,3,0,29,29,11,,,['l'],0,[0.4842293626861647],2018_Jul_09_0517,59.9807550238,go-nogo,001,18,
logos/4.jpg,properties4.xlsx,frogs/ab61.jpg,0,0,400,l,0,0,0,3,0,30,30,59,,,['l'],0,[0.35093277046689764],2018_Jul_09_0517,59.9807550238,go-nogo,001,18,
logos/4.jpg,properties4.xlsx,frogs/ab46.jpg,0,0,400,l,0,0,0,3,0,31,31,45,,,['l'],0,[0.3179108440526761],2018_Jul_09_0517,59.9807550238,go-nogo,001,18,
logos/4.jpg,properties4.xlsx,frogs/ab13.jpg,0,0,400,l,0,0,0,3,0,32,32,12,,,['l'],0,[0.18455043833091622],2018_Jul_09_0517,59.9807550238,go-nogo,001,18,
logos/4.jpg,properties4.xlsx,frogs/ab48.jpg,0,0,400,l,0,0,0,3,0,33,33,47,,,['l'],0,[0.2512105600180803],2018_Jul_09_0517,59.9807550238,go-nogo,001,18,
logos/4.jpg,properties4.xlsx,frogs/ab33.jpg,0,0,400,l,0,0,0,3,0,34,34,32,,,['l'],0,[0.4008987440392957],2018_Jul_09_0517,59.9807550238,go-nogo,001,18,
logos/4.jpg,properties4.xlsx,frogs/ab8.jpg,0,0,400,l,0,0,0,3,0,35,35,7,,,['l'],0,[0.35109118860418675],2018_Jul_09_0517,59.9807550238,go-nogo,001,18,
logos/4.jpg,properties4.xlsx,logos/4.jpg,0,0,400,a,0,0,0,3,0,36,36,88,,,['a'],0,[0.2343129226792371],2018_Jul_09_0517,59.9807550238,go-nogo,001,18,
logos/4.jpg,properties4.xlsx,frogs/ab77.jpg,0,0,400,l,0,0,0,3,0,37,37,75,,,['l'],0,[0.2009875474468572],2018_Jul_09_0517,59.9807550238,go-nogo,001,18,
logos/4.jpg,properties4.xlsx,frogs/ab24.jpg,0,0,400,l,0,0,0,3,0,38,38,23,,,['l'],0,[0.28435118847119156],2018_Jul_09_0517,59.9807550238,go-nogo,001,18,
logos/4.jpg,properties4.xlsx,frogs/ab68.jpg,0,0,400,l,0,0,0,3,0,39,39,66,,,['l'],0,[0.2010509146930417],2018_Jul_09_0517,59.9807550238,go-nogo,001,18,
logos/4.jpg,properties4.xlsx,frogs/ab52.jpg,0,0,400,l,0,0,0,3,0,40,40,51,,,['l'],0,[0.23423527548584389],2018_Jul_09_0517,59.9807550238,go-nogo,001,18,
logos/4.jpg,properties4.xlsx,frogs/ab81.jpg,0,0,400,l,0,0,0,3,0,41,41,79,,,['l'],0,[0.26752718209900195],2018_Jul_09_0517,59.9807550238,go-nogo,001,18,
logos/4.jpg,properties4.xlsx,frogs/ab54.jpg,0,0,400,l,0,0,0,3,0,42,42,53,,,['l'],0,[0.2671429623296717],2018_Jul_09_0517,59.9807550238,go-nogo,001,18,
logos/4.jpg,properties4.xlsx,frogs/ab9.jpg,0,0,400,l,0,0,0,3,0,43,43,8,,,['l'],0,[0.4839567049930338],2018_Jul_09_0517,59.9807550238,go-nogo,001,18,
logos/4.jpg,properties4.xlsx,logos/4.jpg,0,0,400,a,0,0,0,3,0,44,44,80,,,['a'],0,[0.26765525535302004],2018_Jul_09_0517,59.9807550238,go-nogo,001,18,
logos/4.jpg,properties4.xlsx,frogs/ab28.jpg,0,0,400,l,0,0,0,3,0,45,45,27,,,['l'],0,[0.30087754724081606],2018_Jul_09_0517,59.9807550238,go-nogo,001,18,
logos/4.jpg,properties4.xlsx,frogs/ab55.jpg,0,0,400,l,0,0,0,3,0,46,46,54,,,['l'],0,[0.25096378472517245],2018_Jul_09_0517,59.9807550238,go-nogo,001,18,
logos/4.jpg,properties4.xlsx,frogs/ab64.jpg,0,0,400,l,0,0,0,3,0,47,47,62,,,['l'],0,[0.2676632878210512],2018_Jul_09_0517,59.9807550238,go-nogo,001,18,
logos/4.jpg,properties4.xlsx,frogs/ab41.jpg,0,0,400,l,0,0,0,3,0,48,48,40,,,['l'],0,[0.3343109145644121],2018_Jul_09_0517,59.9807550238,go-nogo,001,18,
logos/4.jpg,properties4.xlsx,frogs/ab32.jpg,0,0,400,l,0,0,0,3,0,49,49,31,,,['l'],0,[0.36766975842328975],2018_Jul_09_0517,59.9807550238,go-nogo,001,18,
logos/4.jpg,properties4.xlsx,frogs/ab53.jpg,0,0,400,l,0,0,0,3,0,50,50,52,,,['l'],0,[0.3009614419133868],2018_Jul_09_0517,59.9807550238,go-nogo,001,18,
logos/4.jpg,properties4.xlsx,frogs/ab76.jpg,0,0,400,l,0,0,0,3,0,51,51,74,,,['l'],0,[0.35100506268645404],2018_Jul_09_0517,59.9807550238,go-nogo,001,18,
logos/4.jpg,properties4.xlsx,logos/4.jpg,0,0,400,a,0,0,0,3,0,52,52,81,,,['a'],0,[0.3508395045719226],2018_Jul_09_0517,59.9807550238,go-nogo,001,18,
logos/4.jpg,properties4.xlsx,logos/4.jpg,0,0,400,a,0,0,0,3,0,53,53,89,,,['a'],0,[0.3007744638816803],2018_Jul_09_0517,59.9807550238,go-nogo,001,18,
logos/4.jpg,properties4.xlsx,frogs/ab36.jpg,0,0,400,l,0,0,0,3,0,54,54,35,,,['l'],0,[0.33433233448158717],2018_Jul_09_0517,59.9807550238,go-nogo,001,18,
logos/4.jpg,properties4.xlsx,frogs/ab15.jpg,0,0,400,l,0,0,0,3,0,55,55,14,,,['l'],0,[0.30110870385396993],2018_Jul_09_0517,59.9807550238,go-nogo,001,18,
logos/4.jpg,properties4.xlsx,logos/4.jpg,0,0,400,a,0,0,0,3,0,56,56,84,,,['a'],0,[0.23459272035688628],2018_Jul_09_0517,59.9807550238,go-nogo,001,18,
logos/4.jpg,properties4.xlsx,frogs/ab4.jpg,0,0,400,l,0,0,0,3,0,57,57,3,,,['l'],0,[0.25114496151945787],2018_Jul_09_0517,59.9807550238,go-nogo,001,18,
logos/4.jpg,properties4.xlsx,frogs/ab16.jpg,0,0,400,l,0,0,0,3,0,58,58,15,,,['l'],0,[0.26772531633469043],2018_Jul_09_0517,59.9807550238,go-nogo,001,18,
logos/4.jpg,properties4.xlsx,frogs/ab63.jpg,0,0,400,l,0,0,0,3,0,59,59,61,,,['l'],0,[0.3176837036808138],2018_Jul_09_0517,59.9807550238,go-nogo,001,18,
logos/4.jpg,properties4.xlsx,frogs/ab19.jpg,0,0,400,l,0,0,0,3,0,60,60,18,,,['l'],0,[0.2676980951873702],2018_Jul_09_0517,59.9807550238,go-nogo,001,18,
logos/4.jpg,properties4.xlsx,logos/4.jpg,0,0,400,a,0,0,0,3,0,61,61,85,,,['a'],0,[0.2844399918758427],2018_Jul_09_0517,59.9807550238,go-nogo,001,18,
logos/4.jpg,properties4.xlsx,frogs/ab74.jpg,0,0,400,l,0,0,0,3,0,62,62,72,,,['l'],0,[0.2676780140172923],2018_Jul_09_0517,59.9807550238,go-nogo,001,18,
logos/4.jpg,properties4.xlsx,frogs/ab11.jpg,0,0,400,l,0,0,0,3,0,63,63,10,,,['l'],0,[0.2008858028348186],2018_Jul_09_0517,59.9807550238,go-nogo,001,18,
logos/4.jpg,properties4.xlsx,frogs/ab78.jpg,0,0,400,l,0,0,0,3,0,64,64,76,,,['l'],0,[0.28423114768520463],2018_Jul_09_0517,59.9807550238,go-nogo,001,18,
logos/4.jpg,properties4.xlsx,frogs/ab80.jpg,0,0,400,l,0,0,0,3,0,65,65,78,,,['l'],0,[0.3008904884409276],2018_Jul_09_0517,59.9807550238,go-nogo,001,18,
logos/4.jpg,properties4.xlsx,frogs/ab29.jpg,0,0,400,l,0,0,0,3,0,66,66,28,,,['l'],0,[0.2512056512859999],2018_Jul_09_0517,59.9807550238,go-nogo,001,18,
logos/4.jpg,properties4.xlsx,frogs/ab10.jpg,0,0,400,l,0,0,0,3,0,67,67,9,,,['l'],0,[0.25089773997751763],2018_Jul_09_0517,59.9807550238,go-nogo,001,18,
logos/4.jpg,properties4.xlsx,frogs/ab20.jpg,0,0,400,l,0,0,0,3,0,68,68,19,,,['l'],0,[0.18429875429865206],2018_Jul_09_0517,59.9807550238,go-nogo,001,18,
logos/4.jpg,properties4.xlsx,frogs/ab72.jpg,0,0,400,l,0,0,0,3,0,69,69,70,,,['l'],0,[0.1676139773844625],2018_Jul_09_0517,59.9807550238,go-nogo,001,18,
logos/4.jpg,properties4.xlsx,frogs/ab49.jpg,0,0,400,l,0,0,0,3,0,70,70,48,,,['l'],0,[0.11765068131353473],2018_Jul_09_0517,59.9807550238,go-nogo,001,18,
logos/4.jpg,properties4.xlsx,frogs/ab37.jpg,0,0,400,l,0,0,0,3,0,71,71,36,,,['l'],0,[0.23429105651302962],2018_Jul_09_0517,59.9807550238,go-nogo,001,18,
logos/4.jpg,properties4.xlsx,frogs/ab70.jpg,0,0,400,l,0,0,0,3,0,72,72,68,,,['l'],0,[0.18437283150706207],2018_Jul_09_0517,59.9807550238,go-nogo,001,18,
logos/4.jpg,properties4.xlsx,frogs/ab39.jpg,0,0,400,l,0,0,0,3,0,73,73,38,,,['l'],0,[0.21779593512474094],2018_Jul_09_0517,59.9807550238,go-nogo,001,18,
logos/4.jpg,properties4.xlsx,frogs/ab26.jpg,0,0,400,l,0,0,0,3,0,74,74,25,,,['l'],0,[0.21759958587790607],2018_Jul_09_0517,59.9807550238,go-nogo,001,18,
logos/4.jpg,properties4.xlsx,logos/4.jpg,0,0,400,a,0,0,0,3,0,75,75,83,,,['a'],0,[0.2343093526942539],2018_Jul_09_0517,59.9807550238,go-nogo,001,18,
logos/4.jpg,properties4.xlsx,frogs/ab14.jpg,0,0,400,l,0,0,0,3,0,76,76,13,,,['l'],0,[0.21772498164500576],2018_Jul_09_0517,59.9807550238,go-nogo,001,18,
logos/4.jpg,properties4.xlsx,frogs/ab45.jpg,0,0,400,l,0,0,0,3,0,77,77,44,,,['l'],0,[0.2677431662668823],2018_Jul_09_0517,59.9807550238,go-nogo,001,18,
logos/4.jpg,properties4.xlsx,frogs/ab23.jpg,0,0,400,l,0,0,0,3,0,78,78,22,,,['l'],0,[0.2502462174888933],2018_Jul_09_0517,59.9807550238,go-nogo,001,18,
logos/4.jpg,properties4.xlsx,frogs/ab67.jpg,0,0,400,l,0,0,0,3,0,79,79,65,,,['l'],0,[0.21760003212693846],2018_Jul_09_0517,59.9807550238,go-nogo,001,18,
logos/4.jpg,properties4.xlsx,frogs/ab66.jpg,0,0,400,l,0,0,0,3,0,80,80,64,,,['l'],0,[0.26763383543584496],2018_Jul_09_0517,59.9807550238,go-nogo,001,18,
logos/4.jpg,properties4.xlsx,frogs/ab38.jpg,0,0,400,l,0,0,0,3,0,81,81,37,,,['l'],0,[0.2510142107712454],2018_Jul_09_0517,59.9807550238,go-nogo,001,18,
logos/4.jpg,properties4.xlsx,frogs/ab5.jpg,0,0,400,l,0,0,0,3,0,82,82,4,,,['l'],0,[0.3008829022219288],2018_Jul_09_0517,59.9807550238,go-nogo,001,18,
logos/4.jpg,properties4.xlsx,frogs/ab58.jpg,0,0,400,l,0,0,0,3,0,83,83,57,,,['l'],0,[0.43404606621334096],2018_Jul_09_0517,59.9807550238,go-nogo,001,18,
logos/4.jpg,properties4.xlsx,frogs/ab35.jpg,0,0,400,l,0,0,0,3,0,84,84,34,,,['l'],0,[0.26697695797338383],2018_Jul_09_0517,59.9807550238,go-nogo,001,18,
logos/4.jpg,properties4.xlsx,frogs/ab18.jpg,0,0,400,l,0,0,0,3,0,85,85,17,,,['l'],0,[0.23430310522235231],2018_Jul_09_0517,59.9807550238,go-nogo,001,18,
logos/4.jpg,properties4.xlsx,frogs/ab71.jpg,0,0,400,l,0,0,0,3,0,86,86,69,,,['l'],0,[0.2509053261965164],2018_Jul_09_0517,59.9807550238,go-nogo,001,18,
logos/4.jpg,properties4.xlsx,frogs/ab17.jpg,0,0,400,l,0,0,0,3,0,87,87,16,,,['l'],0,[0.23731438860704657],2018_Jul_09_0517,59.9807550238,go-nogo,001,18,
logos/4.jpg,properties4.xlsx,frogs/ab56.jpg,0,0,400,l,0,0,0,3,0,88,88,55,,,['l'],0,[1.5550230821972946],2018_Jul_09_0517,59.9807550238,go-nogo,001,18,
logos/4.jpg,properties4.xlsx,frogs/ab69.jpg,0,0,400,l,0,0,0,3,0,89,89,67,,,['l'],0,[0.38419299345696345],2018_Jul_09_0517,59.9807550238,go-nogo,001,18,
logos/4.jpg,properties4.xlsx,,,,,,0,0,0,3,,,,,,,,,,2018_Jul_09_0517,59.9807550238,go-nogo,001,18,
logos/1.jpg,properties1.xlsx,logos/1.jpg,0,0,400,a,0,1,1,0,0,0,0,85,space,20.9358567186,['a'],0,[0.4706585062740487],2018_Jul_09_0517,59.9807550238,go-nogo,001,18,
logos/1.jpg,properties1.xlsx,frogs/ab53.jpg,0,0,400,l,0,1,1,0,0,1,1,52,,,['l'],0,[0.28472514452732867],2018_Jul_09_0517,59.9807550238,go-nogo,001,18,
logos/1.jpg,properties1.xlsx,frogs/ab69.jpg,0,0,400,l,0,1,1,0,0,2,2,67,,,['l'],0,[0.38475571254093666],2018_Jul_09_0517,59.9807550238,go-nogo,001,18,
logos/1.jpg,properties1.xlsx,frogs/ab57.jpg,0,0,400,l,0,1,1,0,0,3,3,56,,,['l'],0,[0.2676213404847658],2018_Jul_09_0517,59.9807550238,go-nogo,001,18,
logos/1.jpg,properties1.xlsx,logos/1.jpg,0,0,400,a,0,1,1,0,0,4,4,89,,,['a'],0,[0.3209743384941248],2018_Jul_09_0517,59.9807550238,go-nogo,001,18,
logos/1.jpg,properties1.xlsx,frogs/ab51.jpg,0,0,400,l,0,1,1,0,0,5,5,50,,,['l'],0,[0.23429775024123956],2018_Jul_09_0517,59.9807550238,go-nogo,001,18,
logos/1.jpg,properties1.xlsx,frogs/ab42.jpg,0,0,400,l,0,1,1,0,0,6,6,41,,,['l'],0,[0.2844252656796016],2018_Jul_09_0517,59.9807550238,go-nogo,001,18,
logos/1.jpg,properties1.xlsx,frogs/ab18.jpg,0,0,400,l,0,1,1,0,0,7,7,17,,,['l'],0,[0.3176654074995895],2018_Jul_09_0517,59.9807550238,go-nogo,001,18,
logos/1.jpg,properties1.xlsx,frogs/ab43.jpg,0,0,400,l,0,1,1,0,0,8,8,42,,,['l'],0,[0.30142464763775934],2018_Jul_09_0517,59.9807550238,go-nogo,001,18,
logos/1.jpg,properties1.xlsx,frogs/ab10.jpg,0,0,400,l,0,1,1,0,0,9,9,9,,,['l'],0,[0.3008744234975893],2018_Jul_09_0517,59.9807550238,go-nogo,001,18,
logos/1.jpg,properties1.xlsx,frogs/ab25.jpg,0,0,400,l,0,1,1,0,0,10,10,24,,,['l'],0,[0.2525568910787115],2018_Jul_09_0517,59.9807550238,go-nogo,001,18,
logos/1.jpg,properties1.xlsx,frogs/ab40.jpg,0,0,400,l,0,1,1,0,0,11,11,39,,,['l'],0,[0.2509776184160728],2018_Jul_09_0517,59.9807550238,go-nogo,001,18,
logos/1.jpg,properties1.xlsx,frogs/ab73.jpg,0,0,400,l,0,1,1,0,0,12,12,71,,,['l'],0,[0.2343615637437324],2018_Jul_09_0517,59.9807550238,go-nogo,001,18,
logos/1.jpg,properties1.xlsx,frogs/ab31.jpg,0,0,400,l,0,1,1,0,0,13,13,30,,,['l'],0,[0.23445661462756107],2018_Jul_09_0517,59.9807550238,go-nogo,001,18,
logos/1.jpg,properties1.xlsx,frogs/ab67.jpg,0,0,400,l,0,1,1,0,0,14,14,65,,,['l'],0,[0.23460164531570626],2018_Jul_09_0517,59.9807550238,go-nogo,001,18,
logos/1.jpg,properties1.xlsx,frogs/ab15.jpg,0,0,400,l,0,1,1,0,0,15,15,14,,,['l'],0,[0.15123488054814516],2018_Jul_09_0517,59.9807550238,go-nogo,001,18,
logos/1.jpg,properties1.xlsx,logos/1.jpg,0,0,400,a,0,1,1,0,0,16,16,81,,,['a'],0,[0.33469691932259593],2018_Jul_09_0517,59.9807550238,go-nogo,001,18,
logos/1.jpg,properties1.xlsx,frogs/ab78.jpg,0,0,400,l,0,1,1,0,0,17,17,76,,,['l'],0,[0.2515439074850292],2018_Jul_09_0517,59.9807550238,go-nogo,001,18,
logos/1.jpg,properties1.xlsx,frogs/ab55.jpg,0,0,400,l,0,1,1,0,0,18,18,54,,,['l'],0,[0.25089015375851886],2018_Jul_09_0517,59.9807550238,go-nogo,001,18,
logos/1.jpg,properties1.xlsx,logos/1.jpg,0,0,400,a,0,1,1,0,0,19,19,84,,,['a'],0,[0.37046014890802326],2018_Jul_09_0517,59.9807550238,go-nogo,001,18,
logos/1.jpg,properties1.xlsx,frogs/ab11.jpg,0,0,400,l,0,1,1,0,0,20,20,10,,,['l'],0,[0.23453069184324704],2018_Jul_09_0517,59.9807550238,go-nogo,001,18,
logos/1.jpg,properties1.xlsx,frogs/ab34.jpg,0,0,400,l,0,1,1,0,0,21,21,33,,,['l'],0,[0.21773033662611851],2018_Jul_09_0517,59.9807550238,go-nogo,001,18,
logos/1.jpg,properties1.xlsx,frogs/ab37.jpg,0,0,400,l,0,1,1,0,0,22,22,36,,,['l'],0,[0.2676615028321976],2018_Jul_09_0517,59.9807550238,go-nogo,001,18,
logos/1.jpg,properties1.xlsx,frogs/ab48.jpg,0,0,400,l,0,1,1,0,0,23,23,47,,,['l'],0,[0.2181899723582319],2018_Jul_09_0517,59.9807550238,go-nogo,001,18,
logos/1.jpg,properties1.xlsx,frogs/ab14.jpg,0,0,400,l,0,1,1,0,0,24,24,13,,,['l'],0,[0.23440886606113054],2018_Jul_09_0517,59.9807550238,go-nogo,001,18,
logos/1.jpg,properties1.xlsx,frogs/ab20.jpg,0,0,400,l,0,1,1,0,0,25,25,19,,,['l'],0,[0.2676847077382263],2018_Jul_09_0517,59.9807550238,go-nogo,001,18,
logos/1.jpg,properties1.xlsx,frogs/ab62.jpg,0,0,400,l,0,1,1,0,0,26,26,60,,,['l'],0,[0.2845060366234975],2018_Jul_09_0517,59.9807550238,go-nogo,001,18,
logos/1.jpg,properties1.xlsx,frogs/ab38.jpg,0,0,400,l,0,1,1,0,0,27,27,37,,,['l'],0,[0.20122718276252272],2018_Jul_09_0517,59.9807550238,go-nogo,001,18,
logos/1.jpg,properties1.xlsx,frogs/ab79.jpg,0,0,400,l,0,1,1,0,0,28,28,77,,,['l'],0,[0.2346975886975997],2018_Jul_09_0517,59.9807550238,go-nogo,001,18,
logos/1.jpg,properties1.xlsx,frogs/ab49.jpg,0,0,400,l,0,1,1,0,0,29,29,48,,,['l'],0,[0.18460264938039472],2018_Jul_09_0517,59.9807550238,go-nogo,001,18,
logos/1.jpg,properties1.xlsx,frogs/ab70.jpg,0,0,400,l,0,1,1,0,0,30,30,68,,,['l'],0,[0.2347323960639187],2018_Jul_09_0517,59.9807550238,go-nogo,001,18,
logos/1.jpg,properties1.xlsx,frogs/ab44.jpg,0,0,400,l,0,1,1,0,0,31,31,43,,,['l'],0,[0.18475615877832752],2018_Jul_09_0517,59.9807550238,go-nogo,001,18,
logos/1.jpg,properties1.xlsx,frogs/ab39.jpg,0,0,400,l,0,1,1,0,0,32,32,38,,,['l'],0,[0.2509905596161843],2018_Jul_09_0517,59.9807550238,go-nogo,001,18,
logos/1.jpg,properties1.xlsx,frogs/ab32.jpg,0,0,400,l,0,1,1,0,0,33,33,31,,,['l'],0,[0.20108929205161985],2018_Jul_09_0517,59.9807550238,go-nogo,001,18,
logos/1.jpg,properties1.xlsx,frogs/ab54.jpg,0,0,400,l,0,1,1,0,0,34,34,53,,,['l'],0,[0.2348609155669692],2018_Jul_09_0517,59.9807550238,go-nogo,001,18,
logos/1.jpg,properties1.xlsx,frogs/ab52.jpg,0,0,400,l,0,1,1,0,0,35,35,51,,,['l'],0,[0.2842173139870283],2018_Jul_09_0517,59.9807550238,go-nogo,001,18,
logos/1.jpg,properties1.xlsx,frogs/ab22.jpg,0,0,400,l,0,1,1,0,0,36,36,21,,,['l'],0,[0.3844098701229086],2018_Jul_09_0517,59.9807550238,go-nogo,001,18,
logos/1.jpg,properties1.xlsx,frogs/ab1.jpg,0,0,400,l,0,1,1,0,0,37,37,0,,,['l'],0,[0.23476407969428692],2018_Jul_09_0517,59.9807550238,go-nogo,001,18,
logos/1.jpg,properties1.xlsx,frogs/ab24.jpg,0,0,400,l,0,1,1,0,0,38,38,23,,,['l'],0,[0.3016910578517127],2018_Jul_09_0517,59.9807550238,go-nogo,001,18,
logos/1.jpg,properties1.xlsx,frogs/ab75.jpg,0,0,400,l,0,1,1,0,0,39,39,73,,,['l'],0,[0.2680591100433958],2018_Jul_09_0517,59.9807550238,go-nogo,001,18,
logos/1.jpg,properties1.xlsx,frogs/ab16.jpg,0,0,400,l,0,1,1,0,0,40,40,15,,,['l'],0,[0.26845091603900073],2018_Jul_09_0517,59.9807550238,go-nogo,001,18,
logos/1.jpg,properties1.xlsx,frogs/ab68.jpg,0,0,400,l,0,1,1,0,0,41,41,66,,,['l'],0,[0.5511492008809],2018_Jul_09_0517,59.9807550238,go-nogo,001,18,
logos/1.jpg,properties1.xlsx,frogs/ab45.jpg,0,0,400,l,0,1,1,0,0,42,42,44,,,['l'],0,[0.2514118179969955],2018_Jul_09_0517,59.9807550238,go-nogo,001,18,
logos/1.jpg,properties1.xlsx,frogs/ab26.jpg,0,0,400,l,0,1,1,0,0,43,43,25,,,['l'],0,[0.20136105725396192],2018_Jul_09_0517,59.9807550238,go-nogo,001,18,
logos/1.jpg,properties1.xlsx,frogs/ab66.jpg,0,0,400,l,0,1,1,0,0,44,44,64,,,['l'],0,[0.234437425948272],2018_Jul_09_0517,59.9807550238,go-nogo,001,18,
logos/1.jpg,properties1.xlsx,frogs/ab58.jpg,0,0,400,l,0,1,1,0,0,45,45,57,,,['l'],0,[0.22089736066845944],2018_Jul_09_0517,59.9807550238,go-nogo,001,18,
logos/1.jpg,properties1.xlsx,frogs/ab6.jpg,0,0,400,l,0,1,1,0,0,46,46,5,,,['l'],0,[0.23418484941794304],2018_Jul_09_0517,59.9807550238,go-nogo,001,18,
logos/1.jpg,properties1.xlsx,frogs/ab23.jpg,0,0,400,l,0,1,1,0,0,47,47,22,,,['l'],0,[0.2010116448509507],2018_Jul_09_0517,59.9807550238,go-nogo,001,18,
logos/1.jpg,properties1.xlsx,frogs/ab56.jpg,0,0,400,l,0,1,1,0,0,48,48,55,,,['l'],0,[0.26351451757363975],2018_Jul_09_0517,59.9807550238,go-nogo,001,18,
logos/1.jpg,properties1.xlsx,frogs/ab7.jpg,0,0,400,l,0,1,1,0,0,49,49,6,,,['l'],0,[0.26770746640249854],2018_Jul_09_0517,59.9807550238,go-nogo,001,18,
logos/1.jpg,properties1.xlsx,logos/1.jpg,0,0,400,a,0,1,1,0,0,50,50,82,,,['a'],0,[0.33699822170456173],2018_Jul_09_0517,59.9807550238,go-nogo,001,18,
logos/1.jpg,properties1.xlsx,frogs/ab30.jpg,0,0,400,l,0,1,1,0,0,51,51,29,,,['l'],0,[0.13448807513486827],2018_Jul_09_0517,59.9807550238,go-nogo,001,18,
logos/1.jpg,properties1.xlsx,frogs/ab2.jpg,0,0,400,l,0,1,1,0,0,52,52,1,,,['l'],0,[0.8391069679419161],2018_Jul_09_0517,59.9807550238,go-nogo,001,18,
logos/1.jpg,properties1.xlsx,frogs/ab13.jpg,0,0,400,l,0,1,1,0,0,53,53,12,,,['l'],0,[0.45087587381567573],2018_Jul_09_0517,59.9807550238,go-nogo,001,18,
logos/1.jpg,properties1.xlsx,frogs/ab12.jpg,0,0,400,l,0,1,1,0,0,54,54,11,,,['l'],0,[0.3006682568011456],2018_Jul_09_0517,59.9807550238,go-nogo,001,18,
logos/1.jpg,properties1.xlsx,frogs/ab65.jpg,0,0,400,l,0,1,1,0,0,55,55,63,,,['l'],0,[0.3176801336958306],2018_Jul_09_0517,59.9807550238,go-nogo,001,18,
logos/1.jpg,properties1.xlsx,frogs/ab17.jpg,0,0,400,l,0,1,1,0,0,56,56,16,,,['l'],0,[0.2676637340700836],2018_Jul_09_0517,59.9807550238,go-nogo,001,18,
logos/1.jpg,properties1.xlsx,frogs/ab74.jpg,0,0,400,l,0,1,1,0,0,57,57,72,,,['l'],0,[0.25127481976960553],2018_Jul_09_0517,59.9807550238,go-nogo,001,18,
logos/1.jpg,properties1.xlsx,frogs/ab3.jpg,0,0,400,l,0,1,1,0,0,58,58,2,,,['l'],0,[0.2342955189960776],2018_Jul_09_0517,59.9807550238,go-nogo,001,18,
logos/1.jpg,properties1.xlsx,frogs/ab35.jpg,0,0,400,l,0,1,1,0,0,59,59,34,,,['l'],0,[0.20095407882035943],2018_Jul_09_0517,59.9807550238,go-nogo,001,18,
logos/1.jpg,properties1.xlsx,frogs/ab80.jpg,0,0,400,l,0,1,1,0,0,60,60,78,,,['l'],0,[0.21769329801463755],2018_Jul_09_0517,59.9807550238,go-nogo,001,18,
logos/1.jpg,properties1.xlsx,logos/1.jpg,0,0,400,a,0,1,1,0,0,61,61,80,,,['a'],0,[0.3180902358653839],2018_Jul_09_0517,59.9807550238,go-nogo,001,18,
logos/1.jpg,properties1.xlsx,frogs/ab64.jpg,0,0,400,l,0,1,1,0,0,62,62,62,,,['l'],0,[0.2514220817029127],2018_Jul_09_0517,59.9807550238,go-nogo,001,18,
logos/1.jpg,properties1.xlsx,frogs/ab63.jpg,0,0,400,l,0,1,1,0,0,63,63,61,,,['l'],0,[0.2178378824610263],2018_Jul_09_0517,59.9807550238,go-nogo,001,18,
logos/1.jpg,properties1.xlsx,frogs/ab81.jpg,0,0,400,l,0,1,1,0,0,64,64,79,,,['l'],0,[0.23479531707562273],2018_Jul_09_0517,59.9807550238,go-nogo,001,18,
logos/1.jpg,properties1.xlsx,frogs/ab33.jpg,0,0,400,l,0,1,1,0,0,65,65,32,,,['l'],0,[0.26750620843085926],2018_Jul_09_0517,59.9807550238,go-nogo,001,18,
logos/1.jpg,properties1.xlsx,frogs/ab61.jpg,0,0,400,l,0,1,1,0,0,66,66,59,,,['l'],0,[0.26784758835856337],2018_Jul_09_0517,59.9807550238,go-nogo,001,18,
logos/1.jpg,properties1.xlsx,frogs/ab29.jpg,0,0,400,l,0,1,1,0,0,67,67,28,,,['l'],0,[0.21788206104247365],2018_Jul_09_0517,59.9807550238,go-nogo,001,18,
logos/1.jpg,properties1.xlsx,logos/1.jpg,0,0,400,a,0,1,1,0,0,68,68,87,,,['a'],0,[0.3701718725205865],2018_Jul_09_0517,59.9807550238,go-nogo,001,18,
logos/1.jpg,properties1.xlsx,frogs/ab8.jpg,0,0,400,l,0,1,1,0,0,69,69,7,,,['l'],0,[0.26781278099224437],2018_Jul_09_0517,59.9807550238,go-nogo,001,18,
logos/1.jpg,properties1.xlsx,frogs/ab21.jpg,0,0,400,l,0,1,1,0,0,70,70,20,,,['l'],0,[0.2510472331487108],2018_Jul_09_0517,59.9807550238,go-nogo,001,18,
logos/1.jpg,properties1.xlsx,frogs/ab4.jpg,0,0,400,l,0,1,1,0,0,71,71,3,,,['l'],0,[0.26770523516461253],2018_Jul_09_0517,59.9807550238,go-nogo,001,18,
logos/1.jpg,properties1.xlsx,frogs/ab28.jpg,0,0,400,l,0,1,1,0,0,72,72,27,,,['l'],0,[0.26767265903617954],2018_Jul_09_0517,59.9807550238,go-nogo,001,18,
logos/1.jpg,properties1.xlsx,frogs/ab72.jpg,0,0,400,l,0,1,1,0,0,73,73,70,,,['l'],0,[0.7176426488440484],2018_Jul_09_0517,59.9807550238,go-nogo,001,18,
logos/1.jpg,properties1.xlsx,frogs/ab9.jpg,0,0,400,l,0,1,1,0,0,74,74,8,,,['l'],0,[0.5173494637201657],2018_Jul_09_0517,59.9807550238,go-nogo,001,18,
logos/1.jpg,properties1.xlsx,frogs/ab27.jpg,0,0,400,l,0,1,1,0,0,75,75,26,,,['l'],0,[0.8668778908468084],2018_Jul_09_0517,59.9807550238,go-nogo,001,18,
logos/1.jpg,properties1.xlsx,logos/1.jpg,0,0,400,a,0,1,1,0,0,76,76,83,,,['a'],0,[0.5373931514259311],2018_Jul_09_0517,59.9807550238,go-nogo,001,18,
logos/1.jpg,properties1.xlsx,logos/1.jpg,0,0,400,a,0,1,1,0,0,77,77,86,,,['a'],0,[0.3508082671905868],2018_Jul_09_0517,59.9807550238,go-nogo,001,18,
logos/1.jpg,properties1.xlsx,frogs/ab47.jpg,0,0,400,l,0,1,1,0,0,78,78,46,,,['a'],0,[0.46600458296597935],2018_Jul_09_0517,59.9807550238,go-nogo,001,18,
logos/1.jpg,properties1.xlsx,frogs/ab5.jpg,0,0,400,l,0,1,1,0,0,79,79,4,,,['l'],0,[0.30080748625914566],2018_Jul_09_0517,59.9807550238,go-nogo,001,18,
logos/1.jpg,properties1.xlsx,frogs/ab36.jpg,0,0,400,l,0,1,1,0,0,80,80,35,,,['l'],0,[0.3842813506125822],2018_Jul_09_0517,59.9807550238,go-nogo,001,18,
logos/1.jpg,properties1.xlsx,frogs/ab71.jpg,0,0,400,l,0,1,1,0,0,81,81,69,,,['l'],0,[0.30151523603126407],2018_Jul_09_0517,59.9807550238,go-nogo,001,18,
logos/1.jpg,properties1.xlsx,frogs/ab76.jpg,0,0,400,l,0,1,1,0,0,82,82,74,,,['l'],0,[0.2677123751345789],2018_Jul_09_0517,59.9807550238,go-nogo,001,18,
logos/1.jpg,properties1.xlsx,frogs/ab50.jpg,0,0,400,l,0,1,1,0,0,83,83,49,,,['l'],0,[0.3010167766988161],2018_Jul_09_0517,59.9807550238,go-nogo,001,18,
logos/1.jpg,properties1.xlsx,frogs/ab60.jpg,0,0,400,l,0,1,1,0,0,84,84,58,,,['l'],0,[0.267239798202354],2018_Jul_09_0517,59.9807550238,go-nogo,001,18,
logos/1.jpg,properties1.xlsx,frogs/ab41.jpg,0,0,400,l,0,1,1,0,0,85,85,40,,,['l'],0,[0.26763383543584496],2018_Jul_09_0517,59.9807550238,go-nogo,001,18,
logos/1.jpg,properties1.xlsx,frogs/ab46.jpg,0,0,400,l,0,1,1,0,0,86,86,45,,,['l'],0,[0.3009761681096279],2018_Jul_09_0517,59.9807550238,go-nogo,001,18,
logos/1.jpg,properties1.xlsx,frogs/ab19.jpg,0,0,400,l,0,1,1,0,0,87,87,18,,,['l'],0,[0.26807651373383123],2018_Jul_09_0517,59.9807550238,go-nogo,001,18,
logos/1.jpg,properties1.xlsx,frogs/ab77.jpg,0,0,400,l,0,1,1,0,0,88,88,75,,,['l'],0,[0.18426751691731624],2018_Jul_09_0517,59.9807550238,go-nogo,001,18,
logos/1.jpg,properties1.xlsx,logos/1.jpg,0,0,400,a,0,1,1,0,0,89,89,88,,,['a'],0,[0.3168349394618417],2018_Jul_09_0517,59.9807550238,go-nogo,001,18,
logos/1.jpg,properties1.xlsx,,,,,,0,1,1,0,,,,,,,,,,2018_Jul_09_0517,59.9807550238,go-nogo,001,18,
logos/2.jpg,properties2.xlsx,logos/2.jpg,0,0,400,a,0,2,2,1,0,0,0,83,space,2.90668948483,['a'],0,[0.3173811473461683],2018_Jul_09_0517,59.9807550238,go-nogo,001,18,
logos/2.jpg,properties2.xlsx,frogs/ab80.jpg,0,0,400,l,0,2,2,1,0,1,1,78,,,['l'],0,[0.25100305456726346],2018_Jul_09_0517,59.9807550238,go-nogo,001,18,
logos/2.jpg,properties2.xlsx,frogs/ab7.jpg,0,0,400,l,0,2,2,1,0,2,2,6,,,['l'],0,[0.4008759853677475],2018_Jul_09_0517,59.9807550238,go-nogo,001,18,
logos/2.jpg,properties2.xlsx,frogs/ab51.jpg,0,0,400,l,0,2,2,1,0,3,3,50,,,['l'],0,[0.3835066636020201],2018_Jul_09_0517,59.9807550238,go-nogo,001,18,
logos/2.jpg,properties2.xlsx,frogs/ab43.jpg,0,0,400,l,0,2,2,1,0,4,4,42,,,['l'],0,[0.3175270705323783],2018_Jul_09_0517,59.9807550238,go-nogo,001,18,
logos/2.jpg,properties2.xlsx,frogs/ab47.jpg,0,0,400,l,0,2,2,1,0,5,5,46,,,['l'],0,[0.4080904813017696],2018_Jul_09_0517,59.9807550238,go-nogo,001,18,
logos/2.jpg,properties2.xlsx,frogs/ab13.jpg,0,0,400,l,0,2,2,1,0,6,6,12,,,['l'],0,[0.11799250749027124],2018_Jul_09_0517,59.9807550238,go-nogo,001,18,
logos/2.jpg,properties2.xlsx,frogs/ab74.jpg,0,0,400,l,0,2,2,1,0,7,7,72,,,['l'],0,[0.21761118833819637],2018_Jul_09_0517,59.9807550238,go-nogo,001,18,
logos/2.jpg,properties2.xlsx,frogs/ab76.jpg,0,0,400,l,0,2,2,1,0,8,8,74,,,['l'],0,[0.2509187136456603],2018_Jul_09_0517,59.9807550238,go-nogo,001,18,
logos/2.jpg,properties2.xlsx,frogs/ab39.jpg,0,0,400,l,0,2,2,1,0,9,9,38,,,['l'],0,[0.3508899306252715],2018_Jul_09_0517,59.9807550238,go-nogo,001,18,
logos/2.jpg,properties2.xlsx,frogs/ab8.jpg,0,0,400,l,0,2,2,1,0,10,10,7,,,['l'],0,[0.26756555945030414],2018_Jul_09_0517,59.9807550238,go-nogo,001,18,
logos/2.jpg,properties2.xlsx,logos/2.jpg,0,0,400,a,0,2,2,1,0,11,11,84,,,['a'],0,[0.23440797356306575],2018_Jul_09_0517,59.9807550238,go-nogo,001,18,
logos/2.jpg,properties2.xlsx,logos/2.jpg,0,0,400,a,0,2,2,1,0,12,12,86,,,['a'],0,[0.8175188149471069],2018_Jul_09_0517,59.9807550238,go-nogo,001,18,
logos/2.jpg,properties2.xlsx,frogs/ab31.jpg,0,0,400,l,0,2,2,1,0,13,13,30,,,['l'],0,[0.2509521822721581],2018_Jul_09_0517,59.9807550238,go-nogo,001,18,
logos/2.jpg,properties2.xlsx,frogs/ab9.jpg,0,0,400,l,0,2,2,1,0,14,14,8,,,['l'],0,[0.31659932036563987],2018_Jul_09_0517,59.9807550238,go-nogo,001,18,
logos/2.jpg,properties2.xlsx,frogs/ab15.jpg,0,0,400,l,0,2,2,1,0,15,15,14,,,['l'],0,[0.30038265790062724],2018_Jul_09_0517,59.9807550238,go-nogo,001,18,
logos/2.jpg,properties2.xlsx,logos/2.jpg,0,0,400,a,0,2,2,1,0,16,16,85,,,['a'],0,[0.8674272224889137],2018_Jul_09_0517,59.9807550238,go-nogo,001,18,
logos/2.jpg,properties2.xlsx,frogs/ab66.jpg,0,0,400,l,0,2,2,1,0,17,17,64,,,['l'],0,[0.8506308835058007],2018_Jul_09_0517,59.9807550238,go-nogo,001,18,
logos/2.jpg,properties2.xlsx,frogs/ab48.jpg,0,0,400,l,0,2,2,1,0,18,18,47,,,['l'],0,[0.5507368674734607],2018_Jul_09_0517,59.9807550238,go-nogo,001,18,
logos/2.jpg,properties2.xlsx,frogs/ab65.jpg,0,0,400,l,0,2,2,1,0,19,19,63,,,['l'],0,[0.5509202755129081],2018_Jul_09_0517,59.9807550238,go-nogo,001,18,
logos/2.jpg,properties2.xlsx,frogs/ab33.jpg,0,0,400,l,0,2,2,1,0,20,20,32,,,['l'],0,[0.38431080300506437],2018_Jul_09_0517,59.9807550238,go-nogo,001,18,
logos/2.jpg,properties2.xlsx,frogs/ab24.jpg,0,0,400,l,0,2,2,1,0,21,21,23,,,['l'],0,[0.38480301485105883],2018_Jul_09_0517,59.9807550238,go-nogo,001,18,
logos/2.jpg,properties2.xlsx,frogs/ab14.jpg,0,0,400,l,0,2,2,1,0,22,22,13,,,['l'],0,[0.3843888964547659],2018_Jul_09_0517,59.9807550238,go-nogo,001,18,
logos/2.jpg,properties2.xlsx,frogs/ab36.jpg,0,0,400,l,0,2,2,1,0,23,23,35,,,['l'],0,[0.6012370002281386],2018_Jul_09_0517,59.9807550238,go-nogo,001,18,
logos/2.jpg,properties2.xlsx,frogs/ab25.jpg,0,0,400,l,0,2,2,1,0,24,24,24,,,['l'],0,[0.6675682369386777],2018_Jul_09_0517,59.9807550238,go-nogo,001,18,
logos/2.jpg,properties2.xlsx,frogs/ab45.jpg,0,0,400,l,0,2,2,1,0,25,25,44,,,['l'],0,[1.3673716645789682],2018_Jul_09_0517,59.9807550238,go-nogo,001,18,
logos/2.jpg,properties2.xlsx,frogs/ab49.jpg,0,0,400,l,0,2,2,1,0,26,26,48,,,['l'],0,[0.5177283285083831],2018_Jul_09_0517,59.9807550238,go-nogo,001,18,
logos/2.jpg,properties2.xlsx,frogs/ab22.jpg,0,0,400,l,0,2,2,1,0,27,27,21,,,['l'],0,[0.16775454559683567],2018_Jul_09_0517,59.9807550238,go-nogo,001,18,
logos/2.jpg,properties2.xlsx,frogs/ab42.jpg,0,0,400,l,0,2,2,1,0,28,28,41,,,['l'],0,[0.1511018985620467],2018_Jul_09_0517,59.9807550238,go-nogo,001,18,
logos/2.jpg,properties2.xlsx,frogs/ab71.jpg,0,0,400,l,0,2,2,1,0,29,29,69,,,['l'],0,[0.1678429027524544],2018_Jul_09_0517,59.9807550238,go-nogo,001,18,
logos/2.jpg,properties2.xlsx,frogs/ab69.jpg,0,0,400,l,0,2,2,1,0,30,30,67,,,['l'],0,[0.20112365316890646],2018_Jul_09_0517,59.9807550238,go-nogo,001,18,
logos/2.jpg,properties2.xlsx,frogs/ab77.jpg,0,0,400,l,0,2,2,1,0,31,31,75,,,['l'],0,[0.20090722275199369],2018_Jul_09_0517,59.9807550238,go-nogo,001,18,
logos/2.jpg,properties2.xlsx,frogs/ab38.jpg,0,0,400,l,0,2,2,1,0,32,32,37,,,['l'],0,[0.18479721362382406],2018_Jul_09_0517,59.9807550238,go-nogo,001,18,
logos/2.jpg,properties2.xlsx,frogs/ab5.jpg,0,0,400,l,0,2,2,1,0,33,33,4,,,['l'],0,[0.2846309861415648],2018_Jul_09_0517,59.9807550238,go-nogo,001,18,
logos/2.jpg,properties2.xlsx,logos/2.jpg,0,0,400,a,0,2,2,1,0,34,34,81,,,['a'],0,[1.2676963101912406],2018_Jul_09_0517,59.9807550238,go-nogo,001,18,
logos/2.jpg,properties2.xlsx,frogs/ab73.jpg,0,0,400,l,0,2,2,1,0,35,35,71,,,['l'],0,[0.401350347296102],2018_Jul_09_0517,59.9807550238,go-nogo,001,18,
logos/2.jpg,properties2.xlsx,frogs/ab79.jpg,0,0,400,l,0,2,2,1,0,36,36,77,,,['l'],0,[0.3175185918153147],2018_Jul_09_0517,59.9807550238,go-nogo,001,18,
logos/2.jpg,properties2.xlsx,frogs/ab53.jpg,0,0,400,l,0,2,2,1,0,37,37,52,,,['l'],0,[0.20136641222779872],2018_Jul_09_0517,59.9807550238,go-nogo,001,18,
logos/2.jpg,properties2.xlsx,frogs/ab26.jpg,0,0,400,l,0,2,2,1,0,38,38,25,,,['l'],0,[0.2177575577661628],2018_Jul_09_0517,59.9807550238,go-nogo,001,18,
logos/2.jpg,properties2.xlsx,frogs/ab29.jpg,0,0,400,l,0,2,2,1,0,39,39,28,,,['l'],0,[0.21787135108024813],2018_Jul_09_0517,59.9807550238,go-nogo,001,18,
logos/2.jpg,properties2.xlsx,frogs/ab19.jpg,0,0,400,l,0,2,2,1,0,40,40,18,,,['l'],0,[0.21780887632485246],2018_Jul_09_0517,59.9807550238,go-nogo,001,18,
logos/2.jpg,properties2.xlsx,frogs/ab46.jpg,0,0,400,l,0,2,2,1,0,41,41,45,,,['l'],0,[0.2177316753732157],2018_Jul_09_0517,59.9807550238,go-nogo,001,18,
logos/2.jpg,properties2.xlsx,frogs/ab57.jpg,0,0,400,l,0,2,2,1,0,42,42,56,,,['l'],0,[0.21764688820258016],2018_Jul_09_0517,59.9807550238,go-nogo,001,18,
logos/2.jpg,properties2.xlsx,frogs/ab21.jpg,0,0,400,l,0,2,2,1,0,43,43,20,,,['l'],0,[0.06780921101017157],2018_Jul_09_0517,59.9807550238,go-nogo,001,18,
logos/2.jpg,properties2.xlsx,frogs/ab23.jpg,0,0,400,l,0,2,2,1,0,44,44,22,,,['l'],0,[0.11770690858975286],2018_Jul_09_0517,59.9807550238,go-nogo,001,18,
logos/2.jpg,properties2.xlsx,frogs/ab30.jpg,0,0,400,l,0,2,2,1,0,45,45,29,,,['l'],0,[0.1341493726868066],2018_Jul_09_0517,59.9807550238,go-nogo,001,18,
logos/2.jpg,properties2.xlsx,frogs/ab4.jpg,0,0,400,l,0,2,2,1,0,46,46,3,,,['l'],0,[0.16774874436669052],2018_Jul_09_0517,59.9807550238,go-nogo,001,18,
logos/2.jpg,properties2.xlsx,frogs/ab20.jpg,0,0,400,l,0,2,2,1,0,47,47,19,,,['l'],0,[0.15108583362598438],2018_Jul_09_0517,59.9807550238,go-nogo,001,18,
logos/2.jpg,properties2.xlsx,frogs/ab28.jpg,0,0,400,l,0,2,2,1,0,48,48,27,,,['l'],0,[0.18426751691731624],2018_Jul_09_0517,59.9807550238,go-nogo,001,18,
logos/2.jpg,properties2.xlsx,frogs/ab75.jpg,0,0,400,l,0,2,2,1,0,49,49,73,,,['l'],0,[0.10109487015142804],2018_Jul_09_0517,59.9807550238,go-nogo,001,18,
logos/2.jpg,properties2.xlsx,frogs/ab72.jpg,0,0,400,l,0,2,2,1,0,50,50,70,,,['l'],0,[0.16774562063073972],2018_Jul_09_0517,59.9807550238,go-nogo,001,18,
logos/2.jpg,properties2.xlsx,frogs/ab50.jpg,0,0,400,l,0,2,2,1,0,51,51,49,,,['l'],0,[0.25159344104031334],2018_Jul_09_0517,59.9807550238,go-nogo,001,18,
logos/2.jpg,properties2.xlsx,frogs/ab2.jpg,0,0,400,l,0,2,2,1,0,52,52,1,,,['l'],0,[0.46189865255291807],2018_Jul_09_0517,59.9807550238,go-nogo,001,18,
logos/2.jpg,properties2.xlsx,frogs/ab56.jpg,0,0,400,l,0,2,2,1,0,53,53,55,,,['l'],0,[0.8712515702354722],2018_Jul_09_0517,59.9807550238,go-nogo,001,18,
logos/2.jpg,properties2.xlsx,frogs/ab40.jpg,0,0,400,l,0,2,2,1,0,54,54,39,,,['l'],0,[0.25091291241551517],2018_Jul_09_0517,59.9807550238,go-nogo,001,18,
logos/2.jpg,properties2.xlsx,frogs/ab78.jpg,0,0,400,l,0,2,2,1,0,55,55,76,,,['l'],0,[0.1842237845849013],2018_Jul_09_0517,59.9807550238,go-nogo,001,18,
logos/2.jpg,properties2.xlsx,frogs/ab32.jpg,0,0,400,l,0,2,2,1,0,56,56,31,,,['l'],0,[0.15104433253145544],2018_Jul_09_0517,59.9807550238,go-nogo,001,18,
logos/2.jpg,properties2.xlsx,frogs/ab12.jpg,0,0,400,l,0,2,2,1,0,57,57,11,,,['l'],0,[0.117606056483055],2018_Jul_09_0517,59.9807550238,go-nogo,001,18,
logos/2.jpg,properties2.xlsx,frogs/ab58.jpg,0,0,400,l,0,2,2,1,0,58,58,57,,,['l'],0,[0.28432262857677415],2018_Jul_09_0517,59.9807550238,go-nogo,001,18,
logos/2.jpg,properties2.xlsx,frogs/ab54.jpg,0,0,400,l,0,2,2,1,0,59,59,53,,,['l'],0,[0.18382439237757353],2018_Jul_09_0517,59.9807550238,go-nogo,001,18,
logos/2.jpg,properties2.xlsx,frogs/ab37.jpg,0,0,400,l,0,2,2,1,0,60,60,36,,,['l'],0,[0.18403457531530876],2018_Jul_09_0517,59.9807550238,go-nogo,001,18,
logos/2.jpg,properties2.xlsx,logos/2.jpg,0,0,400,a,0,2,2,1,0,61,61,82,,,['a'],0,[0.16741852064296836],2018_Jul_09_0517,59.9807550238,go-nogo,001,18,
logos/2.jpg,properties2.xlsx,frogs/ab68.jpg,0,0,400,l,0,2,2,1,0,62,62,66,,,['l'],0,[0.26761910923960386],2018_Jul_09_0517,59.9807550238,go-nogo,001,18,
logos/2.jpg,properties2.xlsx,logos/2.jpg,0,0,400,a,0,2,2,1,0,63,63,89,,,['a'],0,[0.26805777130357455],2018_Jul_09_0517,59.9807550238,go-nogo,001,18,
logos/2.jpg,properties2.xlsx,frogs/ab55.jpg,0,0,400,l,0,2,2,1,0,64,64,54,,,['l'],0,[0.23434059007558972],2018_Jul_09_0517,59.9807550238,go-nogo,001,18,
logos/2.jpg,properties2.xlsx,frogs/ab10.jpg,0,0,400,l,0,2,2,1,0,65,65,9,,,['a'],0,[0.267133144865511],2018_Jul_09_0517,59.9807550238,go-nogo,001,18,
logos/2.jpg,properties2.xlsx,frogs/ab1.jpg,0,0,400,l,0,2,2,1,0,66,66,0,,,['l'],0,[0.3175846365702455],2018_Jul_09_0517,59.9807550238,go-nogo,001,18,
logos/2.jpg,properties2.xlsx,frogs/ab67.jpg,0,0,400,l,0,2,2,1,0,67,67,65,,,['l'],0,[0.43413665461412165],2018_Jul_09_0517,59.9807550238,go-nogo,001,18,
logos/2.jpg,properties2.xlsx,frogs/ab60.jpg,0,0,400,l,0,2,2,1,0,68,68,58,,,['l'],0,[0.284166441684647],2018_Jul_09_0517,59.9807550238,go-nogo,001,18,
logos/2.jpg,properties2.xlsx,frogs/ab3.jpg,0,0,400,l,0,2,2,1,0,69,69,2,,,['l'],0,[0.284168672922533],2018_Jul_09_0517,59.9807550238,go-nogo,001,18,
logos/2.jpg,properties2.xlsx,frogs/ab64.jpg,0,0,400,l,0,2,2,1,0,70,70,62,,,['l'],0,[0.367520711493853],2018_Jul_09_0517,59.9807550238,go-nogo,001,18,
logos/2.jpg,properties2.xlsx,frogs/ab63.jpg,0,0,400,l,0,2,2,1,0,71,71,61,,,['l'],0,[0.9008253361898824],2018_Jul_09_0517,59.9807550238,go-nogo,001,18,
logos/2.jpg,properties2.xlsx,frogs/ab41.jpg,0,0,400,l,0,2,2,1,0,72,72,40,,,['l'],0,[0.28430656364071183],2018_Jul_09_0517,59.9807550238,go-nogo,001,18,
logos/2.jpg,properties2.xlsx,frogs/ab44.jpg,0,0,400,l,0,2,2,1,0,73,73,43,,,['l'],0,[0.43427856156631606],2018_Jul_09_0517,59.9807550238,go-nogo,001,18,
logos/2.jpg,properties2.xlsx,frogs/ab70.jpg,0,0,400,l,0,2,2,1,0,74,74,68,,,['l'],0,[0.2842913912027143],2018_Jul_09_0517,59.9807550238,go-nogo,001,18,
logos/2.jpg,properties2.xlsx,frogs/ab81.jpg,0,0,400,l,0,2,2,1,0,75,75,79,,,['l'],0,[0.5842398495296948],2018_Jul_09_0517,59.9807550238,go-nogo,001,18,
logos/2.jpg,properties2.xlsx,frogs/ab17.jpg,0,0,400,l,0,2,2,1,0,76,76,16,,,['l'],0,[1.2006095751494286],2018_Jul_09_0517,59.9807550238,go-nogo,001,18,
logos/2.jpg,properties2.xlsx,frogs/ab35.jpg,0,0,400,l,0,2,2,1,0,77,77,34,,,['l'],0,[1.5838293011038331],2018_Jul_09_0517,59.9807550238,go-nogo,001,18,
logos/2.jpg,properties2.xlsx,frogs/ab61.jpg,0,0,400,l,0,2,2,1,0,78,78,59,,,['l'],0,[0.4675195958770928],2018_Jul_09_0517,59.9807550238,go-nogo,001,18,
logos/2.jpg,properties2.xlsx,frogs/ab34.jpg,0,0,400,l,0,2,2,1,0,79,79,33,,,['l'],0,[0.30105917029140983],2018_Jul_09_0517,59.9807550238,go-nogo,001,18,
logos/2.jpg,properties2.xlsx,logos/2.jpg,0,0,400,a,0,2,2,1,0,80,80,87,,,['a'],0,[0.33428369341709185],2018_Jul_09_0517,59.9807550238,go-nogo,001,18,
logos/2.jpg,properties2.xlsx,logos/2.jpg,0,0,400,a,0,2,2,1,0,81,81,80,,,['a'],0,[0.2842695250365068],2018_Jul_09_0517,59.9807550238,go-nogo,001,18,
logos/2.jpg,properties2.xlsx,frogs/ab27.jpg,0,0,400,l,0,2,2,1,0,82,82,26,,,['l'],0,[0.3842050421590102],2018_Jul_09_0517,59.9807550238,go-nogo,001,18,
logos/2.jpg,properties2.xlsx,frogs/ab62.jpg,0,0,400,l,0,2,2,1,0,83,83,60,,,['l'],0,[0.4373630296686315],2018_Jul_09_0517,59.9807550238,go-nogo,001,18,
logos/2.jpg,properties2.xlsx,frogs/ab11.jpg,0,0,400,l,0,2,2,1,0,84,84,10,,,['l'],0,[0.31756143165694084],2018_Jul_09_0517,59.9807550238,go-nogo,001,18,
logos/2.jpg,properties2.xlsx,frogs/ab6.jpg,0,0,400,l,0,2,2,1,0,85,85,5,,,['l'],0,[0.25094861227989895],2018_Jul_09_0517,59.9807550238,go-nogo,001,18,
logos/2.jpg,properties2.xlsx,frogs/ab16.jpg,0,0,400,l,0,2,2,1,0,86,86,15,,,['l'],0,[0.33438052928977413],2018_Jul_09_0517,59.9807550238,go-nogo,001,18,
logos/2.jpg,properties2.xlsx,frogs/ab52.jpg,0,0,400,l,0,2,2,1,0,87,87,51,,,['l'],0,[0.317504311875382],2018_Jul_09_0517,59.9807550238,go-nogo,001,18,
logos/2.jpg,properties2.xlsx,logos/2.jpg,0,0,400,a,0,2,2,1,0,88,88,88,,,['a'],0,[0.05111327789200004],2018_Jul_09_0517,59.9807550238,go-nogo,001,18,
logos/2.jpg,properties2.xlsx,frogs/ab18.jpg,0,0,400,l,0,2,2,1,0,89,89,17,,,['l'],0,[0.23432407888321904],2018_Jul_09_0517,59.9807550238,go-nogo,001,18,
logos/2.jpg,properties2.xlsx,,,,,,0,2,2,1,,,,,,,,,,2018_Jul_09_0517,59.9807550238,go-nogo,001,18,
logos/3.jpg,properties3.xlsx,frogs/ab9.jpg,0,0,400,l,0,3,3,2,0,0,0,8,space,3.16623551645,['l'],0,[0.699999330630817],2018_Jul_09_0517,59.9807550238,go-nogo,001,18,
logos/3.jpg,properties3.xlsx,frogs/ab40.jpg,0,0,400,l,0,3,3,2,0,1,1,39,,,['l'],0,[0.3843286529299803],2018_Jul_09_0517,59.9807550238,go-nogo,001,18,
logos/3.jpg,properties3.xlsx,frogs/ab81.jpg,0,0,400,l,0,3,3,2,0,2,2,79,,,['l'],0,[0.28427041752729565],2018_Jul_09_0517,59.9807550238,go-nogo,001,18,
logos/3.jpg,properties3.xlsx,frogs/ab18.jpg,0,0,400,l,0,3,3,2,0,3,3,17,,,['l'],0,[0.21763171575730667],2018_Jul_09_0517,59.9807550238,go-nogo,001,18,
logos/3.jpg,properties3.xlsx,frogs/ab11.jpg,0,0,400,l,0,3,3,2,0,4,4,10,,,['l'],0,[0.16773669566464378],2018_Jul_09_0517,59.9807550238,go-nogo,001,18,
logos/3.jpg,properties3.xlsx,logos/3.jpg,0,0,400,a,0,3,3,2,0,5,5,86,,,['a'],0,[0.21774506282235961],2018_Jul_09_0517,59.9807550238,go-nogo,001,18,
logos/3.jpg,properties3.xlsx,frogs/ab20.jpg,0,0,400,l,0,3,3,2,0,6,6,19,,,['l'],0,[0.25093745606864104],2018_Jul_09_0517,59.9807550238,go-nogo,001,18,
logos/3.jpg,properties3.xlsx,logos/3.jpg,0,0,400,a,0,3,3,2,0,7,7,83,,,['a'],0,[0.25098475839331513],2018_Jul_09_0517,59.9807550238,go-nogo,001,18,
logos/3.jpg,properties3.xlsx,frogs/ab74.jpg,0,0,400,l,0,3,3,2,0,8,8,72,,,['l'],0,[0.2005006905674236],2018_Jul_09_0517,59.9807550238,go-nogo,001,18,
logos/3.jpg,properties3.xlsx,frogs/ab72.jpg,0,0,400,l,0,3,3,2,0,9,9,70,,,['l'],0,[0.23428347029403085],2018_Jul_09_0517,59.9807550238,go-nogo,001,18,
logos/3.jpg,properties3.xlsx,frogs/ab42.jpg,0,0,400,l,0,3,3,2,0,10,10,41,,,['l'],0,[0.26763517418294214],2018_Jul_09_0517,59.9807550238,go-nogo,001,18,
logos/3.jpg,properties3.xlsx,logos/3.jpg,0,0,400,a,0,3,3,2,0,11,11,84,,,['l'],0,[0.4509236223748303],2018_Jul_09_0517,59.9807550238,go-nogo,001,18,
logos/3.jpg,properties3.xlsx,frogs/ab17.jpg,0,0,400,l,0,3,3,2,0,12,12,16,,,['l'],0,[0.45041891557048075],2018_Jul_09_0517,59.9807550238,go-nogo,001,18,
logos/3.jpg,properties3.xlsx,frogs/ab52.jpg,0,0,400,l,0,3,3,2,0,13,13,51,,,['l'],0,[0.43465564135840395],2018_Jul_09_0517,59.9807550238,go-nogo,001,18,
logos/3.jpg,properties3.xlsx,frogs/ab2.jpg,0,0,400,l,0,3,3,2,0,14,14,1,,,['l'],0,[0.2810427037256886],2018_Jul_09_0517,59.9807550238,go-nogo,001,18,
logos/3.jpg,properties3.xlsx,frogs/ab26.jpg,0,0,400,l,0,3,3,2,0,15,15,25,,,['l'],0,[0.40102012356510386],2018_Jul_09_0517,59.9807550238,go-nogo,001,18,
logos/3.jpg,properties3.xlsx,frogs/ab53.jpg,0,0,400,l,0,3,3,2,0,16,16,52,,,['l'],0,[0.234439657186158],2018_Jul_09_0517,59.9807550238,go-nogo,001,18,
logos/3.jpg,properties3.xlsx,frogs/ab21.jpg,0,0,400,l,0,3,3,2,0,17,17,20,,,['l'],0,[0.20100004239793634],2018_Jul_09_0517,59.9807550238,go-nogo,001,18,
logos/3.jpg,properties3.xlsx,frogs/ab76.jpg,0,0,400,l,0,3,3,2,0,18,18,74,,,['l'],0,[0.2003926984834834],2018_Jul_09_0517,59.9807550238,go-nogo,001,18,
logos/3.jpg,properties3.xlsx,frogs/ab16.jpg,0,0,400,l,0,3,3,2,0,19,19,15,,,['l'],0,[0.1677612393250456],2018_Jul_09_0517,59.9807550238,go-nogo,001,18,
logos/3.jpg,properties3.xlsx,frogs/ab58.jpg,0,0,400,l,0,3,3,2,0,20,20,57,,,['l'],0,[0.6038792362887762],2018_Jul_09_0517,59.9807550238,go-nogo,001,18,
logos/3.jpg,properties3.xlsx,frogs/ab12.jpg,0,0,400,l,0,3,3,2,0,21,21,11,,,['l'],0,[0.25098475839331513],2018_Jul_09_0517,59.9807550238,go-nogo,001,18,
logos/3.jpg,properties3.xlsx,frogs/ab8.jpg,0,0,400,l,0,3,3,2,0,22,22,7,,,['l'],0,[0.31771895729616517],2018_Jul_09_0517,59.9807550238,go-nogo,001,18,
logos/3.jpg,properties3.xlsx,frogs/ab25.jpg,0,0,400,l,0,3,3,2,0,23,23,24,,,['l'],0,[0.3176622837636387],2018_Jul_09_0517,59.9807550238,go-nogo,001,18,
logos/3.jpg,properties3.xlsx,frogs/ab75.jpg,0,0,400,l,0,3,3,2,0,24,24,73,,,['l'],0,[0.350800680971588],2018_Jul_09_0517,59.9807550238,go-nogo,001,18,
logos/3.jpg,properties3.xlsx,frogs/ab60.jpg,0,0,400,l,0,3,3,2,0,25,25,58,,,['l'],0,[0.26807651373383123],2018_Jul_09_0517,59.9807550238,go-nogo,001,18,
logos/3.jpg,properties3.xlsx,frogs/ab19.jpg,0,0,400,l,0,3,3,2,0,26,26,18,,,['l'],0,[0.2676075067865895],2018_Jul_09_0517,59.9807550238,go-nogo,001,18,
logos/3.jpg,properties3.xlsx,frogs/ab69.jpg,0,0,400,l,0,3,3,2,0,27,27,67,,,['l'],0,[0.25099859209149145],2018_Jul_09_0517,59.9807550238,go-nogo,001,18,
logos/3.jpg,properties3.xlsx,frogs/ab45.jpg,0,0,400,l,0,3,3,2,0,28,28,44,,,['l'],0,[0.7678647689244826],2018_Jul_09_0517,59.9807550238,go-nogo,001,18,
logos/3.jpg,properties3.xlsx,frogs/ab68.jpg,0,0,400,l,0,3,3,2,0,29,29,66,,,['l'],0,[0.36770724327652715],2018_Jul_09_0517,59.9807550238,go-nogo,001,18,
logos/3.jpg,properties3.xlsx,frogs/ab57.jpg,0,0,400,l,0,3,3,2,0,30,30,56,,,['l'],0,[0.25113246656837873],2018_Jul_09_0517,59.9807550238,go-nogo,001,18,
logos/3.jpg,properties3.xlsx,frogs/ab80.jpg,0,0,400,l,0,3,3,2,0,31,31,78,,,['l'],0,[0.21836088544660015],2018_Jul_09_0517,59.9807550238,go-nogo,001,18,
logos/3.jpg,properties3.xlsx,frogs/ab41.jpg,0,0,400,l,0,3,3,2,0,32,32,40,,,['l'],0,[0.2010660871383152],2018_Jul_09_0517,59.9807550238,go-nogo,001,18,
logos/3.jpg,properties3.xlsx,frogs/ab34.jpg,0,0,400,l,0,3,3,2,0,33,33,33,,,['l'],0,[0.200958095054375],2018_Jul_09_0517,59.9807550238,go-nogo,001,18,
logos/3.jpg,properties3.xlsx,frogs/ab23.jpg,0,0,400,l,0,3,3,2,0,34,34,22,,,['l'],0,[0.1676242410976556],2018_Jul_09_0517,59.9807550238,go-nogo,001,18,
logos/3.jpg,properties3.xlsx,frogs/ab22.jpg,0,0,400,l,0,3,3,2,0,35,35,21,,,['l'],0,[0.23522148417396238],2018_Jul_09_0517,59.9807550238,go-nogo,001,18,
logos/3.jpg,properties3.xlsx,frogs/ab5.jpg,0,0,400,l,0,3,3,2,0,36,36,4,,,['l'],0,[0.33527302585571306],2018_Jul_09_0517,59.9807550238,go-nogo,001,18,
logos/3.jpg,properties3.xlsx,frogs/ab29.jpg,0,0,400,l,0,3,3,2,0,37,37,28,,,['l'],0,[0.2849857535256888],2018_Jul_09_0517,59.9807550238,go-nogo,001,18,
logos/3.jpg,properties3.xlsx,frogs/ab71.jpg,0,0,400,l,0,3,3,2,0,38,38,69,,,['l'],0,[0.26809704115294153],2018_Jul_09_0517,59.9807550238,go-nogo,001,18,
logos/3.jpg,properties3.xlsx,frogs/ab3.jpg,0,0,400,l,0,3,3,2,0,39,39,2,,,['l'],0,[0.25129177720373264],2018_Jul_09_0517,59.9807550238,go-nogo,001,18,
logos/3.jpg,properties3.xlsx,frogs/ab44.jpg,0,0,400,l,0,3,3,2,0,40,40,43,,,['l'],0,[0.3513803574896883],2018_Jul_09_0517,59.9807550238,go-nogo,001,18,
logos/3.jpg,properties3.xlsx,frogs/ab48.jpg,0,0,400,l,0,3,3,2,0,41,41,47,,,['l'],0,[0.45100885579449823],2018_Jul_09_0517,59.9807550238,go-nogo,001,18,
logos/3.jpg,properties3.xlsx,frogs/ab28.jpg,0,0,400,l,0,3,3,2,0,42,42,27,,,['l'],0,[0.2511744139046641],2018_Jul_09_0517,59.9807550238,go-nogo,001,18,
logos/3.jpg,properties3.xlsx,frogs/ab6.jpg,0,0,400,l,0,3,3,2,0,43,43,5,,,['l'],0,[0.25084374393190956],2018_Jul_09_0517,59.9807550238,go-nogo,001,18,
logos/3.jpg,properties3.xlsx,frogs/ab33.jpg,0,0,400,l,0,3,3,2,0,44,44,32,,,['l'],0,[0.28457788260129746],2018_Jul_09_0517,59.9807550238,go-nogo,001,18,
logos/3.jpg,properties3.xlsx,frogs/ab30.jpg,0,0,400,l,0,3,3,2,0,45,45,29,,,['l'],0,[0.30238765141984913],2018_Jul_09_0517,59.9807550238,go-nogo,001,18,
logos/3.jpg,properties3.xlsx,frogs/ab56.jpg,0,0,400,l,0,3,3,2,0,46,46,55,,,['l'],0,[0.7009382370088133],2018_Jul_09_0517,59.9807550238,go-nogo,001,18,
logos/3.jpg,properties3.xlsx,frogs/ab63.jpg,0,0,400,l,0,3,3,2,0,47,47,61,,,['l'],0,[0.23499032756808447],2018_Jul_09_0517,59.9807550238,go-nogo,001,18,
logos/3.jpg,properties3.xlsx,logos/3.jpg,0,0,400,a,0,3,3,2,0,48,48,89,,,['a'],0,[0.5510715536802309],2018_Jul_09_0517,59.9807550238,go-nogo,001,18,
logos/3.jpg,properties3.xlsx,logos/3.jpg,0,0,400,a,0,3,3,2,0,49,49,81,,,['a'],0,[0.25104009317874443],2018_Jul_09_0517,59.9807550238,go-nogo,001,18,
logos/3.jpg,properties3.xlsx,logos/3.jpg,0,0,400,a,0,3,3,2,0,50,50,87,,,['a'],0,[0.23453515432629501],2018_Jul_09_0517,59.9807550238,go-nogo,001,18,
logos/3.jpg,properties3.xlsx,frogs/ab64.jpg,0,0,400,l,0,3,3,2,0,51,51,62,,,['l'],0,[0.28420928151899716],2018_Jul_09_0517,59.9807550238,go-nogo,001,18,
logos/3.jpg,properties3.xlsx,frogs/ab65.jpg,0,0,400,l,0,3,3,2,0,52,52,63,,,['l'],0,[0.2678212597093079],2018_Jul_09_0517,59.9807550238,go-nogo,001,18,
logos/3.jpg,properties3.xlsx,frogs/ab61.jpg,0,0,400,l,0,3,3,2,0,53,53,59,,,['l'],0,[0.21763439325150102],2018_Jul_09_0517,59.9807550238,go-nogo,001,18,
logos/3.jpg,properties3.xlsx,frogs/ab77.jpg,0,0,400,l,0,3,3,2,0,54,54,75,,,['l'],0,[0.21749828752217581],2018_Jul_09_0517,59.9807550238,go-nogo,001,18,
logos/3.jpg,properties3.xlsx,frogs/ab7.jpg,0,0,400,l,0,3,3,2,0,55,55,6,,,['l'],0,[0.21756210103194462],2018_Jul_09_0517,59.9807550238,go-nogo,001,18,
logos/3.jpg,properties3.xlsx,logos/3.jpg,0,0,400,a,0,3,3,2,0,56,56,88,,,['a'],0,[0.21763216200633906],2018_Jul_09_0517,59.9807550238,go-nogo,001,18,
logos/3.jpg,properties3.xlsx,frogs/ab73.jpg,0,0,400,l,0,3,3,2,0,57,57,71,,,['l'],0,[0.26808231495670043],2018_Jul_09_0517,59.9807550238,go-nogo,001,18,
logos/3.jpg,properties3.xlsx,frogs/ab24.jpg,0,0,400,l,0,3,3,2,0,58,58,23,,,['l'],0,[0.2842583688252489],2018_Jul_09_0517,59.9807550238,go-nogo,001,18,
logos/3.jpg,properties3.xlsx,frogs/ab43.jpg,0,0,400,l,0,3,3,2,0,59,59,42,,,['l'],0,[0.41750765873439377],2018_Jul_09_0517,59.9807550238,go-nogo,001,18,
logos/3.jpg,properties3.xlsx,frogs/ab13.jpg,0,0,400,l,0,3,3,2,0,60,60,12,,,['l'],0,[0.7674546667549293],2018_Jul_09_0517,59.9807550238,go-nogo,001,18,
logos/3.jpg,properties3.xlsx,frogs/ab47.jpg,0,0,400,l,0,3,3,2,0,61,61,46,,,['l'],0,[0.9276403952899273],2018_Jul_09_0517,59.9807550238,go-nogo,001,18,
logos/3.jpg,properties3.xlsx,frogs/ab10.jpg,0,0,400,l,0,3,3,2,0,62,62,9,,,['l'],0,[0.2343820911628427],2018_Jul_09_0517,59.9807550238,go-nogo,001,18,
logos/3.jpg,properties3.xlsx,frogs/ab49.jpg,0,0,400,l,0,3,3,2,0,63,63,48,,,['l'],0,[0.18463254801463336],2018_Jul_09_0517,59.9807550238,go-nogo,001,18,
logos/3.jpg,properties3.xlsx,frogs/ab46.jpg,0,0,400,l,0,3,3,2,0,64,64,45,,,['l'],0,[0.184342486631067],2018_Jul_09_0517,59.9807550238,go-nogo,001,18,
logos/3.jpg,properties3.xlsx,frogs/ab55.jpg,0,0,400,l,0,3,3,2,0,65,65,54,,,['l'],0,[0.13433679696026957],2018_Jul_09_0517,59.9807550238,go-nogo,001,18,
logos/3.jpg,properties3.xlsx,frogs/ab14.jpg,0,0,400,l,0,3,3,2,0,66,66,13,,,['l'],0,[0.21762100579508115],2018_Jul_09_0517,59.9807550238,go-nogo,001,18,
logos/3.jpg,properties3.xlsx,frogs/ab37.jpg,0,0,400,l,0,3,3,2,0,67,67,36,,,['l'],0,[0.18437149276724085],2018_Jul_09_0517,59.9807550238,go-nogo,001,18,
logos/3.jpg,properties3.xlsx,frogs/ab32.jpg,0,0,400,l,0,3,3,2,0,68,68,31,,,['l'],0,[0.1843103567516664],2018_Jul_09_0517,59.9807550238,go-nogo,001,18,
logos/3.jpg,properties3.xlsx,frogs/ab31.jpg,0,0,400,l,0,3,3,2,0,69,69,30,,,['l'],0,[0.1678549514617771],2018_Jul_09_0517,59.9807550238,go-nogo,001,18,
logos/3.jpg,properties3.xlsx,frogs/ab66.jpg,0,0,400,l,0,3,3,2,0,70,70,64,,,['l'],0,[0.368012477105367],2018_Jul_09_0517,59.9807550238,go-nogo,001,18,
logos/3.jpg,properties3.xlsx,frogs/ab38.jpg,0,0,400,l,0,3,3,2,0,71,71,37,,,['l'],0,[0.21798335940547986],2018_Jul_09_0517,59.9807550238,go-nogo,001,18,
logos/3.jpg,properties3.xlsx,logos/3.jpg,0,0,400,a,0,3,3,2,0,72,72,80,,,['a'],0,[0.1178354281000793],2018_Jul_09_0517,59.9807550238,go-nogo,001,18,
logos/3.jpg,properties3.xlsx,frogs/ab39.jpg,0,0,400,l,0,3,3,2,0,73,73,38,,,['l'],0,[0.26807562123576645],2018_Jul_09_0517,59.9807550238,go-nogo,001,18,
logos/3.jpg,properties3.xlsx,frogs/ab79.jpg,0,0,400,l,0,3,3,2,0,74,74,77,,,['l'],0,[0.23453560056805145],2018_Jul_09_0517,59.9807550238,go-nogo,001,18,
logos/3.jpg,properties3.xlsx,frogs/ab15.jpg,0,0,400,l,0,3,3,2,0,75,75,14,,,['l'],0,[0.1844152250996558],2018_Jul_09_0517,59.9807550238,go-nogo,001,18,
logos/3.jpg,properties3.xlsx,frogs/ab62.jpg,0,0,400,l,0,3,3,2,0,76,76,60,,,['l'],0,[0.2510012695711339],2018_Jul_09_0517,59.9807550238,go-nogo,001,18,
logos/3.jpg,properties3.xlsx,frogs/ab50.jpg,0,0,400,l,0,3,3,2,0,77,77,49,,,['l'],0,[0.2511561177234398],2018_Jul_09_0517,59.9807550238,go-nogo,001,18,
logos/3.jpg,properties3.xlsx,frogs/ab67.jpg,0,0,400,l,0,3,3,2,0,78,78,65,,,['l'],0,[0.18448885606630938],2018_Jul_09_0517,59.9807550238,go-nogo,001,18,
logos/3.jpg,properties3.xlsx,frogs/ab54.jpg,0,0,400,l,0,3,3,2,0,79,79,53,,,['l'],0,[0.10119706100522308],2018_Jul_09_0517,59.9807550238,go-nogo,001,18,
logos/3.jpg,properties3.xlsx,frogs/ab51.jpg,0,0,400,l,0,3,3,2,0,80,80,50,,,['l'],0,[0.13454474866011878],2018_Jul_09_0517,59.9807550238,go-nogo,001,18,
logos/3.jpg,properties3.xlsx,logos/3.jpg,0,0,400,a,0,3,3,2,0,81,81,85,,,['a'],0,[1.4673500215285458],2018_Jul_09_0517,59.9807550238,go-nogo,001,18,
logos/3.jpg,properties3.xlsx,frogs/ab1.jpg,0,0,400,l,0,3,3,2,0,82,82,0,,,['l'],0,[1.1007084191442118],2018_Jul_09_0517,59.9807550238,go-nogo,001,18,
logos/3.jpg,properties3.xlsx,frogs/ab70.jpg,0,0,400,l,0,3,3,2,0,83,83,68,,,['l'],0,[0.18430098554381402],2018_Jul_09_0517,59.9807550238,go-nogo,001,18,
logos/3.jpg,properties3.xlsx,frogs/ab36.jpg,0,0,400,l,0,3,3,2,0,84,84,35,,,['l'],0,[0.15103808505955385],2018_Jul_09_0517,59.9807550238,go-nogo,001,18,
logos/3.jpg,properties3.xlsx,frogs/ab78.jpg,0,0,400,l,0,3,3,2,0,85,85,76,,,['l'],0,[0.6175683485053014],2018_Jul_09_0517,59.9807550238,go-nogo,001,18,
logos/3.jpg,properties3.xlsx,frogs/ab27.jpg,0,0,400,l,0,3,3,2,0,86,86,26,,,['l'],0,[0.23431560017343145],2018_Jul_09_0517,59.9807550238,go-nogo,001,18,
logos/3.jpg,properties3.xlsx,frogs/ab35.jpg,0,0,400,l,0,3,3,2,0,87,87,34,,,['l'],0,[0.1840086929150857],2018_Jul_09_0517,59.9807550238,go-nogo,001,18,
logos/3.jpg,properties3.xlsx,frogs/ab4.jpg,0,0,400,l,0,3,3,2,0,88,88,3,,,['l'],0,[0.2509838658879744],2018_Jul_09_0517,59.9807550238,go-nogo,001,18,
logos/3.jpg,properties3.xlsx,logos/3.jpg,0,0,400,a,0,3,3,2,0,89,89,82,,,['a'],0,[0.16760058993531857],2018_Jul_09_0517,59.9807550238,go-nogo,001,18,
logos/3.jpg,properties3.xlsx,,,,,,0,3,3,2,,,,,,,,,,2018_Jul_09_0517,59.9807550238,go-nogo,001,18,
