pix,source,image1,x,y,size,answer,trials_2.thisRepN,trials_2.thisTrialN,trials_2.thisN,trials_2.thisIndex,trials.thisRepN,trials.thisTrialN,trials.thisN,trials.thisIndex,key_resp_3.keys,key_resp_3.rt,key_resp_2.keys,key_resp_2.corr,key_resp_2.rt,date,frameRate,expName,session,participant,
logos/3.jpg,properties3.xlsx,frogs/ab52.jpg,0,0,400,l,0,0,0,2,0,0,0,51,space,7.80943904359,['l'],0,[0.1510086326743476],2018_Jul_09_0525,60.0402160581,go-nogo,001,19,
logos/3.jpg,properties3.xlsx,frogs/ab20.jpg,0,0,400,l,0,0,0,2,0,1,1,19,,,['l'],0,[0.5009199408232234],2018_Jul_09_0525,60.0402160581,go-nogo,001,19,
logos/3.jpg,properties3.xlsx,frogs/ab14.jpg,0,0,400,l,0,0,0,2,0,2,2,13,,,['l'],0,[0.21745812517474405],2018_Jul_09_0525,60.0402160581,go-nogo,001,19,
logos/3.jpg,properties3.xlsx,frogs/ab35.jpg,0,0,400,l,0,0,0,2,0,3,3,34,,,['l'],0,[0.2175750422247802],2018_Jul_09_0525,60.0402160581,go-nogo,001,19,
logos/3.jpg,properties3.xlsx,frogs/ab21.jpg,0,0,400,l,0,0,0,2,0,4,4,20,,,['l'],0,[0.20089383530284977],2018_Jul_09_0525,60.0402160581,go-nogo,001,19,
logos/3.jpg,properties3.xlsx,frogs/ab73.jpg,0,0,400,l,0,0,0,2,0,5,5,71,,,['l'],0,[0.1676394135429291],2018_Jul_09_0525,60.0402160581,go-nogo,001,19,
logos/3.jpg,properties3.xlsx,frogs/ab36.jpg,0,0,400,l,0,0,0,2,0,6,6,35,,,['l'],0,[0.26758608686941443],2018_Jul_09_0525,60.0402160581,go-nogo,001,19,
logos/3.jpg,properties3.xlsx,frogs/ab53.jpg,0,0,400,l,0,0,0,2,0,7,7,52,,,['l'],0,[0.11767165497440146],2018_Jul_09_0525,60.0402160581,go-nogo,001,19,
logos/3.jpg,properties3.xlsx,frogs/ab29.jpg,0,0,400,l,0,0,0,2,0,8,8,28,,,['l'],0,[0.10086103605863173],2018_Jul_09_0525,60.0402160581,go-nogo,001,19,
logos/3.jpg,properties3.xlsx,frogs/ab49.jpg,0,0,400,l,0,0,0,2,0,9,9,48,,,['l'],0,[0.16767288216215093],2018_Jul_09_0525,60.0402160581,go-nogo,001,19,
logos/3.jpg,properties3.xlsx,frogs/ab44.jpg,0,0,400,l,0,0,0,2,0,10,10,43,,,['l'],0,[0.2002820289126248],2018_Jul_09_0525,60.0402160581,go-nogo,001,19,
logos/3.jpg,properties3.xlsx,frogs/ab24.jpg,0,0,400,l,0,0,0,2,0,11,11,23,,,['l'],0,[0.15094972790393513],2018_Jul_09_0525,60.0402160581,go-nogo,001,19,
logos/3.jpg,properties3.xlsx,frogs/ab75.jpg,0,0,400,l,0,0,0,2,0,12,12,73,,,['l'],0,[0.1843661377861281],2018_Jul_09_0525,60.0402160581,go-nogo,001,19,
logos/3.jpg,properties3.xlsx,frogs/ab58.jpg,0,0,400,l,0,0,0,2,0,13,13,57,,,['l'],0,[0.3036358078534249],2018_Jul_09_0525,60.0402160581,go-nogo,001,19,
logos/3.jpg,properties3.xlsx,frogs/ab81.jpg,0,0,400,l,0,0,0,2,0,14,14,79,,,['l'],0,[0.21750498125038575],2018_Jul_09_0525,60.0402160581,go-nogo,001,19,
logos/3.jpg,properties3.xlsx,frogs/ab78.jpg,0,0,400,l,0,0,0,2,0,15,15,76,,,['l'],0,[0.2338461469844333],2018_Jul_09_0525,60.0402160581,go-nogo,001,19,
logos/3.jpg,properties3.xlsx,frogs/ab12.jpg,0,0,400,l,0,0,0,2,0,16,16,11,,,['l'],0,[0.2009353363973787],2018_Jul_09_0525,60.0402160581,go-nogo,001,19,
logos/3.jpg,properties3.xlsx,frogs/ab47.jpg,0,0,400,l,0,0,0,2,0,17,17,46,,,['l'],0,[1.0743878031425993],2018_Jul_09_0525,60.0402160581,go-nogo,001,19,
logos/3.jpg,properties3.xlsx,frogs/ab71.jpg,0,0,400,l,0,0,0,2,0,18,18,69,,,['l'],0,[0.2009522938315058],2018_Jul_09_0525,60.0402160581,go-nogo,001,19,
logos/3.jpg,properties3.xlsx,frogs/ab37.jpg,0,0,400,l,0,0,0,2,0,19,19,36,,,['l'],0,[0.2346632275803131],2018_Jul_09_0525,60.0402160581,go-nogo,001,19,
logos/3.jpg,properties3.xlsx,frogs/ab5.jpg,0,0,400,l,0,0,0,2,0,20,20,4,,,['l'],0,[0.21752506242046366],2018_Jul_09_0525,60.0402160581,go-nogo,001,19,
logos/3.jpg,properties3.xlsx,frogs/ab15.jpg,0,0,400,l,0,0,0,2,0,21,21,14,,,['l'],0,[0.2675392308010487],2018_Jul_09_0525,60.0402160581,go-nogo,001,19,
logos/3.jpg,properties3.xlsx,logos/3.jpg,0,0,400,a,0,0,0,2,0,22,22,80,,,['a'],0,[0.23433077261142898],2018_Jul_09_0525,60.0402160581,go-nogo,001,19,
logos/3.jpg,properties3.xlsx,logos/3.jpg,0,0,400,a,0,0,0,2,0,23,23,89,,,['a'],0,[0.2510110870352946],2018_Jul_09_0525,60.0402160581,go-nogo,001,19,
logos/3.jpg,properties3.xlsx,logos/3.jpg,0,0,400,a,0,0,0,2,0,24,24,87,,,['a'],0,[0.2344164522801293],2018_Jul_09_0525,60.0402160581,go-nogo,001,19,
logos/3.jpg,properties3.xlsx,frogs/ab10.jpg,0,0,400,l,0,0,0,2,0,25,25,9,,,['l'],0,[0.21773836909414968],2018_Jul_09_0525,60.0402160581,go-nogo,001,19,
logos/3.jpg,properties3.xlsx,frogs/ab13.jpg,0,0,400,l,0,0,0,2,0,26,26,12,,,['l'],0,[0.23392781041911803],2018_Jul_09_0525,60.0402160581,go-nogo,001,19,
logos/3.jpg,properties3.xlsx,frogs/ab25.jpg,0,0,400,l,0,0,0,2,0,27,27,24,,,['l'],0,[0.20086706041183788],2018_Jul_09_0525,60.0402160581,go-nogo,001,19,
logos/3.jpg,properties3.xlsx,frogs/ab4.jpg,0,0,400,l,0,0,0,2,0,28,28,3,,,['l'],0,[0.250227921307669],2018_Jul_09_0525,60.0402160581,go-nogo,001,19,
logos/3.jpg,properties3.xlsx,frogs/ab50.jpg,0,0,400,l,0,0,0,2,0,29,29,49,,,['l'],0,[0.31763238512940006],2018_Jul_09_0525,60.0402160581,go-nogo,001,19,
logos/3.jpg,properties3.xlsx,logos/3.jpg,0,0,400,a,0,0,0,2,0,30,30,86,,,['l'],0,[0.7674354780756403],2018_Jul_09_0525,60.0402160581,go-nogo,001,19,
logos/3.jpg,properties3.xlsx,logos/3.jpg,0,0,400,a,0,0,0,2,0,31,31,82,,,['a'],0,[0.28417938287748257],2018_Jul_09_0525,60.0402160581,go-nogo,001,19,
logos/3.jpg,properties3.xlsx,frogs/ab2.jpg,0,0,400,l,0,0,0,2,0,32,32,1,,,['a'],0,[0.1791468179144431],2018_Jul_09_0525,60.0402160581,go-nogo,001,19,
logos/3.jpg,properties3.xlsx,logos/3.jpg,0,0,400,a,0,0,0,2,0,33,33,83,,,['a'],0,[0.3342408535827417],2018_Jul_09_0525,60.0402160581,go-nogo,001,19,
logos/3.jpg,properties3.xlsx,frogs/ab39.jpg,0,0,400,l,0,0,0,2,0,34,34,38,,,['l'],0,[0.034370488712738734],2018_Jul_09_0525,60.0402160581,go-nogo,001,19,
logos/3.jpg,properties3.xlsx,frogs/ab43.jpg,0,0,400,l,0,0,0,2,0,35,35,42,,,['l'],0,[1.1006089057773352],2018_Jul_09_0525,60.0402160581,go-nogo,001,19,
logos/3.jpg,properties3.xlsx,frogs/ab26.jpg,0,0,400,l,0,0,0,2,0,36,36,25,,,['l'],0,[0.25092496112483786],2018_Jul_09_0525,60.0402160581,go-nogo,001,19,
logos/3.jpg,properties3.xlsx,frogs/ab11.jpg,0,0,400,l,0,0,0,2,0,37,37,10,,,['l'],0,[0.23419288189325016],2018_Jul_09_0525,60.0402160581,go-nogo,001,19,
logos/3.jpg,properties3.xlsx,frogs/ab8.jpg,0,0,400,l,0,0,0,2,0,38,38,7,,,['l'],0,[0.26771549887780566],2018_Jul_09_0525,60.0402160581,go-nogo,001,19,
logos/3.jpg,properties3.xlsx,frogs/ab60.jpg,0,0,400,l,0,0,0,2,0,39,39,58,,,['l'],0,[0.2676369591790717],2018_Jul_09_0525,60.0402160581,go-nogo,001,19,
logos/3.jpg,properties3.xlsx,logos/3.jpg,0,0,400,a,0,0,0,2,0,40,40,81,,,['a'],0,[0.2677163913685945],2018_Jul_09_0525,60.0402160581,go-nogo,001,19,
logos/3.jpg,properties3.xlsx,frogs/ab77.jpg,0,0,400,l,0,0,0,2,0,41,41,75,,,['l'],0,[0.28414412926940713],2018_Jul_09_0525,60.0402160581,go-nogo,001,19,
logos/3.jpg,properties3.xlsx,frogs/ab68.jpg,0,0,400,l,0,0,0,2,0,42,42,66,,,['l'],0,[0.38423092455923324],2018_Jul_09_0525,60.0402160581,go-nogo,001,19,
logos/3.jpg,properties3.xlsx,logos/3.jpg,0,0,400,a,0,0,0,2,0,43,43,85,,,['a'],0,[0.23430132022622274],2018_Jul_09_0525,60.0402160581,go-nogo,001,19,
logos/3.jpg,properties3.xlsx,frogs/ab70.jpg,0,0,400,l,0,0,0,2,0,44,44,68,,,['l'],0,[0.1347388666617917],2018_Jul_09_0525,60.0402160581,go-nogo,001,19,
logos/3.jpg,properties3.xlsx,frogs/ab64.jpg,0,0,400,l,0,0,0,2,0,45,45,62,,,['l'],0,[0.13431493080133805],2018_Jul_09_0525,60.0402160581,go-nogo,001,19,
logos/3.jpg,properties3.xlsx,frogs/ab69.jpg,0,0,400,l,0,0,0,2,0,46,46,67,,,['l'],0,[0.13451440377684776],2018_Jul_09_0525,60.0402160581,go-nogo,001,19,
logos/3.jpg,properties3.xlsx,frogs/ab31.jpg,0,0,400,l,0,0,0,2,0,47,47,30,,,['l'],0,[0.23422635051247198],2018_Jul_09_0525,60.0402160581,go-nogo,001,19,
logos/3.jpg,properties3.xlsx,frogs/ab72.jpg,0,0,400,l,0,0,0,2,0,48,48,70,,,['l'],0,[0.1676652959358762],2018_Jul_09_0525,60.0402160581,go-nogo,001,19,
logos/3.jpg,properties3.xlsx,frogs/ab32.jpg,0,0,400,l,0,0,0,2,0,49,49,31,,,['l'],0,[0.21745455518976087],2018_Jul_09_0525,60.0402160581,go-nogo,001,19,
logos/3.jpg,properties3.xlsx,frogs/ab7.jpg,0,0,400,l,0,0,0,2,0,50,50,6,,,['l'],0,[0.15094392666651402],2018_Jul_09_0525,60.0402160581,go-nogo,001,19,
logos/3.jpg,properties3.xlsx,frogs/ab51.jpg,0,0,400,l,0,0,0,2,0,51,51,50,,,['l'],0,[0.21752550866949605],2018_Jul_09_0525,60.0402160581,go-nogo,001,19,
logos/3.jpg,properties3.xlsx,frogs/ab23.jpg,0,0,400,l,0,0,0,2,0,52,52,22,,,['l'],0,[0.16760282118048053],2018_Jul_09_0525,60.0402160581,go-nogo,001,19,
logos/3.jpg,properties3.xlsx,frogs/ab19.jpg,0,0,400,l,0,0,0,2,0,53,53,18,,,['l'],0,[0.16766975841892418],2018_Jul_09_0525,60.0402160581,go-nogo,001,19,
logos/3.jpg,properties3.xlsx,frogs/ab6.jpg,0,0,400,l,0,0,0,2,0,54,54,5,,,['l'],0,[0.20094560010329587],2018_Jul_09_0525,60.0402160581,go-nogo,001,19,
logos/3.jpg,properties3.xlsx,frogs/ab65.jpg,0,0,400,l,0,0,0,2,0,55,55,63,,,['l'],0,[0.15088814563932829],2018_Jul_09_0525,60.0402160581,go-nogo,001,19,
logos/3.jpg,properties3.xlsx,frogs/ab27.jpg,0,0,400,l,0,0,0,2,0,56,56,26,,,['l'],0,[0.23453113809227943],2018_Jul_09_0525,60.0402160581,go-nogo,001,19,
logos/3.jpg,properties3.xlsx,frogs/ab3.jpg,0,0,400,l,0,0,0,2,0,57,57,2,,,['l'],0,[0.20107545835344354],2018_Jul_09_0525,60.0402160581,go-nogo,001,19,
logos/3.jpg,properties3.xlsx,frogs/ab62.jpg,0,0,400,l,0,0,0,2,0,58,58,60,,,['l'],0,[0.21806234534597024],2018_Jul_09_0525,60.0402160581,go-nogo,001,19,
logos/3.jpg,properties3.xlsx,frogs/ab28.jpg,0,0,400,l,0,0,0,2,0,59,59,27,,,['l'],0,[0.2011352556219208],2018_Jul_09_0525,60.0402160581,go-nogo,001,19,
logos/3.jpg,properties3.xlsx,frogs/ab67.jpg,0,0,400,l,0,0,0,2,0,60,60,65,,,['l'],0,[0.2347738971511717],2018_Jul_09_0525,60.0402160581,go-nogo,001,19,
logos/3.jpg,properties3.xlsx,frogs/ab79.jpg,0,0,400,l,0,0,0,2,0,61,61,77,,,['l'],0,[0.18426573192118667],2018_Jul_09_0525,60.0402160581,go-nogo,001,19,
logos/3.jpg,properties3.xlsx,frogs/ab1.jpg,0,0,400,l,0,0,0,2,0,62,62,0,,,['l'],0,[0.26797030663874466],2018_Jul_09_0525,60.0402160581,go-nogo,001,19,
logos/3.jpg,properties3.xlsx,frogs/ab57.jpg,0,0,400,l,0,0,0,2,0,63,63,56,,,['l'],0,[0.21781333880790044],2018_Jul_09_0525,60.0402160581,go-nogo,001,19,
logos/3.jpg,properties3.xlsx,logos/3.jpg,0,0,400,a,0,0,0,2,0,64,64,88,,,['a'],0,[0.20113748686708277],2018_Jul_09_0525,60.0402160581,go-nogo,001,19,
logos/3.jpg,properties3.xlsx,frogs/ab46.jpg,0,0,400,l,0,0,0,2,0,65,65,45,,,['l'],0,[0.20052568047685781],2018_Jul_09_0525,60.0402160581,go-nogo,001,19,
logos/3.jpg,properties3.xlsx,frogs/ab55.jpg,0,0,400,l,0,0,0,2,0,66,66,54,,,['l'],0,[0.20084162425337126],2018_Jul_09_0525,60.0402160581,go-nogo,001,19,
logos/3.jpg,properties3.xlsx,frogs/ab34.jpg,0,0,400,l,0,0,0,2,0,67,67,33,,,['l'],0,[0.2343066752073355],2018_Jul_09_0525,60.0402160581,go-nogo,001,19,
logos/3.jpg,properties3.xlsx,frogs/ab45.jpg,0,0,400,l,0,0,0,2,0,68,68,44,,,['l'],0,[0.2342540179088246],2018_Jul_09_0525,60.0402160581,go-nogo,001,19,
logos/3.jpg,properties3.xlsx,frogs/ab74.jpg,0,0,400,l,0,0,0,2,0,69,69,72,,,['l'],0,[0.2508522226489731],2018_Jul_09_0525,60.0402160581,go-nogo,001,19,
logos/3.jpg,properties3.xlsx,frogs/ab42.jpg,0,0,400,l,0,0,0,2,0,70,70,41,,,['l'],0,[0.2343852148987935],2018_Jul_09_0525,60.0402160581,go-nogo,001,19,
logos/3.jpg,properties3.xlsx,frogs/ab41.jpg,0,0,400,l,0,0,0,2,0,71,71,40,,,['l'],0,[0.18427956562663894],2018_Jul_09_0525,60.0402160581,go-nogo,001,19,
logos/3.jpg,properties3.xlsx,frogs/ab66.jpg,0,0,400,l,0,0,0,2,0,72,72,64,,,['l'],0,[0.3176600525257527],2018_Jul_09_0525,60.0402160581,go-nogo,001,19,
logos/3.jpg,properties3.xlsx,frogs/ab16.jpg,0,0,400,l,0,0,0,2,0,73,73,15,,,['l'],0,[0.4015284003544366],2018_Jul_09_0525,60.0402160581,go-nogo,001,19,
logos/3.jpg,properties3.xlsx,frogs/ab40.jpg,0,0,400,l,0,0,0,2,0,74,74,39,,,['l'],0,[2.083646116188902],2018_Jul_09_0525,60.0402160581,go-nogo,001,19,
logos/3.jpg,properties3.xlsx,frogs/ab61.jpg,0,0,400,l,0,0,0,2,0,75,75,59,,,['l'],0,[0.15100015395728406],2018_Jul_09_0525,60.0402160581,go-nogo,001,19,
logos/3.jpg,properties3.xlsx,frogs/ab33.jpg,0,0,400,l,0,0,0,2,0,76,76,32,,,['l'],0,[0.26782572219963185],2018_Jul_09_0525,60.0402160581,go-nogo,001,19,
logos/3.jpg,properties3.xlsx,frogs/ab18.jpg,0,0,400,l,0,0,0,2,0,77,77,17,,,['l'],0,[0.21790169596351916],2018_Jul_09_0525,60.0402160581,go-nogo,001,19,
logos/3.jpg,properties3.xlsx,frogs/ab56.jpg,0,0,400,l,0,0,0,2,0,78,78,55,,,['l'],0,[1.0761031815272872],2018_Jul_09_0525,60.0402160581,go-nogo,001,19,
logos/3.jpg,properties3.xlsx,frogs/ab9.jpg,0,0,400,l,0,0,0,2,0,79,79,8,,,['l'],0,[1.2176575981575297],2018_Jul_09_0525,60.0402160581,go-nogo,001,19,
logos/3.jpg,properties3.xlsx,frogs/ab30.jpg,0,0,400,l,0,0,0,2,0,80,80,29,,,['l'],0,[0.2342767765658209],2018_Jul_09_0525,60.0402160581,go-nogo,001,19,
logos/3.jpg,properties3.xlsx,frogs/ab38.jpg,0,0,400,l,0,0,0,2,0,81,81,37,,,['l'],0,[0.26767489027406555],2018_Jul_09_0525,60.0402160581,go-nogo,001,19,
logos/3.jpg,properties3.xlsx,frogs/ab63.jpg,0,0,400,l,0,0,0,2,0,82,82,61,,,['l'],0,[0.20095274007326225],2018_Jul_09_0525,60.0402160581,go-nogo,001,19,
logos/3.jpg,properties3.xlsx,frogs/ab17.jpg,0,0,400,l,0,0,0,2,0,83,83,16,,,['l'],0,[0.2343762899399735],2018_Jul_09_0525,60.0402160581,go-nogo,001,19,
logos/3.jpg,properties3.xlsx,frogs/ab48.jpg,0,0,400,l,0,0,0,2,0,84,84,47,,,['l'],0,[0.18428045811742777],2018_Jul_09_0525,60.0402160581,go-nogo,001,19,
logos/3.jpg,properties3.xlsx,logos/3.jpg,0,0,400,a,0,0,0,2,0,85,85,84,,,['a'],0,[0.36792322744440753],2018_Jul_09_0525,60.0402160581,go-nogo,001,19,
logos/3.jpg,properties3.xlsx,frogs/ab22.jpg,0,0,400,l,0,0,0,2,0,86,86,21,,,['l'],0,[0.18457989071612246],2018_Jul_09_0525,60.0402160581,go-nogo,001,19,
logos/3.jpg,properties3.xlsx,frogs/ab54.jpg,0,0,400,l,0,0,0,2,0,87,87,53,,,['l'],0,[0.20115979927504668],2018_Jul_09_0525,60.0402160581,go-nogo,001,19,
logos/3.jpg,properties3.xlsx,frogs/ab80.jpg,0,0,400,l,0,0,0,2,0,88,88,78,,,['l'],0,[0.23477969838131685],2018_Jul_09_0525,60.0402160581,go-nogo,001,19,
logos/3.jpg,properties3.xlsx,frogs/ab76.jpg,0,0,400,l,0,0,0,2,0,89,89,74,,,['l'],0,[0.23442225351027446],2018_Jul_09_0525,60.0402160581,go-nogo,001,19,
logos/3.jpg,properties3.xlsx,,,,,,0,0,0,2,,,,,,,,,,2018_Jul_09_0525,60.0402160581,go-nogo,001,19,
logos/2.jpg,properties2.xlsx,frogs/ab21.jpg,0,0,400,l,0,1,1,1,0,0,0,20,space,5.7822875133,['l'],0,[1.3005781146493973],2018_Jul_09_0525,60.0402160581,go-nogo,001,19,
logos/2.jpg,properties2.xlsx,frogs/ab60.jpg,0,0,400,l,0,1,1,1,0,1,1,58,,,['l'],0,[0.15096311535307905],2018_Jul_09_0525,60.0402160581,go-nogo,001,19,
logos/2.jpg,properties2.xlsx,frogs/ab43.jpg,0,0,400,l,0,1,1,1,0,2,2,42,,,['l'],0,[0.1671110555762425],2018_Jul_09_0525,60.0402160581,go-nogo,001,19,
logos/2.jpg,properties2.xlsx,frogs/ab22.jpg,0,0,400,l,0,1,1,1,0,3,3,21,,,['l'],0,[0.21820425229816465],2018_Jul_09_0525,60.0402160581,go-nogo,001,19,
logos/2.jpg,properties2.xlsx,frogs/ab66.jpg,0,0,400,l,0,1,1,1,0,4,4,64,,,['l'],0,[0.3347866152325878],2018_Jul_09_0525,60.0402160581,go-nogo,001,19,
logos/2.jpg,properties2.xlsx,frogs/ab61.jpg,0,0,400,l,0,1,1,1,0,5,5,59,,,['l'],0,[0.167949109840265],2018_Jul_09_0525,60.0402160581,go-nogo,001,19,
logos/2.jpg,properties2.xlsx,frogs/ab31.jpg,0,0,400,l,0,1,1,1,0,6,6,30,,,['l'],0,[0.15133930264710216],2018_Jul_09_0525,60.0402160581,go-nogo,001,19,
logos/2.jpg,properties2.xlsx,frogs/ab10.jpg,0,0,400,l,0,1,1,1,0,7,7,9,,,['l'],0,[0.20093712138623232],2018_Jul_09_0525,60.0402160581,go-nogo,001,19,
logos/2.jpg,properties2.xlsx,logos/2.jpg,0,0,400,a,0,1,1,1,0,8,8,84,,,['a'],0,[0.1841831759957131],2018_Jul_09_0525,60.0402160581,go-nogo,001,19,
logos/2.jpg,properties2.xlsx,logos/2.jpg,0,0,400,a,0,1,1,1,0,9,9,88,,,['a'],0,[0.18461782181839226],2018_Jul_09_0525,60.0402160581,go-nogo,001,19,
logos/2.jpg,properties2.xlsx,frogs/ab57.jpg,0,0,400,l,0,1,1,1,0,10,10,56,,,['l'],0,[0.18423806453211],2018_Jul_09_0525,60.0402160581,go-nogo,001,19,
logos/2.jpg,properties2.xlsx,frogs/ab39.jpg,0,0,400,l,0,1,1,1,0,11,11,38,,,['l'],0,[0.15100327769323485],2018_Jul_09_0525,60.0402160581,go-nogo,001,19,
logos/2.jpg,properties2.xlsx,frogs/ab19.jpg,0,0,400,l,0,1,1,1,0,12,12,18,,,['l'],0,[0.26782973843364744],2018_Jul_09_0525,60.0402160581,go-nogo,001,19,
logos/2.jpg,properties2.xlsx,frogs/ab32.jpg,0,0,400,l,0,1,1,1,0,13,13,31,,,['l'],0,[0.4175335411346168],2018_Jul_09_0525,60.0402160581,go-nogo,001,19,
logos/2.jpg,properties2.xlsx,frogs/ab51.jpg,0,0,400,l,0,1,1,1,0,14,14,50,,,['l'],0,[1.0004944430984324],2018_Jul_09_0525,60.0402160581,go-nogo,001,19,
logos/2.jpg,properties2.xlsx,frogs/ab25.jpg,0,0,400,l,0,1,1,1,0,15,15,24,,,['l'],0,[0.201173632973223],2018_Jul_09_0525,60.0402160581,go-nogo,001,19,
logos/2.jpg,properties2.xlsx,frogs/ab23.jpg,0,0,400,l,0,1,1,1,0,16,16,22,,,['l'],0,[0.21759378465503687],2018_Jul_09_0525,60.0402160581,go-nogo,001,19,
logos/2.jpg,properties2.xlsx,frogs/ab28.jpg,0,0,400,l,0,1,1,1,0,17,17,27,,,['l'],0,[0.20098174621671205],2018_Jul_09_0525,60.0402160581,go-nogo,001,19,
logos/2.jpg,properties2.xlsx,logos/2.jpg,0,0,400,a,0,1,1,1,0,18,18,86,,,['a'],0,[0.16767109716602135],2018_Jul_09_0525,60.0402160581,go-nogo,001,19,
logos/2.jpg,properties2.xlsx,frogs/ab37.jpg,0,0,400,l,0,1,1,1,0,19,19,36,,,['l'],0,[0.20102413980202982],2018_Jul_09_0525,60.0402160581,go-nogo,001,19,
logos/2.jpg,properties2.xlsx,frogs/ab73.jpg,0,0,400,l,0,1,1,1,0,20,20,71,,,['l'],0,[0.26767265903617954],2018_Jul_09_0525,60.0402160581,go-nogo,001,19,
logos/2.jpg,properties2.xlsx,frogs/ab45.jpg,0,0,400,l,0,1,1,1,0,21,21,44,,,['l'],0,[0.2843618984334171],2018_Jul_09_0525,60.0402160581,go-nogo,001,19,
logos/2.jpg,properties2.xlsx,logos/2.jpg,0,0,400,a,0,1,1,1,0,22,22,82,,,['a'],0,[0.5675412389173289],2018_Jul_09_0525,60.0402160581,go-nogo,001,19,
logos/2.jpg,properties2.xlsx,logos/2.jpg,0,0,400,a,0,1,1,1,0,23,23,89,,,['a'],0,[0.21771784167503938],2018_Jul_09_0525,60.0402160581,go-nogo,001,19,
logos/2.jpg,properties2.xlsx,logos/2.jpg,0,0,400,a,0,1,1,1,0,24,24,81,,,['a'],0,[0.2013133086875314],2018_Jul_09_0525,60.0402160581,go-nogo,001,19,
logos/2.jpg,properties2.xlsx,frogs/ab58.jpg,0,0,400,l,0,1,1,1,0,25,25,57,,,['l'],0,[0.35105682748690015],2018_Jul_09_0525,60.0402160581,go-nogo,001,19,
logos/2.jpg,properties2.xlsx,frogs/ab78.jpg,0,0,400,l,0,1,1,1,0,26,26,76,,,['l'],0,[0.2844868479442084],2018_Jul_09_0525,60.0402160581,go-nogo,001,19,
logos/2.jpg,properties2.xlsx,frogs/ab40.jpg,0,0,400,l,0,1,1,1,0,27,27,39,,,['l'],0,[0.35233488255471457],2018_Jul_09_0525,60.0402160581,go-nogo,001,19,
logos/2.jpg,properties2.xlsx,frogs/ab54.jpg,0,0,400,l,0,1,1,1,0,28,28,53,,,['l'],0,[0.2174465227217297],2018_Jul_09_0525,60.0402160581,go-nogo,001,19,
logos/2.jpg,properties2.xlsx,frogs/ab16.jpg,0,0,400,l,0,1,1,1,0,29,29,15,,,['l'],0,[0.30146659496676875],2018_Jul_09_0525,60.0402160581,go-nogo,001,19,
logos/2.jpg,properties2.xlsx,frogs/ab29.jpg,0,0,400,l,0,1,1,1,0,30,30,28,,,['l'],0,[0.7848306822488667],2018_Jul_09_0525,60.0402160581,go-nogo,001,19,
logos/2.jpg,properties2.xlsx,frogs/ab53.jpg,0,0,400,l,0,1,1,1,0,31,31,52,,,['l'],0,[0.30103953536308836],2018_Jul_09_0525,60.0402160581,go-nogo,001,19,
logos/2.jpg,properties2.xlsx,frogs/ab55.jpg,0,0,400,l,0,1,1,1,0,32,32,54,,,['l'],0,[0.30100874423078494],2018_Jul_09_0525,60.0402160581,go-nogo,001,19,
logos/2.jpg,properties2.xlsx,frogs/ab81.jpg,0,0,400,l,0,1,1,1,0,33,33,79,,,['l'],0,[0.3175841903212131],2018_Jul_09_0525,60.0402160581,go-nogo,001,19,
logos/2.jpg,properties2.xlsx,frogs/ab8.jpg,0,0,400,l,0,1,1,1,0,34,34,7,,,['l'],0,[0.30105827779334504],2018_Jul_09_0525,60.0402160581,go-nogo,001,19,
logos/2.jpg,properties2.xlsx,frogs/ab12.jpg,0,0,400,l,0,1,1,1,0,35,35,11,,,['l'],0,[0.2511172941303812],2018_Jul_09_0525,60.0402160581,go-nogo,001,19,
logos/2.jpg,properties2.xlsx,logos/2.jpg,0,0,400,a,0,1,1,1,0,36,36,85,,,['a'],0,[0.40111160446394933],2018_Jul_09_0525,60.0402160581,go-nogo,001,19,
logos/2.jpg,properties2.xlsx,frogs/ab24.jpg,0,0,400,l,0,1,1,1,0,37,37,23,,,['l'],0,[0.3343617868667934],2018_Jul_09_0525,60.0402160581,go-nogo,001,19,
logos/2.jpg,properties2.xlsx,frogs/ab1.jpg,0,0,400,l,0,1,1,1,0,38,38,0,,,['l'],0,[0.23439056987990625],2018_Jul_09_0525,60.0402160581,go-nogo,001,19,
logos/2.jpg,properties2.xlsx,frogs/ab20.jpg,0,0,400,l,0,1,1,1,0,39,39,19,,,['l'],0,[0.31773769972642185],2018_Jul_09_0525,60.0402160581,go-nogo,001,19,
logos/2.jpg,properties2.xlsx,frogs/ab74.jpg,0,0,400,l,0,1,1,1,0,40,40,72,,,['l'],0,[0.3008895959428628],2018_Jul_09_0525,60.0402160581,go-nogo,001,19,
logos/2.jpg,properties2.xlsx,frogs/ab69.jpg,0,0,400,l,0,1,1,1,0,41,41,67,,,['l'],0,[0.2677088051495957],2018_Jul_09_0525,60.0402160581,go-nogo,001,19,
logos/2.jpg,properties2.xlsx,frogs/ab48.jpg,0,0,400,l,0,1,1,1,0,42,42,47,,,['l'],0,[0.28424721262126695],2018_Jul_09_0525,60.0402160581,go-nogo,001,19,
logos/2.jpg,properties2.xlsx,frogs/ab5.jpg,0,0,400,l,0,1,1,1,0,43,43,4,,,['l'],0,[0.2342134093196364],2018_Jul_09_0525,60.0402160581,go-nogo,001,19,
logos/2.jpg,properties2.xlsx,frogs/ab9.jpg,0,0,400,l,0,1,1,1,0,44,44,8,,,['l'],0,[0.520299164847529],2018_Jul_09_0525,60.0402160581,go-nogo,001,19,
logos/2.jpg,properties2.xlsx,frogs/ab13.jpg,0,0,400,l,0,1,1,1,0,45,45,12,,,['l'],0,[0.2343620099927648],2018_Jul_09_0525,60.0402160581,go-nogo,001,19,
logos/2.jpg,properties2.xlsx,frogs/ab71.jpg,0,0,400,l,0,1,1,1,0,46,46,69,,,['l'],0,[0.2342745453279349],2018_Jul_09_0525,60.0402160581,go-nogo,001,19,
logos/2.jpg,properties2.xlsx,frogs/ab80.jpg,0,0,400,l,0,1,1,1,0,47,47,78,,,['l'],0,[0.2509262998646591],2018_Jul_09_0525,60.0402160581,go-nogo,001,19,
logos/2.jpg,properties2.xlsx,frogs/ab49.jpg,0,0,400,l,0,1,1,1,0,48,48,48,,,['l'],0,[0.33426361224701395],2018_Jul_09_0525,60.0402160581,go-nogo,001,19,
logos/2.jpg,properties2.xlsx,frogs/ab56.jpg,0,0,400,l,0,1,1,1,0,49,49,55,,,['l'],0,[0.35940881028363947],2018_Jul_09_0525,60.0402160581,go-nogo,001,19,
logos/2.jpg,properties2.xlsx,frogs/ab3.jpg,0,0,400,l,0,1,1,1,0,50,50,2,,,['l'],0,[0.28436323718051426],2018_Jul_09_0525,60.0402160581,go-nogo,001,19,
logos/2.jpg,properties2.xlsx,frogs/ab17.jpg,0,0,400,l,0,1,1,1,0,51,51,16,,,['l'],0,[0.301598238213046],2018_Jul_09_0525,60.0402160581,go-nogo,001,19,
logos/2.jpg,properties2.xlsx,logos/2.jpg,0,0,400,a,0,1,1,1,0,52,52,87,,,['a'],0,[0.3531903405164485],2018_Jul_09_0525,60.0402160581,go-nogo,001,19,
logos/2.jpg,properties2.xlsx,frogs/ab34.jpg,0,0,400,l,0,1,1,1,0,53,53,33,,,['l'],0,[0.2676771215192275],2018_Jul_09_0525,60.0402160581,go-nogo,001,19,
logos/2.jpg,properties2.xlsx,frogs/ab2.jpg,0,0,400,l,0,1,1,1,0,54,54,1,,,['l'],0,[1.074079891826841],2018_Jul_09_0525,60.0402160581,go-nogo,001,19,
logos/2.jpg,properties2.xlsx,frogs/ab7.jpg,0,0,400,l,0,1,1,1,0,55,55,6,,,['l'],0,[0.317530194275605],2018_Jul_09_0525,60.0402160581,go-nogo,001,19,
logos/2.jpg,properties2.xlsx,frogs/ab52.jpg,0,0,400,l,0,1,1,1,0,56,56,51,,,['l'],0,[0.2842565838363953],2018_Jul_09_0525,60.0402160581,go-nogo,001,19,
logos/2.jpg,properties2.xlsx,frogs/ab79.jpg,0,0,400,l,0,1,1,1,0,57,57,77,,,['l'],0,[0.2675847481295932],2018_Jul_09_0525,60.0402160581,go-nogo,001,19,
logos/2.jpg,properties2.xlsx,frogs/ab26.jpg,0,0,400,l,0,1,1,1,0,58,58,25,,,['l'],0,[0.3177354684812599],2018_Jul_09_0525,60.0402160581,go-nogo,001,19,
logos/2.jpg,properties2.xlsx,frogs/ab38.jpg,0,0,400,l,0,1,1,1,0,59,59,37,,,['l'],0,[0.334261381001852],2018_Jul_09_0525,60.0402160581,go-nogo,001,19,
logos/2.jpg,properties2.xlsx,frogs/ab44.jpg,0,0,400,l,0,1,1,1,0,60,60,43,,,['l'],0,[1.0672625568695366],2018_Jul_09_0525,60.0402160581,go-nogo,001,19,
logos/2.jpg,properties2.xlsx,frogs/ab63.jpg,0,0,400,l,0,1,1,1,0,61,61,61,,,['l'],0,[0.23383989950525574],2018_Jul_09_0525,60.0402160581,go-nogo,001,19,
logos/2.jpg,properties2.xlsx,frogs/ab64.jpg,0,0,400,l,0,1,1,1,0,62,62,62,,,['l'],0,[0.2176272532742587],2018_Jul_09_0525,60.0402160581,go-nogo,001,19,
logos/2.jpg,properties2.xlsx,logos/2.jpg,0,0,400,a,0,1,1,1,0,63,63,80,,,['a'],0,[0.21765447441430297],2018_Jul_09_0525,60.0402160581,go-nogo,001,19,
logos/2.jpg,properties2.xlsx,frogs/ab14.jpg,0,0,400,l,0,1,1,1,0,64,64,13,,,['l'],0,[0.28430299365572864],2018_Jul_09_0525,60.0402160581,go-nogo,001,19,
logos/2.jpg,properties2.xlsx,frogs/ab41.jpg,0,0,400,l,0,1,1,1,0,65,65,40,,,['l'],0,[0.31752528554352466],2018_Jul_09_0525,60.0402160581,go-nogo,001,19,
logos/2.jpg,properties2.xlsx,frogs/ab77.jpg,0,0,400,l,0,1,1,1,0,66,66,75,,,['l'],0,[0.284238287655171],2018_Jul_09_0525,60.0402160581,go-nogo,001,19,
logos/2.jpg,properties2.xlsx,frogs/ab42.jpg,0,0,400,l,0,1,1,1,0,67,67,41,,,['l'],0,[0.23428748652804643],2018_Jul_09_0525,60.0402160581,go-nogo,001,19,
logos/2.jpg,properties2.xlsx,frogs/ab15.jpg,0,0,400,l,0,1,1,1,0,68,68,14,,,['l'],0,[0.2511199716172996],2018_Jul_09_0525,60.0402160581,go-nogo,001,19,
logos/2.jpg,properties2.xlsx,frogs/ab27.jpg,0,0,400,l,0,1,1,1,0,69,69,26,,,['l'],0,[0.2677306713158032],2018_Jul_09_0525,60.0402160581,go-nogo,001,19,
logos/2.jpg,properties2.xlsx,frogs/ab30.jpg,0,0,400,l,0,1,1,1,0,70,70,29,,,['l'],0,[0.2846809659531573],2018_Jul_09_0525,60.0402160581,go-nogo,001,19,
logos/2.jpg,properties2.xlsx,frogs/ab33.jpg,0,0,400,l,0,1,1,1,0,71,71,32,,,['l'],0,[0.33478304524032865],2018_Jul_09_0525,60.0402160581,go-nogo,001,19,
logos/2.jpg,properties2.xlsx,frogs/ab4.jpg,0,0,400,l,0,1,1,1,0,72,72,3,,,['l'],0,[0.40151010418048827],2018_Jul_09_0525,60.0402160581,go-nogo,001,19,
logos/2.jpg,properties2.xlsx,frogs/ab6.jpg,0,0,400,l,0,1,1,1,0,73,73,5,,,['l'],0,[0.45117887639207765],2018_Jul_09_0525,60.0402160581,go-nogo,001,19,
logos/2.jpg,properties2.xlsx,frogs/ab68.jpg,0,0,400,l,0,1,1,1,0,74,74,66,,,['l'],0,[0.7342868171544978],2018_Jul_09_0525,60.0402160581,go-nogo,001,19,
logos/2.jpg,properties2.xlsx,frogs/ab75.jpg,0,0,400,l,0,1,1,1,0,75,75,73,,,['l'],0,[0.31769887612608727],2018_Jul_09_0525,60.0402160581,go-nogo,001,19,
logos/2.jpg,properties2.xlsx,frogs/ab67.jpg,0,0,400,l,0,1,1,1,0,76,76,65,,,['l'],0,[0.36762067110976204],2018_Jul_09_0525,60.0402160581,go-nogo,001,19,
logos/2.jpg,properties2.xlsx,frogs/ab18.jpg,0,0,400,l,0,1,1,1,0,77,77,17,,,['l'],0,[0.3176863811677322],2018_Jul_09_0525,60.0402160581,go-nogo,001,19,
logos/2.jpg,properties2.xlsx,frogs/ab70.jpg,0,0,400,l,0,1,1,1,0,78,78,68,,,['l'],0,[0.5175774965973687],2018_Jul_09_0525,60.0402160581,go-nogo,001,19,
logos/2.jpg,properties2.xlsx,frogs/ab47.jpg,0,0,400,l,0,1,1,1,0,79,79,46,,,['l'],0,[1.2880224730615737],2018_Jul_09_0525,60.0402160581,go-nogo,001,19,
logos/2.jpg,properties2.xlsx,frogs/ab11.jpg,0,0,400,l,0,1,1,1,0,80,80,10,,,['l'],0,[0.317458348305081],2018_Jul_09_0525,60.0402160581,go-nogo,001,19,
logos/2.jpg,properties2.xlsx,frogs/ab36.jpg,0,0,400,l,0,1,1,1,0,81,81,35,,,['l'],0,[0.23432809511723462],2018_Jul_09_0525,60.0402160581,go-nogo,001,19,
logos/2.jpg,properties2.xlsx,frogs/ab62.jpg,0,0,400,l,0,1,1,1,0,82,82,60,,,['l'],0,[0.28402185723825824],2018_Jul_09_0525,60.0402160581,go-nogo,001,19,
logos/2.jpg,properties2.xlsx,frogs/ab72.jpg,0,0,400,l,0,1,1,1,0,83,83,70,,,['l'],0,[0.28426863253844203],2018_Jul_09_0525,60.0402160581,go-nogo,001,19,
logos/2.jpg,properties2.xlsx,frogs/ab65.jpg,0,0,400,l,0,1,1,1,0,84,84,63,,,['l'],0,[0.3342395148356445],2018_Jul_09_0525,60.0402160581,go-nogo,001,19,
logos/2.jpg,properties2.xlsx,logos/2.jpg,0,0,400,a,0,1,1,1,0,85,85,83,,,['a'],0,[0.2012111178264604],2018_Jul_09_0525,60.0402160581,go-nogo,001,19,
logos/2.jpg,properties2.xlsx,frogs/ab50.jpg,0,0,400,l,0,1,1,1,0,86,86,49,,,['l'],0,[0.2009241801861208],2018_Jul_09_0525,60.0402160581,go-nogo,001,19,
logos/2.jpg,properties2.xlsx,frogs/ab46.jpg,0,0,400,l,0,1,1,1,0,87,87,45,,,['l'],0,[0.40078896695922595],2018_Jul_09_0525,60.0402160581,go-nogo,001,19,
logos/2.jpg,properties2.xlsx,frogs/ab35.jpg,0,0,400,l,0,1,1,1,0,88,88,34,,,['l'],0,[0.3009132470979239],2018_Jul_09_0525,60.0402160581,go-nogo,001,19,
logos/2.jpg,properties2.xlsx,frogs/ab76.jpg,0,0,400,l,0,1,1,1,0,89,89,74,,,['l'],0,[0.2676266954658786],2018_Jul_09_0525,60.0402160581,go-nogo,001,19,
logos/2.jpg,properties2.xlsx,,,,,,0,1,1,1,,,,,,,,,,2018_Jul_09_0525,60.0402160581,go-nogo,001,19,
logos/1.jpg,properties1.xlsx,frogs/ab8.jpg,0,0,400,l,0,2,2,0,0,0,0,7,space,4.38209071782,['l'],0,[0.21769151302578393],2018_Jul_09_0525,60.0402160581,go-nogo,001,19,
logos/1.jpg,properties1.xlsx,frogs/ab34.jpg,0,0,400,l,0,2,2,0,0,1,1,33,,,['l'],0,[0.25097984966123477],2018_Jul_09_0525,60.0402160581,go-nogo,001,19,
logos/1.jpg,properties1.xlsx,frogs/ab70.jpg,0,0,400,l,0,2,2,0,0,2,2,68,,,['l'],0,[0.2009469388431171],2018_Jul_09_0525,60.0402160581,go-nogo,001,19,
logos/1.jpg,properties1.xlsx,frogs/ab5.jpg,0,0,400,l,0,2,2,0,0,3,3,4,,,['l'],0,[0.33413687774009304],2018_Jul_09_0525,60.0402160581,go-nogo,001,19,
logos/1.jpg,properties1.xlsx,frogs/ab38.jpg,0,0,400,l,0,2,2,0,0,4,4,37,,,['l'],0,[0.2176442107083858],2018_Jul_09_0525,60.0402160581,go-nogo,001,19,
logos/1.jpg,properties1.xlsx,frogs/ab79.jpg,0,0,400,l,0,2,2,0,0,5,5,77,,,['l'],0,[0.234263389116677],2018_Jul_09_0525,60.0402160581,go-nogo,001,19,
logos/1.jpg,properties1.xlsx,frogs/ab22.jpg,0,0,400,l,0,2,2,0,0,6,6,21,,,['l'],0,[0.26803724388446426],2018_Jul_09_0525,60.0402160581,go-nogo,001,19,
logos/1.jpg,properties1.xlsx,frogs/ab72.jpg,0,0,400,l,0,2,2,0,0,7,7,70,,,['l'],0,[0.4680363513834891],2018_Jul_09_0525,60.0402160581,go-nogo,001,19,
logos/1.jpg,properties1.xlsx,frogs/ab52.jpg,0,0,400,l,0,2,2,0,0,8,8,51,,,['l'],0,[2.650656765908934],2018_Jul_09_0525,60.0402160581,go-nogo,001,19,
logos/1.jpg,properties1.xlsx,frogs/ab3.jpg,0,0,400,l,0,2,2,0,0,9,9,2,,,['l'],0,[0.18430277053266764],2018_Jul_09_0525,60.0402160581,go-nogo,001,19,
logos/1.jpg,properties1.xlsx,frogs/ab73.jpg,0,0,400,l,0,2,2,0,0,10,10,71,,,['l'],0,[0.23425535664864583],2018_Jul_09_0525,60.0402160581,go-nogo,001,19,
logos/1.jpg,properties1.xlsx,frogs/ab67.jpg,0,0,400,l,0,2,2,0,0,11,11,65,,,['l'],0,[0.2343048902184819],2018_Jul_09_0525,60.0402160581,go-nogo,001,19,
logos/1.jpg,properties1.xlsx,frogs/ab40.jpg,0,0,400,l,0,2,2,0,0,12,12,39,,,['l'],0,[0.23427856156195048],2018_Jul_09_0525,60.0402160581,go-nogo,001,19,
logos/1.jpg,properties1.xlsx,frogs/ab28.jpg,0,0,400,l,0,2,2,0,0,13,13,27,,,['l'],0,[2.2669417043580324],2018_Jul_09_0525,60.0402160581,go-nogo,001,19,
logos/1.jpg,properties1.xlsx,frogs/ab29.jpg,0,0,400,l,0,2,2,0,0,14,14,28,,,['l'],0,[0.24957193633599672],2018_Jul_09_0525,60.0402160581,go-nogo,001,19,
logos/1.jpg,properties1.xlsx,frogs/ab63.jpg,0,0,400,l,0,2,2,0,0,15,15,61,,,['l'],0,[0.2343097989432863],2018_Jul_09_0525,60.0402160581,go-nogo,001,19,
logos/1.jpg,properties1.xlsx,logos/1.jpg,0,0,400,a,0,2,2,0,0,16,16,88,,,['a'],0,[0.3536401587771252],2018_Jul_09_0525,60.0402160581,go-nogo,001,19,
logos/1.jpg,properties1.xlsx,frogs/ab80.jpg,0,0,400,l,0,2,2,0,0,17,17,78,,,['l'],0,[0.26750620843085926],2018_Jul_09_0525,60.0402160581,go-nogo,001,19,
logos/1.jpg,properties1.xlsx,frogs/ab68.jpg,0,0,400,l,0,2,2,0,0,18,18,66,,,['l'],0,[0.21755540730373468],2018_Jul_09_0525,60.0402160581,go-nogo,001,19,
logos/1.jpg,properties1.xlsx,logos/1.jpg,0,0,400,a,0,2,2,0,0,19,19,84,,,['a'],0,[0.2674647073363303],2018_Jul_09_0525,60.0402160581,go-nogo,001,19,
logos/1.jpg,properties1.xlsx,frogs/ab64.jpg,0,0,400,l,0,2,2,0,0,20,20,62,,,['l'],0,[0.20080592439626344],2018_Jul_09_0525,60.0402160581,go-nogo,001,19,
logos/1.jpg,properties1.xlsx,frogs/ab51.jpg,0,0,400,l,0,2,2,0,0,21,21,50,,,['l'],0,[0.8007586220774101],2018_Jul_09_0525,60.0402160581,go-nogo,001,19,
logos/1.jpg,properties1.xlsx,logos/1.jpg,0,0,400,a,0,2,2,0,0,22,22,81,,,['a'],0,[0.4340063501149416],2018_Jul_09_0525,60.0402160581,go-nogo,001,19,
logos/1.jpg,properties1.xlsx,frogs/ab48.jpg,0,0,400,l,0,2,2,0,0,23,23,47,,,['l'],0,[0.28412672558624763],2018_Jul_09_0525,60.0402160581,go-nogo,001,19,
logos/1.jpg,properties1.xlsx,frogs/ab14.jpg,0,0,400,l,0,2,2,0,0,24,24,13,,,['l'],0,[0.5334679515653988],2018_Jul_09_0525,60.0402160581,go-nogo,001,19,
logos/1.jpg,properties1.xlsx,frogs/ab39.jpg,0,0,400,l,0,2,2,0,0,25,25,38,,,['l'],0,[1.3508337033490534],2018_Jul_09_0525,60.0402160581,go-nogo,001,19,
logos/1.jpg,properties1.xlsx,frogs/ab30.jpg,0,0,400,l,0,2,2,0,0,26,26,29,,,['l'],0,[0.21762189829314593],2018_Jul_09_0525,60.0402160581,go-nogo,001,19,
logos/1.jpg,properties1.xlsx,frogs/ab50.jpg,0,0,400,l,0,2,2,0,0,27,27,49,,,['l'],0,[0.3176136426991434],2018_Jul_09_0525,60.0402160581,go-nogo,001,19,
logos/1.jpg,properties1.xlsx,logos/1.jpg,0,0,400,a,0,2,2,0,0,28,28,86,,,['a'],0,[0.8507857316581067],2018_Jul_09_0525,60.0402160581,go-nogo,001,19,
logos/1.jpg,properties1.xlsx,frogs/ab69.jpg,0,0,400,l,0,2,2,0,0,29,29,67,,,['l'],0,[0.10100071176566416],2018_Jul_09_0525,60.0402160581,go-nogo,001,19,
logos/1.jpg,properties1.xlsx,frogs/ab12.jpg,0,0,400,l,0,2,2,0,0,30,30,11,,,['l'],0,[1.1339494534549885],2018_Jul_09_0525,60.0402160581,go-nogo,001,19,
logos/1.jpg,properties1.xlsx,frogs/ab1.jpg,0,0,400,l,0,2,2,0,0,31,31,0,,,['l'],0,[0.9006285407012911],2018_Jul_09_0525,60.0402160581,go-nogo,001,19,
logos/1.jpg,properties1.xlsx,frogs/ab21.jpg,0,0,400,l,0,2,2,0,0,32,32,20,,,['l'],0,[0.23479620956641156],2018_Jul_09_0525,60.0402160581,go-nogo,001,19,
logos/1.jpg,properties1.xlsx,logos/1.jpg,0,0,400,a,0,2,2,0,0,33,33,87,,,['a'],0,[0.28737318181811133],2018_Jul_09_0525,60.0402160581,go-nogo,001,19,
logos/1.jpg,properties1.xlsx,frogs/ab10.jpg,0,0,400,l,0,2,2,0,0,34,34,9,,,['l'],0,[0.21792623961664503],2018_Jul_09_0525,60.0402160581,go-nogo,001,19,
logos/1.jpg,properties1.xlsx,frogs/ab54.jpg,0,0,400,l,0,2,2,0,0,35,35,53,,,['l'],0,[0.21791463717090664],2018_Jul_09_0525,60.0402160581,go-nogo,001,19,
logos/1.jpg,properties1.xlsx,frogs/ab25.jpg,0,0,400,l,0,2,2,0,0,36,36,24,,,['l'],0,[0.21770177673897706],2018_Jul_09_0525,60.0402160581,go-nogo,001,19,
logos/1.jpg,properties1.xlsx,frogs/ab74.jpg,0,0,400,l,0,2,2,0,0,37,37,72,,,['l'],0,[1.2340799810772296],2018_Jul_09_0525,60.0402160581,go-nogo,001,19,
logos/1.jpg,properties1.xlsx,logos/1.jpg,0,0,400,a,0,2,2,0,0,38,38,83,,,['a'],0,[0.18451250722137047],2018_Jul_09_0525,60.0402160581,go-nogo,001,19,
logos/1.jpg,properties1.xlsx,frogs/ab31.jpg,0,0,400,l,0,2,2,0,0,39,39,30,,,['l'],0,[0.20080146191321546],2018_Jul_09_0525,60.0402160581,go-nogo,001,19,
logos/1.jpg,properties1.xlsx,frogs/ab47.jpg,0,0,400,l,0,2,2,0,0,40,40,46,,,['l'],0,[0.2821953630336793],2018_Jul_09_0525,60.0402160581,go-nogo,001,19,
logos/1.jpg,properties1.xlsx,frogs/ab36.jpg,0,0,400,l,0,2,2,0,0,41,41,35,,,['l'],0,[0.2541102813411271],2018_Jul_09_0525,60.0402160581,go-nogo,001,19,
logos/1.jpg,properties1.xlsx,frogs/ab9.jpg,0,0,400,l,0,2,2,0,0,42,42,8,,,['l'],0,[0.8240130661506555],2018_Jul_09_0525,60.0402160581,go-nogo,001,19,
logos/1.jpg,properties1.xlsx,frogs/ab26.jpg,0,0,400,l,0,2,2,0,0,43,43,25,,,['l'],0,[0.20114864307106473],2018_Jul_09_0525,60.0402160581,go-nogo,001,19,
logos/1.jpg,properties1.xlsx,logos/1.jpg,0,0,400,a,0,2,2,0,0,44,44,85,,,['a'],0,[0.6507165631774114],2018_Jul_09_0525,60.0402160581,go-nogo,001,19,
logos/1.jpg,properties1.xlsx,frogs/ab17.jpg,0,0,400,l,0,2,2,0,0,45,45,16,,,['l'],0,[0.30057811464212136],2018_Jul_09_0525,60.0402160581,go-nogo,001,19,
logos/1.jpg,properties1.xlsx,frogs/ab55.jpg,0,0,400,l,0,2,2,0,0,46,46,54,,,['l'],0,[0.3008762084937189],2018_Jul_09_0525,60.0402160581,go-nogo,001,19,
logos/1.jpg,properties1.xlsx,frogs/ab19.jpg,0,0,400,l,0,2,2,0,0,47,47,18,,,['l'],0,[0.25094861227989895],2018_Jul_09_0525,60.0402160581,go-nogo,001,19,
logos/1.jpg,properties1.xlsx,frogs/ab61.jpg,0,0,400,l,0,2,2,0,0,48,48,59,,,['l'],0,[1.500608459529758],2018_Jul_09_0525,60.0402160581,go-nogo,001,19,
logos/1.jpg,properties1.xlsx,frogs/ab41.jpg,0,0,400,l,0,2,2,0,0,49,49,40,,,['l'],0,[0.20067026491597062],2018_Jul_09_0525,60.0402160581,go-nogo,001,19,
logos/1.jpg,properties1.xlsx,frogs/ab13.jpg,0,0,400,l,0,2,2,0,0,50,50,12,,,['l'],0,[0.31758776029892033],2018_Jul_09_0525,60.0402160581,go-nogo,001,19,
logos/1.jpg,properties1.xlsx,frogs/ab66.jpg,0,0,400,l,0,2,2,0,0,51,51,64,,,['l'],0,[0.3009828618305619],2018_Jul_09_0525,60.0402160581,go-nogo,001,19,
logos/1.jpg,properties1.xlsx,frogs/ab43.jpg,0,0,400,l,0,2,2,0,0,52,52,42,,,['l'],0,[0.2342745453279349],2018_Jul_09_0525,60.0402160581,go-nogo,001,19,
logos/1.jpg,properties1.xlsx,frogs/ab76.jpg,0,0,400,l,0,2,2,0,0,53,53,74,,,['l'],0,[0.2995124737499282],2018_Jul_09_0525,60.0402160581,go-nogo,001,19,
logos/1.jpg,properties1.xlsx,frogs/ab16.jpg,0,0,400,l,0,2,2,0,0,54,54,15,,,['l'],0,[0.2839196663844632],2018_Jul_09_0525,60.0402160581,go-nogo,001,19,
logos/1.jpg,properties1.xlsx,frogs/ab46.jpg,0,0,400,l,0,2,2,0,0,55,55,45,,,['l'],0,[0.3841590785814333],2018_Jul_09_0525,60.0402160581,go-nogo,001,19,
logos/1.jpg,properties1.xlsx,frogs/ab42.jpg,0,0,400,l,0,2,2,0,0,56,56,41,,,['l'],0,[0.43424018421501387],2018_Jul_09_0525,60.0402160581,go-nogo,001,19,
logos/1.jpg,properties1.xlsx,frogs/ab53.jpg,0,0,400,l,0,2,2,0,0,57,57,52,,,['l'],0,[0.8171689562950633],2018_Jul_09_0525,60.0402160581,go-nogo,001,19,
logos/1.jpg,properties1.xlsx,frogs/ab7.jpg,0,0,400,l,0,2,2,0,0,58,58,6,,,['l'],0,[0.26757805440138327],2018_Jul_09_0525,60.0402160581,go-nogo,001,19,
logos/1.jpg,properties1.xlsx,frogs/ab81.jpg,0,0,400,l,0,2,2,0,0,59,59,79,,,['l'],0,[0.31765202005772153],2018_Jul_09_0525,60.0402160581,go-nogo,001,19,
logos/1.jpg,properties1.xlsx,frogs/ab45.jpg,0,0,400,l,0,2,2,0,0,60,60,44,,,['l'],0,[0.38424698949529557],2018_Jul_09_0525,60.0402160581,go-nogo,001,19,
logos/1.jpg,properties1.xlsx,frogs/ab35.jpg,0,0,400,l,0,2,2,0,0,61,61,34,,,['l'],0,[1.750333459021931],2018_Jul_09_0525,60.0402160581,go-nogo,001,19,
logos/1.jpg,properties1.xlsx,frogs/ab24.jpg,0,0,400,l,0,2,2,0,0,62,62,23,,,['l'],0,[0.25020917887741234],2018_Jul_09_0525,60.0402160581,go-nogo,001,19,
logos/1.jpg,properties1.xlsx,logos/1.jpg,0,0,400,a,0,2,2,0,0,63,63,89,,,['a'],0,[0.4038319339742884],2018_Jul_09_0525,60.0402160581,go-nogo,001,19,
logos/1.jpg,properties1.xlsx,frogs/ab2.jpg,0,0,400,l,0,2,2,0,0,64,64,1,,,['a'],0,[0.6834988542614155],2018_Jul_09_0525,60.0402160581,go-nogo,001,19,
logos/1.jpg,properties1.xlsx,frogs/ab75.jpg,0,0,400,l,0,2,2,0,0,65,65,73,,,['l'],0,[0.28420928151899716],2018_Jul_09_0525,60.0402160581,go-nogo,001,19,
logos/1.jpg,properties1.xlsx,frogs/ab62.jpg,0,0,400,l,0,2,2,0,0,66,66,60,,,['l'],0,[0.3014710574498167],2018_Jul_09_0525,60.0402160581,go-nogo,001,19,
logos/1.jpg,properties1.xlsx,frogs/ab11.jpg,0,0,400,l,0,2,2,0,0,67,67,10,,,['l'],0,[0.5009837543329922],2018_Jul_09_0525,60.0402160581,go-nogo,001,19,
logos/1.jpg,properties1.xlsx,frogs/ab56.jpg,0,0,400,l,0,2,2,0,0,68,68,55,,,['l'],0,[0.14991175440809457],2018_Jul_09_0525,60.0402160581,go-nogo,001,19,
logos/1.jpg,properties1.xlsx,frogs/ab23.jpg,0,0,400,l,0,2,2,0,0,69,69,22,,,['l'],0,[0.08426283131120726],2018_Jul_09_0525,60.0402160581,go-nogo,001,19,
logos/1.jpg,properties1.xlsx,frogs/ab20.jpg,0,0,400,l,0,2,2,0,0,70,70,19,,,['l'],0,[1.9337763091316447],2018_Jul_09_0525,60.0402160581,go-nogo,001,19,
logos/1.jpg,properties1.xlsx,frogs/ab4.jpg,0,0,400,l,0,2,2,0,0,71,71,3,,,['l'],0,[0.3172544128392474],2018_Jul_09_0525,60.0402160581,go-nogo,001,19,
logos/1.jpg,properties1.xlsx,frogs/ab15.jpg,0,0,400,l,0,2,2,0,0,72,72,14,,,['l'],0,[0.2675490482652094],2018_Jul_09_0525,60.0402160581,go-nogo,001,19,
logos/1.jpg,properties1.xlsx,frogs/ab57.jpg,0,0,400,l,0,2,2,0,0,73,73,56,,,['l'],0,[0.3675760462792823],2018_Jul_09_0525,60.0402160581,go-nogo,001,19,
logos/1.jpg,properties1.xlsx,frogs/ab58.jpg,0,0,400,l,0,2,2,0,0,74,74,57,,,['l'],0,[0.3840390378027223],2018_Jul_09_0525,60.0402160581,go-nogo,001,19,
logos/1.jpg,properties1.xlsx,frogs/ab71.jpg,0,0,400,l,0,2,2,0,0,75,75,69,,,['l'],0,[0.26757403817464365],2018_Jul_09_0525,60.0402160581,go-nogo,001,19,
logos/1.jpg,properties1.xlsx,frogs/ab6.jpg,0,0,400,l,0,2,2,0,0,76,76,5,,,['l'],0,[0.28391074141836725],2018_Jul_09_0525,60.0402160581,go-nogo,001,19,
logos/1.jpg,properties1.xlsx,frogs/ab77.jpg,0,0,400,l,0,2,2,0,0,77,77,75,,,['l'],0,[2.4168204363886616],2018_Jul_09_0525,60.0402160581,go-nogo,001,19,
logos/1.jpg,properties1.xlsx,logos/1.jpg,0,0,400,a,0,2,2,0,0,78,78,82,,,['a'],0,[0.31756053915887605],2018_Jul_09_0525,60.0402160581,go-nogo,001,19,
logos/1.jpg,properties1.xlsx,frogs/ab18.jpg,0,0,400,l,0,2,2,0,0,79,79,17,,,['l'],0,[0.2342026993574109],2018_Jul_09_0525,60.0402160581,go-nogo,001,19,
logos/1.jpg,properties1.xlsx,frogs/ab49.jpg,0,0,400,l,0,2,2,0,0,80,80,48,,,['l'],0,[0.2843302148030489],2018_Jul_09_0525,60.0402160581,go-nogo,001,19,
logos/1.jpg,properties1.xlsx,frogs/ab33.jpg,0,0,400,l,0,2,2,0,0,81,81,32,,,['l'],0,[0.30082310495345155],2018_Jul_09_0525,60.0402160581,go-nogo,001,19,
logos/1.jpg,properties1.xlsx,frogs/ab32.jpg,0,0,400,l,0,2,2,0,0,82,82,31,,,['l'],0,[1.7338039765163558],2018_Jul_09_0525,60.0402160581,go-nogo,001,19,
logos/1.jpg,properties1.xlsx,frogs/ab27.jpg,0,0,400,l,0,2,2,0,0,83,83,26,,,['l'],0,[0.26750397719297325],2018_Jul_09_0525,60.0402160581,go-nogo,001,19,
logos/1.jpg,properties1.xlsx,logos/1.jpg,0,0,400,a,0,2,2,0,0,84,84,80,,,['a'],0,[0.37036777551838895],2018_Jul_09_0525,60.0402160581,go-nogo,001,19,
logos/1.jpg,properties1.xlsx,frogs/ab44.jpg,0,0,400,l,0,2,2,0,0,85,85,43,,,['l'],0,[0.31746013329393463],2018_Jul_09_0525,60.0402160581,go-nogo,001,19,
logos/1.jpg,properties1.xlsx,frogs/ab65.jpg,0,0,400,l,0,2,2,0,0,86,86,63,,,['l'],0,[0.40088044785079546],2018_Jul_09_0525,60.0402160581,go-nogo,001,19,
logos/1.jpg,properties1.xlsx,frogs/ab60.jpg,0,0,400,l,0,2,2,0,0,87,87,58,,,['l'],0,[1.3173275975568686],2018_Jul_09_0525,60.0402160581,go-nogo,001,19,
logos/1.jpg,properties1.xlsx,frogs/ab78.jpg,0,0,400,l,0,2,2,0,0,88,88,76,,,['l'],0,[0.25094816603086656],2018_Jul_09_0525,60.0402160581,go-nogo,001,19,
logos/1.jpg,properties1.xlsx,frogs/ab37.jpg,0,0,400,l,0,2,2,0,0,89,89,36,,,['l'],0,[1.2006287638287176],2018_Jul_09_0525,60.0402160581,go-nogo,001,19,
logos/1.jpg,properties1.xlsx,,,,,,0,2,2,0,,,,,,,,,,2018_Jul_09_0525,60.0402160581,go-nogo,001,19,
logos/4.jpg,properties4.xlsx,frogs/ab55.jpg,0,0,400,l,0,3,3,3,0,0,0,54,space,3.04361853805,['l'],0,[0.05105972810270032],2018_Jul_09_0525,60.0402160581,go-nogo,001,19,
logos/4.jpg,properties4.xlsx,frogs/ab76.jpg,0,0,400,l,0,3,3,3,0,1,1,74,,,['l'],0,[0.21763350074616028],2018_Jul_09_0525,60.0402160581,go-nogo,001,19,
logos/4.jpg,properties4.xlsx,frogs/ab18.jpg,0,0,400,l,0,3,3,3,0,2,2,17,,,['l'],0,[0.33424576231482206],2018_Jul_09_0525,60.0402160581,go-nogo,001,19,
logos/4.jpg,properties4.xlsx,logos/4.jpg,0,0,400,a,0,3,3,3,0,3,3,82,,,['a'],0,[0.2339496765853255],2018_Jul_09_0525,60.0402160581,go-nogo,001,19,
logos/4.jpg,properties4.xlsx,frogs/ab27.jpg,0,0,400,l,0,3,3,3,0,4,4,26,,,['l'],0,[0.2843154886068078],2018_Jul_09_0525,60.0402160581,go-nogo,001,19,
logos/4.jpg,properties4.xlsx,frogs/ab22.jpg,0,0,400,l,0,3,3,3,0,5,5,21,,,['l'],0,[0.25126410980738],2018_Jul_09_0525,60.0402160581,go-nogo,001,19,
logos/4.jpg,properties4.xlsx,frogs/ab77.jpg,0,0,400,l,0,3,3,3,0,6,6,75,,,['l'],0,[0.7172173742292216],2018_Jul_09_0525,60.0402160581,go-nogo,001,19,
logos/4.jpg,properties4.xlsx,frogs/ab10.jpg,0,0,400,l,0,3,3,3,0,7,7,9,,,['l'],0,[0.41843540890840814],2018_Jul_09_0525,60.0402160581,go-nogo,001,19,
logos/4.jpg,properties4.xlsx,frogs/ab24.jpg,0,0,400,l,0,3,3,3,0,8,8,23,,,['l'],0,[0.4351273257925641],2018_Jul_09_0525,60.0402160581,go-nogo,001,19,
logos/4.jpg,properties4.xlsx,frogs/ab80.jpg,0,0,400,l,0,3,3,3,0,9,9,78,,,['l'],0,[0.450698713240854],2018_Jul_09_0525,60.0402160581,go-nogo,001,19,
logos/4.jpg,properties4.xlsx,frogs/ab71.jpg,0,0,400,l,0,3,3,3,0,10,10,69,,,['l'],0,[1.2174750826088712],2018_Jul_09_0525,60.0402160581,go-nogo,001,19,
logos/4.jpg,properties4.xlsx,frogs/ab54.jpg,0,0,400,l,0,3,3,3,0,11,11,53,,,['l'],0,[0.3340958228945965],2018_Jul_09_0525,60.0402160581,go-nogo,001,19,
logos/4.jpg,properties4.xlsx,frogs/ab11.jpg,0,0,400,l,0,3,3,3,0,12,12,10,,,['l'],0,[0.3509457116597332],2018_Jul_09_0525,60.0402160581,go-nogo,001,19,
logos/4.jpg,properties4.xlsx,logos/4.jpg,0,0,400,a,0,3,3,3,0,13,13,86,,,['a'],0,[0.3842130746343173],2018_Jul_09_0525,60.0402160581,go-nogo,001,19,
logos/4.jpg,properties4.xlsx,frogs/ab43.jpg,0,0,400,l,0,3,3,3,0,14,14,42,,,['l'],0,[0.334296188368171],2018_Jul_09_0525,60.0402160581,go-nogo,001,19,
logos/4.jpg,properties4.xlsx,frogs/ab49.jpg,0,0,400,l,0,3,3,3,0,15,15,48,,,['l'],0,[1.4171908224598155],2018_Jul_09_0525,60.0402160581,go-nogo,001,19,
logos/4.jpg,properties4.xlsx,frogs/ab37.jpg,0,0,400,l,0,3,3,3,0,16,16,36,,,['l'],0,[0.7340810966998106],2018_Jul_09_0525,60.0402160581,go-nogo,001,19,
logos/4.jpg,properties4.xlsx,frogs/ab34.jpg,0,0,400,l,0,3,3,3,0,17,17,33,,,['l'],0,[0.31750922060746234],2018_Jul_09_0525,60.0402160581,go-nogo,001,19,
logos/4.jpg,properties4.xlsx,frogs/ab70.jpg,0,0,400,l,0,3,3,3,0,18,18,68,,,['l'],0,[1.1339989870175486],2018_Jul_09_0525,60.0402160581,go-nogo,001,19,
logos/4.jpg,properties4.xlsx,frogs/ab19.jpg,0,0,400,l,0,3,3,3,0,19,19,18,,,['l'],0,[1.9671204267942812],2018_Jul_09_0525,60.0402160581,go-nogo,001,19,
logos/4.jpg,properties4.xlsx,frogs/ab30.jpg,0,0,400,l,0,3,3,3,0,20,20,29,,,['l'],0,[0.23506083479878725],2018_Jul_09_0525,60.0402160581,go-nogo,001,19,
logos/4.jpg,properties4.xlsx,logos/4.jpg,0,0,400,a,0,3,3,3,0,21,21,84,,,['a'],0,[0.2674080338110798],2018_Jul_09_0525,60.0402160581,go-nogo,001,19,
logos/4.jpg,properties4.xlsx,frogs/ab38.jpg,0,0,400,l,0,3,3,3,0,22,22,37,,,['l'],0,[0.2510012695711339],2018_Jul_09_0525,60.0402160581,go-nogo,001,19,
logos/4.jpg,properties4.xlsx,frogs/ab79.jpg,0,0,400,l,0,3,3,3,0,23,23,77,,,['l'],0,[0.2509704784461064],2018_Jul_09_0525,60.0402160581,go-nogo,001,19,
logos/4.jpg,properties4.xlsx,frogs/ab28.jpg,0,0,400,l,0,3,3,3,0,24,24,27,,,['l'],0,[0.23410497098666383],2018_Jul_09_0525,60.0402160581,go-nogo,001,19,
logos/4.jpg,properties4.xlsx,frogs/ab45.jpg,0,0,400,l,0,3,3,3,0,25,25,44,,,['l'],0,[0.2344512596464483],2018_Jul_09_0525,60.0402160581,go-nogo,001,19,
logos/4.jpg,properties4.xlsx,frogs/ab29.jpg,0,0,400,l,0,3,3,3,0,26,26,28,,,['l'],0,[0.8673308328579878],2018_Jul_09_0525,60.0402160581,go-nogo,001,19,
logos/4.jpg,properties4.xlsx,frogs/ab50.jpg,0,0,400,l,0,3,3,3,0,27,27,49,,,['l'],0,[0.26766864280216396],2018_Jul_09_0525,60.0402160581,go-nogo,001,19,
logos/4.jpg,properties4.xlsx,frogs/ab31.jpg,0,0,400,l,0,3,3,3,0,28,28,30,,,['l'],0,[0.20098308495653328],2018_Jul_09_0525,60.0402160581,go-nogo,001,19,
logos/4.jpg,properties4.xlsx,frogs/ab44.jpg,0,0,400,l,0,3,3,3,0,29,29,43,,,['l'],0,[0.43426472786813974],2018_Jul_09_0525,60.0402160581,go-nogo,001,19,
logos/4.jpg,properties4.xlsx,frogs/ab51.jpg,0,0,400,l,0,3,3,3,0,30,30,50,,,['l'],0,[0.250944149796851],2018_Jul_09_0525,60.0402160581,go-nogo,001,19,
logos/4.jpg,properties4.xlsx,frogs/ab63.jpg,0,0,400,l,0,3,3,3,0,31,31,61,,,['l'],0,[0.23431961640017107],2018_Jul_09_0525,60.0402160581,go-nogo,001,19,
logos/4.jpg,properties4.xlsx,frogs/ab3.jpg,0,0,400,l,0,3,3,3,0,32,32,2,,,['l'],0,[0.25105214188079117],2018_Jul_09_0525,60.0402160581,go-nogo,001,19,
logos/4.jpg,properties4.xlsx,frogs/ab81.jpg,0,0,400,l,0,3,3,3,0,33,33,79,,,['l'],0,[0.3178278418708942],2018_Jul_09_0525,60.0402160581,go-nogo,001,19,
logos/4.jpg,properties4.xlsx,frogs/ab48.jpg,0,0,400,l,0,3,3,3,0,34,34,47,,,['l'],0,[0.30158574326196685],2018_Jul_09_0525,60.0402160581,go-nogo,001,19,
logos/4.jpg,properties4.xlsx,frogs/ab64.jpg,0,0,400,l,0,3,3,3,0,35,35,62,,,['l'],0,[0.2509575372459949],2018_Jul_09_0525,60.0402160581,go-nogo,001,19,
logos/4.jpg,properties4.xlsx,frogs/ab7.jpg,0,0,400,l,0,3,3,3,0,36,36,6,,,['l'],0,[0.25101733451447217],2018_Jul_09_0525,60.0402160581,go-nogo,001,19,
logos/4.jpg,properties4.xlsx,frogs/ab20.jpg,0,0,400,l,0,3,3,3,0,37,37,19,,,['l'],0,[0.2676713202963583],2018_Jul_09_0525,60.0402160581,go-nogo,001,19,
logos/4.jpg,properties4.xlsx,frogs/ab16.jpg,0,0,400,l,0,3,3,3,0,38,38,15,,,['l'],0,[0.25092719236272387],2018_Jul_09_0525,60.0402160581,go-nogo,001,19,
logos/4.jpg,properties4.xlsx,frogs/ab74.jpg,0,0,400,l,0,3,3,3,0,39,39,72,,,['l'],0,[0.3346286433370551],2018_Jul_09_0525,60.0402160581,go-nogo,001,19,
logos/4.jpg,properties4.xlsx,frogs/ab33.jpg,0,0,400,l,0,3,3,3,0,40,40,32,,,['l'],0,[0.30121624968160177],2018_Jul_09_0525,60.0402160581,go-nogo,001,19,
logos/4.jpg,properties4.xlsx,frogs/ab40.jpg,0,0,400,l,0,3,3,3,0,41,41,39,,,['l'],0,[0.25115924146666657],2018_Jul_09_0525,60.0402160581,go-nogo,001,19,
logos/4.jpg,properties4.xlsx,frogs/ab14.jpg,0,0,400,l,0,3,3,3,0,42,42,13,,,['l'],0,[0.28448193921212805],2018_Jul_09_0525,60.0402160581,go-nogo,001,19,
logos/4.jpg,properties4.xlsx,logos/4.jpg,0,0,400,a,0,3,3,3,0,43,43,85,,,['a'],0,[0.2011004482556018],2018_Jul_09_0525,60.0402160581,go-nogo,001,19,
logos/4.jpg,properties4.xlsx,frogs/ab39.jpg,0,0,400,l,0,3,3,3,0,44,44,38,,,['l'],0,[0.20040876341954572],2018_Jul_09_0525,60.0402160581,go-nogo,001,19,
logos/4.jpg,properties4.xlsx,frogs/ab35.jpg,0,0,400,l,0,3,3,3,0,45,45,34,,,['l'],0,[0.23426472787105013],2018_Jul_09_0525,60.0402160581,go-nogo,001,19,
logos/4.jpg,properties4.xlsx,frogs/ab67.jpg,0,0,400,l,0,3,3,3,0,46,46,65,,,['l'],0,[0.2177316753732157],2018_Jul_09_0525,60.0402160581,go-nogo,001,19,
logos/4.jpg,properties4.xlsx,frogs/ab62.jpg,0,0,400,l,0,3,3,3,0,47,47,60,,,['l'],0,[0.26809927239082754],2018_Jul_09_0525,60.0402160581,go-nogo,001,19,
logos/4.jpg,properties4.xlsx,logos/4.jpg,0,0,400,a,0,3,3,3,0,48,48,88,,,['a'],0,[0.1677701642838656],2018_Jul_09_0525,60.0402160581,go-nogo,001,19,
logos/4.jpg,properties4.xlsx,frogs/ab1.jpg,0,0,400,l,0,3,3,3,0,49,49,0,,,['l'],0,[0.13439793298311997],2018_Jul_09_0525,60.0402160581,go-nogo,001,19,
logos/4.jpg,properties4.xlsx,frogs/ab73.jpg,0,0,400,l,0,3,3,3,0,50,50,71,,,['l'],0,[0.23442493100446882],2018_Jul_09_0525,60.0402160581,go-nogo,001,19,
logos/4.jpg,properties4.xlsx,frogs/ab52.jpg,0,0,400,l,0,3,3,3,0,51,51,51,,,['l'],0,[0.30148489114799304],2018_Jul_09_0525,60.0402160581,go-nogo,001,19,
logos/4.jpg,properties4.xlsx,frogs/ab41.jpg,0,0,400,l,0,3,3,3,0,52,52,40,,,['l'],0,[0.23439503236295423],2018_Jul_09_0525,60.0402160581,go-nogo,001,19,
logos/4.jpg,properties4.xlsx,frogs/ab42.jpg,0,0,400,l,0,3,3,3,0,53,53,41,,,['l'],0,[0.23330707906279713],2018_Jul_09_0525,60.0402160581,go-nogo,001,19,
logos/4.jpg,properties4.xlsx,frogs/ab2.jpg,0,0,400,l,0,3,3,3,0,54,54,1,,,['l'],0,[1.0486160725267837],2018_Jul_09_0525,60.0402160581,go-nogo,001,19,
logos/4.jpg,properties4.xlsx,frogs/ab75.jpg,0,0,400,l,0,3,3,3,0,55,55,73,,,['l'],0,[0.21770534672396025],2018_Jul_09_0525,60.0402160581,go-nogo,001,19,
logos/4.jpg,properties4.xlsx,frogs/ab21.jpg,0,0,400,l,0,3,3,3,0,56,56,20,,,['l'],0,[0.18438532646541717],2018_Jul_09_0525,60.0402160581,go-nogo,001,19,
logos/4.jpg,properties4.xlsx,frogs/ab60.jpg,0,0,400,l,0,3,3,3,0,57,57,58,,,['l'],0,[0.2505898286617594],2018_Jul_09_0525,60.0402160581,go-nogo,001,19,
logos/4.jpg,properties4.xlsx,logos/4.jpg,0,0,400,a,0,3,3,3,0,58,58,83,,,['a'],0,[0.2512056512932759],2018_Jul_09_0525,60.0402160581,go-nogo,001,19,
logos/4.jpg,properties4.xlsx,frogs/ab32.jpg,0,0,400,l,0,3,3,3,0,59,59,31,,,['l'],0,[0.1843273141857935],2018_Jul_09_0525,60.0402160581,go-nogo,001,19,
logos/4.jpg,properties4.xlsx,frogs/ab15.jpg,0,0,400,l,0,3,3,3,0,60,60,14,,,['l'],0,[0.21828145324980142],2018_Jul_09_0525,60.0402160581,go-nogo,001,19,
logos/4.jpg,properties4.xlsx,frogs/ab66.jpg,0,0,400,l,0,3,3,3,0,61,61,64,,,['l'],0,[0.25092585362290265],2018_Jul_09_0525,60.0402160581,go-nogo,001,19,
logos/4.jpg,properties4.xlsx,frogs/ab26.jpg,0,0,400,l,0,3,3,3,0,62,62,25,,,['l'],0,[0.2176205595533247],2018_Jul_09_0525,60.0402160581,go-nogo,001,19,
logos/4.jpg,properties4.xlsx,frogs/ab56.jpg,0,0,400,l,0,3,3,3,0,63,63,55,,,['l'],0,[0.4959384712856263],2018_Jul_09_0525,60.0402160581,go-nogo,001,19,
logos/4.jpg,properties4.xlsx,logos/4.jpg,0,0,400,a,0,3,3,3,0,64,64,81,,,['a'],0,[0.2510619593449519],2018_Jul_09_0525,60.0402160581,go-nogo,001,19,
logos/4.jpg,properties4.xlsx,frogs/ab25.jpg,0,0,400,l,0,3,3,3,0,65,65,24,,,['l'],0,[0.2509530747629469],2018_Jul_09_0525,60.0402160581,go-nogo,001,19,
logos/4.jpg,properties4.xlsx,frogs/ab69.jpg,0,0,400,l,0,3,3,3,0,66,66,67,,,['l'],0,[0.2343272026264458],2018_Jul_09_0525,60.0402160581,go-nogo,001,19,
logos/4.jpg,properties4.xlsx,frogs/ab13.jpg,0,0,400,l,0,3,3,3,0,67,67,12,,,['l'],0,[0.21756968724366743],2018_Jul_09_0525,60.0402160581,go-nogo,001,19,
logos/4.jpg,properties4.xlsx,frogs/ab65.jpg,0,0,400,l,0,3,3,3,0,68,68,63,,,['l'],0,[0.23426740535796853],2018_Jul_09_0525,60.0402160581,go-nogo,001,19,
logos/4.jpg,properties4.xlsx,frogs/ab9.jpg,0,0,400,l,0,3,3,3,0,69,69,8,,,['l'],0,[1.3866045191534795],2018_Jul_09_0525,60.0402160581,go-nogo,001,19,
logos/4.jpg,properties4.xlsx,logos/4.jpg,0,0,400,a,0,3,3,3,0,70,70,89,,,['a'],0,[0.20100405862467596],2018_Jul_09_0525,60.0402160581,go-nogo,001,19,
logos/4.jpg,properties4.xlsx,logos/4.jpg,0,0,400,a,0,3,3,3,0,71,71,87,,,['a'],0,[0.23432095514726825],2018_Jul_09_0525,60.0402160581,go-nogo,001,19,
logos/4.jpg,properties4.xlsx,frogs/ab46.jpg,0,0,400,l,0,3,3,3,0,72,72,45,,,['l'],0,[0.1508671719711856],2018_Jul_09_0525,60.0402160581,go-nogo,001,19,
logos/4.jpg,properties4.xlsx,logos/4.jpg,0,0,400,a,0,3,3,3,0,73,73,80,,,['a'],0,[0.2512101137690479],2018_Jul_09_0525,60.0402160581,go-nogo,001,19,
logos/4.jpg,properties4.xlsx,frogs/ab78.jpg,0,0,400,l,0,3,3,3,0,74,74,76,,,['l'],0,[0.16797142225550488],2018_Jul_09_0525,60.0402160581,go-nogo,001,19,
logos/4.jpg,properties4.xlsx,frogs/ab17.jpg,0,0,400,l,0,3,3,3,0,75,75,16,,,['l'],0,[0.20096345003548777],2018_Jul_09_0525,60.0402160581,go-nogo,001,19,
logos/4.jpg,properties4.xlsx,frogs/ab4.jpg,0,0,400,l,0,3,3,3,0,76,76,3,,,['l'],0,[0.21768749679176835],2018_Jul_09_0525,60.0402160581,go-nogo,001,19,
logos/4.jpg,properties4.xlsx,frogs/ab23.jpg,0,0,400,l,0,3,3,3,0,77,77,22,,,['l'],0,[0.16768046838842565],2018_Jul_09_0525,60.0402160581,go-nogo,001,19,
logos/4.jpg,properties4.xlsx,frogs/ab53.jpg,0,0,400,l,0,3,3,3,0,78,78,52,,,['l'],0,[0.2508888150114217],2018_Jul_09_0525,60.0402160581,go-nogo,001,19,
logos/4.jpg,properties4.xlsx,frogs/ab47.jpg,0,0,400,l,0,3,3,3,0,79,79,46,,,['l'],0,[0.4634190204378683],2018_Jul_09_0525,60.0402160581,go-nogo,001,19,
logos/4.jpg,properties4.xlsx,frogs/ab8.jpg,0,0,400,l,0,3,3,3,0,80,80,7,,,['l'],0,[0.18433891663880786],2018_Jul_09_0525,60.0402160581,go-nogo,001,19,
logos/4.jpg,properties4.xlsx,frogs/ab5.jpg,0,0,400,l,0,3,3,3,0,81,81,4,,,['l'],0,[0.2175375573715428],2018_Jul_09_0525,60.0402160581,go-nogo,001,19,
logos/4.jpg,properties4.xlsx,frogs/ab61.jpg,0,0,400,l,0,3,3,3,0,82,82,59,,,['l'],0,[0.20103440351522295],2018_Jul_09_0525,60.0402160581,go-nogo,001,19,
logos/4.jpg,properties4.xlsx,frogs/ab68.jpg,0,0,400,l,0,3,3,3,0,83,83,66,,,['l'],0,[0.18454106711578788],2018_Jul_09_0525,60.0402160581,go-nogo,001,19,
logos/4.jpg,properties4.xlsx,frogs/ab58.jpg,0,0,400,l,0,3,3,3,0,84,84,57,,,['l'],0,[0.2869853920637979],2018_Jul_09_0525,60.0402160581,go-nogo,001,19,
logos/4.jpg,properties4.xlsx,frogs/ab6.jpg,0,0,400,l,0,3,3,3,0,85,85,5,,,['l'],0,[0.26758251688443124],2018_Jul_09_0525,60.0402160581,go-nogo,001,19,
logos/4.jpg,properties4.xlsx,frogs/ab57.jpg,0,0,400,l,0,3,3,3,0,86,86,56,,,['l'],0,[0.28484697030944517],2018_Jul_09_0525,60.0402160581,go-nogo,001,19,
logos/4.jpg,properties4.xlsx,frogs/ab36.jpg,0,0,400,l,0,3,3,3,0,87,87,35,,,['l'],0,[0.3176377401105128],2018_Jul_09_0525,60.0402160581,go-nogo,001,19,
logos/4.jpg,properties4.xlsx,frogs/ab12.jpg,0,0,400,l,0,3,3,3,0,88,88,11,,,['l'],0,[0.21787492106523132],2018_Jul_09_0525,60.0402160581,go-nogo,001,19,
logos/4.jpg,properties4.xlsx,frogs/ab72.jpg,0,0,400,l,0,3,3,3,0,89,89,70,,,['l'],0,[0.20112052943295566],2018_Jul_09_0525,60.0402160581,go-nogo,001,19,
logos/4.jpg,properties4.xlsx,,,,,,0,3,3,3,,,,,,,,,,2018_Jul_09_0525,60.0402160581,go-nogo,001,19,
