pix,source,image1,x,y,size,answer,trials_2.thisRepN,trials_2.thisTrialN,trials_2.thisN,trials_2.thisIndex,trials.thisRepN,trials.thisTrialN,trials.thisN,trials.thisIndex,key_resp_3.keys,key_resp_3.rt,key_resp_2.keys,key_resp_2.corr,key_resp_2.rt,date,frameRate,expName,session,participant,
logos/4.jpg,properties4.xlsx,frogs/ab60.jpg,0,0,400,l,0,0,0,3,0,0,0,58,space,54.4101498967,['l'],0,[21.35516218751627],2018_Jul_09_1044,60.0611952028,go-nogo,001,1,
logos/4.jpg,properties4.xlsx,frogs/ab28.jpg,0,0,400,l,0,0,0,3,0,1,1,27,,,['l'],0,[1.9995022217972291],2018_Jul_09_1044,60.0611952028,go-nogo,001,1,
logos/4.jpg,properties4.xlsx,frogs/ab15.jpg,0,0,400,l,0,0,0,3,0,2,2,14,,,['l'],0,[1.0832279465766987],2018_Jul_09_1044,60.0611952028,go-nogo,001,1,
logos/4.jpg,properties4.xlsx,frogs/ab64.jpg,0,0,400,l,0,0,0,3,0,3,3,62,,,['l'],0,[1.3998410523088296],2018_Jul_09_1044,60.0611952028,go-nogo,001,1,
logos/4.jpg,properties4.xlsx,frogs/ab75.jpg,0,0,400,l,0,0,0,3,0,4,4,73,,,['l'],0,[1.2663227161510804],2018_Jul_09_1044,60.0611952028,go-nogo,001,1,
logos/4.jpg,properties4.xlsx,frogs/ab18.jpg,0,0,400,l,0,0,0,3,0,5,5,17,,,['l'],0,[1.3330978131323263],2018_Jul_09_1044,60.0611952028,go-nogo,001,1,
logos/4.jpg,properties4.xlsx,frogs/ab54.jpg,0,0,400,l,0,0,0,3,0,6,6,53,,,['l'],0,[1.2333163235409756],2018_Jul_09_1044,60.0611952028,go-nogo,001,1,
logos/4.jpg,properties4.xlsx,frogs/ab51.jpg,0,0,400,l,0,0,0,3,0,7,7,50,,,['l'],0,[1.0831704887500564],2018_Jul_09_1044,60.0611952028,go-nogo,001,1,
logos/4.jpg,properties4.xlsx,logos/4.jpg,0,0,400,a,0,0,0,3,0,8,8,80,,,['a'],0,[0.9832934257437955],2018_Jul_09_1044,60.0611952028,go-nogo,001,1,
logos/4.jpg,properties4.xlsx,frogs/ab27.jpg,0,0,400,l,0,0,0,3,0,9,9,26,,,['l'],0,[0.7166032070570054],2018_Jul_09_1044,60.0611952028,go-nogo,001,1,
logos/4.jpg,properties4.xlsx,frogs/ab44.jpg,0,0,400,l,0,0,0,3,0,10,10,43,,,['l'],0,[0.6335817673232214],2018_Jul_09_1044,60.0611952028,go-nogo,001,1,
logos/4.jpg,properties4.xlsx,logos/4.jpg,0,0,400,a,0,0,0,3,0,11,11,86,,,['a'],0,[1.3664512282605301],2018_Jul_09_1044,60.0611952028,go-nogo,001,1,
logos/4.jpg,properties4.xlsx,frogs/ab42.jpg,0,0,400,l,0,0,0,3,0,12,12,41,,,['l'],0,[0.8999864035440623],2018_Jul_09_1044,60.0611952028,go-nogo,001,1,
logos/4.jpg,properties4.xlsx,frogs/ab16.jpg,0,0,400,l,0,0,0,3,0,13,13,15,,,['l'],0,[1.3832522381528634],2018_Jul_09_1044,60.0611952028,go-nogo,001,1,
logos/4.jpg,properties4.xlsx,frogs/ab78.jpg,0,0,400,l,0,0,0,3,0,14,14,76,,,['l'],0,[1.4330488317573327],2018_Jul_09_1044,60.0611952028,go-nogo,001,1,
logos/4.jpg,properties4.xlsx,frogs/ab24.jpg,0,0,400,l,0,0,0,3,0,15,15,23,,,['l'],0,[0.9499411483941458],2018_Jul_09_1044,60.0611952028,go-nogo,001,1,
logos/4.jpg,properties4.xlsx,frogs/ab1.jpg,0,0,400,l,0,0,0,3,0,16,16,0,,,['l'],0,[0.9499712995309437],2018_Jul_09_1044,60.0611952028,go-nogo,001,1,
logos/4.jpg,properties4.xlsx,frogs/ab40.jpg,0,0,400,l,0,0,0,3,0,17,17,39,,,['l'],0,[0.9499809706505857],2018_Jul_09_1044,60.0611952028,go-nogo,001,1,
logos/4.jpg,properties4.xlsx,frogs/ab6.jpg,0,0,400,l,0,0,0,3,0,18,18,5,,,['l'],0,[0.9167896889939584],2018_Jul_09_1044,60.0611952028,go-nogo,001,1,
logos/4.jpg,properties4.xlsx,frogs/ab46.jpg,0,0,400,l,0,0,0,3,0,19,19,45,,,['l'],0,[0.8666489173181162],2018_Jul_09_1044,60.0611952028,go-nogo,001,1,
logos/4.jpg,properties4.xlsx,frogs/ab53.jpg,0,0,400,l,0,0,0,3,0,20,20,52,,,['l'],0,[0.76680143655949],2018_Jul_09_1044,60.0611952028,go-nogo,001,1,
logos/4.jpg,properties4.xlsx,frogs/ab8.jpg,0,0,400,l,0,0,0,3,0,21,21,7,,,['l'],0,[0.7167442916218079],2018_Jul_09_1044,60.0611952028,go-nogo,001,1,
logos/4.jpg,properties4.xlsx,frogs/ab20.jpg,0,0,400,l,0,0,0,3,0,22,22,19,,,['l'],0,[0.8999386168366073],2018_Jul_09_1044,60.0611952028,go-nogo,001,1,
logos/4.jpg,properties4.xlsx,frogs/ab45.jpg,0,0,400,l,0,0,0,3,0,23,23,44,,,['l'],0,[0.833449102321083],2018_Jul_09_1044,60.0611952028,go-nogo,001,1,
logos/4.jpg,properties4.xlsx,frogs/ab9.jpg,0,0,400,l,0,0,0,3,0,24,24,8,,,['l'],0,[0.799973375977288],2018_Jul_09_1044,60.0611952028,go-nogo,001,1,
logos/4.jpg,properties4.xlsx,frogs/ab71.jpg,0,0,400,l,0,0,0,3,0,25,25,69,,,['l'],0,[0.8999289457169652],2018_Jul_09_1044,60.0611952028,go-nogo,001,1,
logos/4.jpg,properties4.xlsx,frogs/ab36.jpg,0,0,400,l,0,0,0,3,0,26,26,35,,,['l'],0,[0.816753905852238],2018_Jul_09_1044,60.0611952028,go-nogo,001,1,
logos/4.jpg,properties4.xlsx,frogs/ab56.jpg,0,0,400,l,0,0,0,3,0,27,27,55,,,['l'],0,[1.200138695229498],2018_Jul_09_1044,60.0611952028,go-nogo,001,1,
logos/4.jpg,properties4.xlsx,frogs/ab48.jpg,0,0,400,l,0,0,0,3,0,28,28,47,,,['l'],0,[0.933322183101609],2018_Jul_09_1044,60.0611952028,go-nogo,001,1,
logos/4.jpg,properties4.xlsx,frogs/ab50.jpg,0,0,400,l,0,0,0,3,0,29,29,49,,,['l'],0,[0.8499286897169895],2018_Jul_09_1044,60.0611952028,go-nogo,001,1,
logos/4.jpg,properties4.xlsx,frogs/ab41.jpg,0,0,400,l,0,0,0,3,0,30,30,40,,,['l'],0,[0.583567289088478],2018_Jul_09_1044,60.0611952028,go-nogo,001,1,
logos/4.jpg,properties4.xlsx,logos/4.jpg,0,0,400,a,0,0,0,3,0,31,31,83,,,['a'],0,[0.6168666597261563],2018_Jul_09_1044,60.0611952028,go-nogo,001,1,
logos/4.jpg,properties4.xlsx,frogs/ab66.jpg,0,0,400,l,0,0,0,3,0,32,32,64,,,['l'],0,[0.6832196407920037],2018_Jul_09_1044,60.0611952028,go-nogo,001,1,
logos/4.jpg,properties4.xlsx,frogs/ab19.jpg,0,0,400,l,0,0,0,3,0,33,33,18,,,['l'],0,[0.6663315908253935],2018_Jul_09_1044,60.0611952028,go-nogo,001,1,
logos/4.jpg,properties4.xlsx,frogs/ab22.jpg,0,0,400,l,0,0,0,3,0,34,34,21,,,['l'],0,[0.5834279111916203],2018_Jul_09_1044,60.0611952028,go-nogo,001,1,
logos/4.jpg,properties4.xlsx,frogs/ab67.jpg,0,0,400,l,0,0,0,3,0,35,35,65,,,['l'],0,[0.6502798082387926],2018_Jul_09_1044,60.0611952028,go-nogo,001,1,
logos/4.jpg,properties4.xlsx,frogs/ab7.jpg,0,0,400,l,0,0,0,3,0,36,36,6,,,['l'],0,[0.6335032605895776],2018_Jul_09_1044,60.0611952028,go-nogo,001,1,
logos/4.jpg,properties4.xlsx,frogs/ab2.jpg,0,0,400,l,0,0,0,3,0,37,37,1,,,['l'],0,[0.583474560120294],2018_Jul_09_1044,60.0611952028,go-nogo,001,1,
logos/4.jpg,properties4.xlsx,frogs/ab76.jpg,0,0,400,l,0,0,0,3,0,38,38,74,,,['l'],0,[0.6002602099999876],2018_Jul_09_1044,60.0611952028,go-nogo,001,1,
logos/4.jpg,properties4.xlsx,frogs/ab70.jpg,0,0,400,l,0,0,0,3,0,39,39,68,,,['l'],0,[0.600131641001326],2018_Jul_09_1044,60.0611952028,go-nogo,001,1,
logos/4.jpg,properties4.xlsx,frogs/ab73.jpg,0,0,400,l,0,0,0,3,0,40,40,71,,,['l'],0,[0.7000872107410032],2018_Jul_09_1044,60.0611952028,go-nogo,001,1,
logos/4.jpg,properties4.xlsx,frogs/ab74.jpg,0,0,400,l,0,0,0,3,0,41,41,72,,,['l'],0,[0.6668578134965628],2018_Jul_09_1044,60.0611952028,go-nogo,001,1,
logos/4.jpg,properties4.xlsx,frogs/ab35.jpg,0,0,400,l,0,0,0,3,0,42,42,34,,,['l'],0,[0.766822485466264],2018_Jul_09_1044,60.0611952028,go-nogo,001,1,
logos/4.jpg,properties4.xlsx,frogs/ab37.jpg,0,0,400,l,0,0,0,3,0,43,43,36,,,['l'],0,[0.600127658775591],2018_Jul_09_1044,60.0611952028,go-nogo,001,1,
logos/4.jpg,properties4.xlsx,frogs/ab68.jpg,0,0,400,l,0,0,0,3,0,44,44,66,,,['l'],0,[0.6667810134310912],2018_Jul_09_1044,60.0611952028,go-nogo,001,1,
logos/4.jpg,properties4.xlsx,logos/4.jpg,0,0,400,a,0,0,0,3,0,45,45,87,,,['a'],0,[0.5169486366851288],2018_Jul_09_1044,60.0611952028,go-nogo,001,1,
logos/4.jpg,properties4.xlsx,frogs/ab77.jpg,0,0,400,l,0,0,0,3,0,46,46,75,,,['l'],0,[0.5336188020214649],2018_Jul_09_1044,60.0611952028,go-nogo,001,1,
logos/4.jpg,properties4.xlsx,frogs/ab23.jpg,0,0,400,l,0,0,0,3,0,47,47,22,,,['l'],0,[0.7334264036348941],2018_Jul_09_1044,60.0611952028,go-nogo,001,1,
logos/4.jpg,properties4.xlsx,logos/4.jpg,0,0,400,a,0,0,0,3,0,48,48,88,,,['a'],0,[0.7999819093179212],2018_Jul_09_1044,60.0611952028,go-nogo,001,1,
logos/4.jpg,properties4.xlsx,frogs/ab13.jpg,0,0,400,l,0,0,0,3,0,49,49,12,,,['l'],0,[0.5336244909151446],2018_Jul_09_1044,60.0611952028,go-nogo,001,1,
logos/4.jpg,properties4.xlsx,logos/4.jpg,0,0,400,a,0,0,0,3,0,50,50,84,,,['a'],0,[0.8496442450298218],2018_Jul_09_1044,60.0611952028,go-nogo,001,1,
logos/4.jpg,properties4.xlsx,frogs/ab25.jpg,0,0,400,l,0,0,0,3,0,51,51,24,,,['l'],0,[0.5836731025121935],2018_Jul_09_1044,60.0611952028,go-nogo,001,1,
logos/4.jpg,properties4.xlsx,frogs/ab58.jpg,0,0,400,l,0,0,0,3,0,52,52,57,,,['l'],0,[0.5337092554318588],2018_Jul_09_1044,60.0611952028,go-nogo,001,1,
logos/4.jpg,properties4.xlsx,frogs/ab62.jpg,0,0,400,l,0,0,0,3,0,53,53,60,,,['l'],0,[0.40015394146462313],2018_Jul_09_1044,60.0611952028,go-nogo,001,1,
logos/4.jpg,properties4.xlsx,frogs/ab61.jpg,0,0,400,l,0,0,0,3,0,54,54,59,,,['l'],0,[0.45048529108089497],2018_Jul_09_1044,60.0611952028,go-nogo,001,1,
logos/4.jpg,properties4.xlsx,frogs/ab43.jpg,0,0,400,l,0,0,0,3,0,55,55,42,,,['l'],0,[0.31729235964508007],2018_Jul_09_1044,60.0611952028,go-nogo,001,1,
logos/4.jpg,properties4.xlsx,frogs/ab3.jpg,0,0,400,l,0,0,0,3,0,56,56,2,,,['l'],0,[0.38354464729150095],2018_Jul_09_1044,60.0611952028,go-nogo,001,1,
logos/4.jpg,properties4.xlsx,logos/4.jpg,0,0,400,a,0,0,0,3,0,57,57,82,,,['a'],0,[0.6835791788764709],2018_Jul_09_1044,60.0611952028,go-nogo,001,1,
logos/4.jpg,properties4.xlsx,logos/4.jpg,0,0,400,a,0,0,0,3,0,58,58,81,,,['a'],0,[1.2332218879048469],2018_Jul_09_1044,60.0611952028,go-nogo,001,1,
logos/4.jpg,properties4.xlsx,frogs/ab33.jpg,0,0,400,l,0,0,0,3,0,59,59,32,,,['l'],0,[0.5166863786835165],2018_Jul_09_1044,60.0611952028,go-nogo,001,1,
logos/4.jpg,properties4.xlsx,frogs/ab17.jpg,0,0,400,l,0,0,0,3,0,60,60,16,,,['l'],0,[0.4835081814824207],2018_Jul_09_1044,60.0611952028,go-nogo,001,1,
logos/4.jpg,properties4.xlsx,frogs/ab38.jpg,0,0,400,l,0,0,0,3,0,61,61,37,,,['l'],0,[0.4170425603208514],2018_Jul_09_1044,60.0611952028,go-nogo,001,1,
logos/4.jpg,properties4.xlsx,frogs/ab14.jpg,0,0,400,l,0,0,0,3,0,62,62,13,,,['l'],0,[0.5333622329137597],2018_Jul_09_1044,60.0611952028,go-nogo,001,1,
logos/4.jpg,properties4.xlsx,frogs/ab10.jpg,0,0,400,l,0,0,0,3,0,63,63,9,,,['l'],0,[0.45025375310547133],2018_Jul_09_1044,60.0611952028,go-nogo,001,1,
logos/4.jpg,properties4.xlsx,frogs/ab30.jpg,0,0,400,l,0,0,0,3,0,64,64,29,,,['l'],0,[0.36645407270748365],2018_Jul_09_1044,60.0611952028,go-nogo,001,1,
logos/4.jpg,properties4.xlsx,frogs/ab11.jpg,0,0,400,l,0,0,0,3,0,65,65,10,,,['l'],0,[0.45040450878946103],2018_Jul_09_1044,60.0611952028,go-nogo,001,1,
logos/4.jpg,properties4.xlsx,frogs/ab49.jpg,0,0,400,l,0,0,0,3,0,66,66,48,,,['l'],0,[0.3836931274181552],2018_Jul_09_1044,60.0611952028,go-nogo,001,1,
logos/4.jpg,properties4.xlsx,frogs/ab65.jpg,0,0,400,l,0,0,0,3,0,67,67,63,,,['l'],0,[0.333567146866244],2018_Jul_09_1044,60.0611952028,go-nogo,001,1,
logos/4.jpg,properties4.xlsx,frogs/ab5.jpg,0,0,400,l,0,0,0,3,0,68,68,4,,,['l'],0,[1.5164019339961214],2018_Jul_09_1044,60.0611952028,go-nogo,001,1,
logos/4.jpg,properties4.xlsx,frogs/ab32.jpg,0,0,400,l,0,0,0,3,0,69,69,31,,,['l'],0,[0.5669409282340894],2018_Jul_09_1044,60.0611952028,go-nogo,001,1,
logos/4.jpg,properties4.xlsx,frogs/ab52.jpg,0,0,400,l,0,0,0,3,0,70,70,51,,,['l'],0,[0.46656210479977744],2018_Jul_09_1044,60.0611952028,go-nogo,001,1,
logos/4.jpg,properties4.xlsx,frogs/ab57.jpg,0,0,400,l,0,0,0,3,0,71,71,56,,,['l'],0,[0.45028447313166],2018_Jul_09_1044,60.0611952028,go-nogo,001,1,
logos/4.jpg,properties4.xlsx,frogs/ab55.jpg,0,0,400,l,0,0,0,3,0,72,72,54,,,['l'],0,[0.41655957324201154],2018_Jul_09_1044,60.0611952028,go-nogo,001,1,
logos/4.jpg,properties4.xlsx,frogs/ab26.jpg,0,0,400,l,0,0,0,3,0,73,73,25,,,['l'],0,[0.450001735112437],2018_Jul_09_1044,60.0611952028,go-nogo,001,1,
logos/4.jpg,properties4.xlsx,frogs/ab29.jpg,0,0,400,l,0,0,0,3,0,74,74,28,,,['l'],0,[0.3171211239434797],2018_Jul_09_1044,60.0611952028,go-nogo,001,1,
logos/4.jpg,properties4.xlsx,frogs/ab39.jpg,0,0,400,l,0,0,0,3,0,75,75,38,,,['l'],0,[0.4502839042422693],2018_Jul_09_1044,60.0611952028,go-nogo,001,1,
logos/4.jpg,properties4.xlsx,frogs/ab81.jpg,0,0,400,l,0,0,0,3,0,76,76,79,,,['l'],0,[0.4169299202246748],2018_Jul_09_1044,60.0611952028,go-nogo,001,1,
logos/4.jpg,properties4.xlsx,frogs/ab72.jpg,0,0,400,l,0,0,0,3,0,77,77,70,,,['l'],0,[0.43347208545174],2018_Jul_09_1044,60.0611952028,go-nogo,001,1,
logos/4.jpg,properties4.xlsx,frogs/ab21.jpg,0,0,400,l,0,0,0,3,0,78,78,20,,,['l'],0,[0.43340723206301845],2018_Jul_09_1044,60.0611952028,go-nogo,001,1,
logos/4.jpg,properties4.xlsx,frogs/ab47.jpg,0,0,400,l,0,0,0,3,0,79,79,46,,,['l'],0,[0.4002500837691514],2018_Jul_09_1044,60.0611952028,go-nogo,001,1,
logos/4.jpg,properties4.xlsx,frogs/ab31.jpg,0,0,400,l,0,0,0,3,0,80,80,30,,,['l'],0,[0.5168217743546393],2018_Jul_09_1044,60.0611952028,go-nogo,001,1,
logos/4.jpg,properties4.xlsx,frogs/ab80.jpg,0,0,400,l,0,0,0,3,0,81,81,78,,,['l'],0,[0.483683399409756],2018_Jul_09_1044,60.0611952028,go-nogo,001,1,
logos/4.jpg,properties4.xlsx,logos/4.jpg,0,0,400,a,0,0,0,3,0,82,82,89,,,['a'],0,[1.0663706166362772],2018_Jul_09_1044,60.0611952028,go-nogo,001,1,
logos/4.jpg,properties4.xlsx,frogs/ab79.jpg,0,0,400,l,0,0,0,3,0,83,83,77,,,['l'],0,[0.5669938349458334],2018_Jul_09_1044,60.0611952028,go-nogo,001,1,
logos/4.jpg,properties4.xlsx,frogs/ab69.jpg,0,0,400,l,0,0,0,3,0,84,84,67,,,['l'],0,[0.4497030681911838],2018_Jul_09_1044,60.0611952028,go-nogo,001,1,
logos/4.jpg,properties4.xlsx,frogs/ab12.jpg,0,0,400,l,0,0,0,3,0,85,85,11,,,['l'],0,[0.5501120427622936],2018_Jul_09_1044,60.0611952028,go-nogo,001,1,
logos/4.jpg,properties4.xlsx,frogs/ab63.jpg,0,0,400,l,0,0,0,3,0,86,86,61,,,['l'],0,[0.5001726579253045],2018_Jul_09_1044,60.0611952028,go-nogo,001,1,
logos/4.jpg,properties4.xlsx,logos/4.jpg,0,0,400,a,0,0,0,3,0,87,87,85,,,['a'],0,[0.999716124202223],2018_Jul_09_1044,60.0611952028,go-nogo,001,1,
logos/4.jpg,properties4.xlsx,frogs/ab4.jpg,0,0,400,l,0,0,0,3,0,88,88,3,,,['l'],0,[0.6501136925414812],2018_Jul_09_1044,60.0611952028,go-nogo,001,1,
logos/4.jpg,properties4.xlsx,frogs/ab34.jpg,0,0,400,l,0,0,0,3,0,89,89,33,,,['l'],0,[0.46665938488263237],2018_Jul_09_1044,60.0611952028,go-nogo,001,1,
logos/4.jpg,properties4.xlsx,,,,,,0,0,0,3,,,,,,,,,,2018_Jul_09_1044,60.0611952028,go-nogo,001,1,
logos/2.jpg,properties2.xlsx,frogs/ab48.jpg,0,0,400,l,0,1,1,1,0,0,0,47,space,11.7514209434,['l'],0,[1.083300195527272],2018_Jul_09_1044,60.0611952028,go-nogo,001,1,
logos/2.jpg,properties2.xlsx,frogs/ab76.jpg,0,0,400,l,0,1,1,1,0,1,1,74,,,['l'],0,[0.5336176642426835],2018_Jul_09_1044,60.0611952028,go-nogo,001,1,
logos/2.jpg,properties2.xlsx,frogs/ab9.jpg,0,0,400,l,0,1,1,1,0,2,2,8,,,['l'],0,[0.4004651239524719],2018_Jul_09_1044,60.0611952028,go-nogo,001,1,
logos/2.jpg,properties2.xlsx,logos/2.jpg,0,0,400,a,0,1,1,1,0,3,3,81,,,['a'],0,[2.0992706269330483],2018_Jul_09_1044,60.0611952028,go-nogo,001,1,
logos/2.jpg,properties2.xlsx,frogs/ab69.jpg,0,0,400,l,0,1,1,1,0,4,4,67,,,['l'],0,[0.4003513460775139],2018_Jul_09_1044,60.0611952028,go-nogo,001,1,
logos/2.jpg,properties2.xlsx,frogs/ab75.jpg,0,0,400,l,0,1,1,1,0,5,5,73,,,['l'],0,[0.4336308055869722],2018_Jul_09_1044,60.0611952028,go-nogo,001,1,
logos/2.jpg,properties2.xlsx,frogs/ab5.jpg,0,0,400,l,0,1,1,1,0,6,6,4,,,['l'],0,[0.4169219557734323],2018_Jul_09_1044,60.0611952028,go-nogo,001,1,
logos/2.jpg,properties2.xlsx,logos/2.jpg,0,0,400,a,0,1,1,1,0,7,7,83,,,['a'],0,[0.500273920233667],2018_Jul_09_1044,60.0611952028,go-nogo,001,1,
logos/2.jpg,properties2.xlsx,frogs/ab23.jpg,0,0,400,l,0,1,1,1,0,8,8,22,,,['l'],0,[0.46693358956099473],2018_Jul_09_1044,60.0611952028,go-nogo,001,1,
logos/2.jpg,properties2.xlsx,frogs/ab33.jpg,0,0,400,l,0,1,1,1,0,9,9,32,,,['l'],0,[0.2836613265021697],2018_Jul_09_1044,60.0611952028,go-nogo,001,1,
logos/2.jpg,properties2.xlsx,frogs/ab19.jpg,0,0,400,l,0,1,1,1,0,10,10,18,,,['l'],0,[0.35037555232042905],2018_Jul_09_1044,60.0611952028,go-nogo,001,1,
logos/2.jpg,properties2.xlsx,frogs/ab70.jpg,0,0,400,l,0,1,1,1,0,11,11,68,,,['l'],0,[0.30038098521413303],2018_Jul_09_1044,60.0611952028,go-nogo,001,1,
logos/2.jpg,properties2.xlsx,frogs/ab71.jpg,0,0,400,l,0,1,1,1,0,12,12,69,,,['l'],0,[0.30029963403353577],2018_Jul_09_1044,60.0611952028,go-nogo,001,1,
logos/2.jpg,properties2.xlsx,frogs/ab72.jpg,0,0,400,l,0,1,1,1,0,13,13,70,,,['l'],0,[0.31708812835950084],2018_Jul_09_1044,60.0611952028,go-nogo,001,1,
logos/2.jpg,properties2.xlsx,frogs/ab63.jpg,0,0,400,l,0,1,1,1,0,14,14,61,,,['l'],0,[0.3338880004735074],2018_Jul_09_1044,60.0611952028,go-nogo,001,1,
logos/2.jpg,properties2.xlsx,frogs/ab68.jpg,0,0,400,l,0,1,1,1,0,15,15,66,,,['l'],0,[0.2669530455775657],2018_Jul_09_1044,60.0611952028,go-nogo,001,1,
logos/2.jpg,properties2.xlsx,frogs/ab28.jpg,0,0,400,l,0,1,1,1,0,16,16,27,,,['l'],0,[0.30039520744821857],2018_Jul_09_1044,60.0611952028,go-nogo,001,1,
logos/2.jpg,properties2.xlsx,frogs/ab22.jpg,0,0,400,l,0,1,1,1,0,17,17,21,,,['l'],0,[0.25041372479745405],2018_Jul_09_1044,60.0611952028,go-nogo,001,1,
logos/2.jpg,properties2.xlsx,logos/2.jpg,0,0,400,a,0,1,1,1,0,18,18,87,,,['a'],0,[0.35045121460711925],2018_Jul_09_1044,60.0611952028,go-nogo,001,1,
logos/2.jpg,properties2.xlsx,frogs/ab16.jpg,0,0,400,l,0,1,1,1,0,19,19,15,,,['l'],0,[0.350199765503703],2018_Jul_09_1044,60.0611952028,go-nogo,001,1,
logos/2.jpg,properties2.xlsx,frogs/ab30.jpg,0,0,400,l,0,1,1,1,0,20,20,29,,,['l'],0,[0.2670924234744234],2018_Jul_09_1044,60.0611952028,go-nogo,001,1,
logos/2.jpg,properties2.xlsx,frogs/ab52.jpg,0,0,400,l,0,1,1,1,0,21,21,51,,,['l'],0,[0.30037984743512425],2018_Jul_09_1044,60.0611952028,go-nogo,001,1,
logos/2.jpg,properties2.xlsx,frogs/ab12.jpg,0,0,400,l,0,1,1,1,0,22,22,11,,,['l'],0,[0.30038781188659414],2018_Jul_09_1044,60.0611952028,go-nogo,001,1,
logos/2.jpg,properties2.xlsx,frogs/ab74.jpg,0,0,400,l,0,1,1,1,0,23,23,72,,,['l'],0,[0.30046404306267505],2018_Jul_09_1044,60.0611952028,go-nogo,001,1,
logos/2.jpg,properties2.xlsx,frogs/ab17.jpg,0,0,400,l,0,1,1,1,0,24,24,16,,,['l'],0,[0.23369520386427212],2018_Jul_09_1044,60.0611952028,go-nogo,001,1,
logos/2.jpg,properties2.xlsx,frogs/ab43.jpg,0,0,400,l,0,1,1,1,0,25,25,42,,,['l'],0,[0.3004930564206916],2018_Jul_09_1044,60.0611952028,go-nogo,001,1,
logos/2.jpg,properties2.xlsx,frogs/ab37.jpg,0,0,400,l,0,1,1,1,0,26,26,36,,,['l'],0,[0.267050325660648],2018_Jul_09_1044,60.0611952028,go-nogo,001,1,
logos/2.jpg,properties2.xlsx,frogs/ab13.jpg,0,0,400,l,0,1,1,1,0,27,27,12,,,['l'],0,[0.25001834668228184],2018_Jul_09_1044,60.0611952028,go-nogo,001,1,
logos/2.jpg,properties2.xlsx,frogs/ab50.jpg,0,0,400,l,0,1,1,1,0,28,28,49,,,['l'],0,[0.23359963044936194],2018_Jul_09_1044,60.0611952028,go-nogo,001,1,
logos/2.jpg,properties2.xlsx,frogs/ab64.jpg,0,0,400,l,0,1,1,1,0,29,29,62,,,['l'],0,[0.26695532113512854],2018_Jul_09_1044,60.0611952028,go-nogo,001,1,
logos/2.jpg,properties2.xlsx,frogs/ab44.jpg,0,0,400,l,0,1,1,1,0,30,30,43,,,['l'],0,[0.26715955242070777],2018_Jul_09_1044,60.0611952028,go-nogo,001,1,
logos/2.jpg,properties2.xlsx,frogs/ab24.jpg,0,0,400,l,0,1,1,1,0,31,31,23,,,['l'],0,[0.28366303317011443],2018_Jul_09_1044,60.0611952028,go-nogo,001,1,
logos/2.jpg,properties2.xlsx,frogs/ab78.jpg,0,0,400,l,0,1,1,1,0,32,32,76,,,['l'],0,[0.23381410174351913],2018_Jul_09_1044,60.0611952028,go-nogo,001,1,
logos/2.jpg,properties2.xlsx,frogs/ab60.jpg,0,0,400,l,0,1,1,1,0,33,33,58,,,['l'],0,[0.2503050669270124],2018_Jul_09_1044,60.0611952028,go-nogo,001,1,
logos/2.jpg,properties2.xlsx,logos/2.jpg,0,0,400,a,0,1,1,1,0,34,34,85,,,['a'],0,[0.33350627570303004],2018_Jul_09_1044,60.0611952028,go-nogo,001,1,
logos/2.jpg,properties2.xlsx,frogs/ab2.jpg,0,0,400,l,0,1,1,1,0,35,35,1,,,['l'],0,[0.3004748519608711],2018_Jul_09_1044,60.0611952028,go-nogo,001,1,
logos/2.jpg,properties2.xlsx,frogs/ab8.jpg,0,0,400,l,0,1,1,1,0,36,36,7,,,['l'],0,[0.4335824499903538],2018_Jul_09_1044,60.0611952028,go-nogo,001,1,
logos/2.jpg,properties2.xlsx,frogs/ab31.jpg,0,0,400,l,0,1,1,1,0,37,37,30,,,['l'],0,[0.3170716305678525],2018_Jul_09_1044,60.0611952028,go-nogo,001,1,
logos/2.jpg,properties2.xlsx,frogs/ab15.jpg,0,0,400,l,0,1,1,1,0,38,38,14,,,['l'],0,[0.36689325530460337],2018_Jul_09_1044,60.0611952028,go-nogo,001,1,
logos/2.jpg,properties2.xlsx,frogs/ab27.jpg,0,0,400,l,0,1,1,1,0,39,39,26,,,['l'],0,[0.36694616201612007],2018_Jul_09_1044,60.0611952028,go-nogo,001,1,
logos/2.jpg,properties2.xlsx,frogs/ab14.jpg,0,0,400,l,0,1,1,1,0,40,40,13,,,['l'],0,[0.43363535670209785],2018_Jul_09_1044,60.0611952028,go-nogo,001,1,
logos/2.jpg,properties2.xlsx,frogs/ab55.jpg,0,0,400,l,0,1,1,1,0,41,41,54,,,['l'],0,[0.4168275201373035],2018_Jul_09_1044,60.0611952028,go-nogo,001,1,
logos/2.jpg,properties2.xlsx,frogs/ab53.jpg,0,0,400,l,0,1,1,1,0,42,42,52,,,['l'],0,[0.3503306100599275],2018_Jul_09_1044,60.0611952028,go-nogo,001,1,
logos/2.jpg,properties2.xlsx,frogs/ab45.jpg,0,0,400,l,0,1,1,1,0,43,43,44,,,['l'],0,[0.38374262079355503],2018_Jul_09_1044,60.0611952028,go-nogo,001,1,
logos/2.jpg,properties2.xlsx,frogs/ab29.jpg,0,0,400,l,0,1,1,1,0,44,44,28,,,['l'],0,[0.3836083629012137],2018_Jul_09_1044,60.0611952028,go-nogo,001,1,
logos/2.jpg,properties2.xlsx,frogs/ab56.jpg,0,0,400,l,0,1,1,1,0,45,45,55,,,['l'],0,[0.5169975611711379],2018_Jul_09_1044,60.0611952028,go-nogo,001,1,
logos/2.jpg,properties2.xlsx,frogs/ab35.jpg,0,0,400,l,0,1,1,1,0,46,46,34,,,['l'],0,[0.40046000394818293],2018_Jul_09_1044,60.0611952028,go-nogo,001,1,
logos/2.jpg,properties2.xlsx,frogs/ab47.jpg,0,0,400,l,0,1,1,1,0,47,47,46,,,['l'],0,[0.7668833566292506],2018_Jul_09_1044,60.0611952028,go-nogo,001,1,
logos/2.jpg,properties2.xlsx,frogs/ab21.jpg,0,0,400,l,0,1,1,1,0,48,48,20,,,['l'],0,[0.5666104035074113],2018_Jul_09_1044,60.0611952028,go-nogo,001,1,
logos/2.jpg,properties2.xlsx,logos/2.jpg,0,0,400,a,0,1,1,1,0,49,49,88,,,['a'],0,[0.5665796834812227],2018_Jul_09_1044,60.0611952028,go-nogo,001,1,
logos/2.jpg,properties2.xlsx,frogs/ab6.jpg,0,0,400,l,0,1,1,1,0,50,50,5,,,['l'],0,[0.33365987583420065],2018_Jul_09_1044,60.0611952028,go-nogo,001,1,
logos/2.jpg,properties2.xlsx,frogs/ab38.jpg,0,0,400,l,0,1,1,1,0,51,51,37,,,['l'],0,[0.6501114169839184],2018_Jul_09_1044,60.0611952028,go-nogo,001,1,
logos/2.jpg,properties2.xlsx,logos/2.jpg,0,0,400,a,0,1,1,1,0,52,52,82,,,['a'],0,[0.5169571700255347],2018_Jul_09_1044,60.0611952028,go-nogo,001,1,
logos/2.jpg,properties2.xlsx,frogs/ab80.jpg,0,0,400,l,0,1,1,1,0,53,53,78,,,['l'],0,[0.48358156821177545],2018_Jul_09_1044,60.0611952028,go-nogo,001,1,
logos/2.jpg,properties2.xlsx,frogs/ab51.jpg,0,0,400,l,0,1,1,1,0,54,54,50,,,['l'],0,[0.3003280785021616],2018_Jul_09_1044,60.0611952028,go-nogo,001,1,
logos/2.jpg,properties2.xlsx,frogs/ab34.jpg,0,0,400,l,0,1,1,1,0,55,55,33,,,['l'],0,[0.35036815675857724],2018_Jul_09_1044,60.0611952028,go-nogo,001,1,
logos/2.jpg,properties2.xlsx,frogs/ab81.jpg,0,0,400,l,0,1,1,1,0,56,56,79,,,['l'],0,[0.48387966624386536],2018_Jul_09_1044,60.0611952028,go-nogo,001,1,
logos/2.jpg,properties2.xlsx,frogs/ab73.jpg,0,0,400,l,0,1,1,1,0,57,57,71,,,['l'],0,[0.4501189263237393],2018_Jul_09_1044,60.0611952028,go-nogo,001,1,
logos/2.jpg,properties2.xlsx,frogs/ab25.jpg,0,0,400,l,0,1,1,1,0,58,58,24,,,['l'],0,[0.46696260291923863],2018_Jul_09_1044,60.0611952028,go-nogo,001,1,
logos/2.jpg,properties2.xlsx,frogs/ab36.jpg,0,0,400,l,0,1,1,1,0,59,59,35,,,['l'],0,[0.250319858050716],2018_Jul_09_1044,60.0611952028,go-nogo,001,1,
logos/2.jpg,properties2.xlsx,logos/2.jpg,0,0,400,a,0,1,1,1,0,60,60,84,,,['a'],0,[0.2670634101164069],2018_Jul_09_1044,60.0611952028,go-nogo,001,1,
logos/2.jpg,properties2.xlsx,frogs/ab1.jpg,0,0,400,l,0,1,1,1,0,61,61,0,,,['l'],0,[0.4669904784987011],2018_Jul_09_1044,60.0611952028,go-nogo,001,1,
logos/2.jpg,properties2.xlsx,frogs/ab7.jpg,0,0,400,l,0,1,1,1,0,62,62,6,,,['l'],0,[0.3836652518386927],2018_Jul_09_1044,60.0611952028,go-nogo,001,1,
logos/2.jpg,properties2.xlsx,frogs/ab3.jpg,0,0,400,l,0,1,1,1,0,63,63,2,,,['l'],0,[0.3835059628140698],2018_Jul_09_1044,60.0611952028,go-nogo,001,1,
logos/2.jpg,properties2.xlsx,frogs/ab40.jpg,0,0,400,l,0,1,1,1,0,64,64,39,,,['l'],0,[0.3004128430188757],2018_Jul_09_1044,60.0611952028,go-nogo,001,1,
logos/2.jpg,properties2.xlsx,logos/2.jpg,0,0,400,a,0,1,1,1,0,65,65,80,,,['a'],0,[0.43342657430162035],2018_Jul_09_1044,60.0611952028,go-nogo,001,1,
logos/2.jpg,properties2.xlsx,frogs/ab77.jpg,0,0,400,l,0,1,1,1,0,66,66,75,,,['l'],0,[0.45015192190749076],2018_Jul_09_1044,60.0611952028,go-nogo,001,1,
logos/2.jpg,properties2.xlsx,frogs/ab42.jpg,0,0,400,l,0,1,1,1,0,67,67,41,,,['l'],0,[0.36709236658543887],2018_Jul_09_1044,60.0611952028,go-nogo,001,1,
logos/2.jpg,properties2.xlsx,frogs/ab58.jpg,0,0,400,l,0,1,1,1,0,68,68,57,,,['l'],0,[0.33357681798543126],2018_Jul_09_1044,60.0611952028,go-nogo,001,1,
logos/2.jpg,properties2.xlsx,frogs/ab10.jpg,0,0,400,l,0,1,1,1,0,69,69,9,,,['l'],0,[0.3337201781080239],2018_Jul_09_1044,60.0611952028,go-nogo,001,1,
logos/2.jpg,properties2.xlsx,logos/2.jpg,0,0,400,a,0,1,1,1,0,70,70,86,,,['a'],0,[0.5175106993867757],2018_Jul_09_1044,60.0611952028,go-nogo,001,1,
logos/2.jpg,properties2.xlsx,frogs/ab32.jpg,0,0,400,l,0,1,1,1,0,71,71,31,,,['l'],0,[0.6504106527950171],2018_Jul_09_1044,60.0611952028,go-nogo,001,1,
logos/2.jpg,properties2.xlsx,frogs/ab11.jpg,0,0,400,l,0,1,1,1,0,72,72,10,,,['l'],0,[0.30039691411661806],2018_Jul_09_1044,60.0611952028,go-nogo,001,1,
logos/2.jpg,properties2.xlsx,frogs/ab39.jpg,0,0,400,l,0,1,1,1,0,73,73,38,,,['l'],0,[0.4836350438129102],2018_Jul_09_1044,60.0611952028,go-nogo,001,1,
logos/2.jpg,properties2.xlsx,frogs/ab41.jpg,0,0,400,l,0,1,1,1,0,74,74,40,,,['l'],0,[0.9001126969851612],2018_Jul_09_1044,60.0611952028,go-nogo,001,1,
logos/2.jpg,properties2.xlsx,frogs/ab57.jpg,0,0,400,l,0,1,1,1,0,75,75,56,,,['l'],0,[0.33375886258545506],2018_Jul_09_1044,60.0611952028,go-nogo,001,1,
logos/2.jpg,properties2.xlsx,frogs/ab4.jpg,0,0,400,l,0,1,1,1,0,76,76,3,,,['l'],0,[0.4004582972800108],2018_Jul_09_1044,60.0611952028,go-nogo,001,1,
logos/2.jpg,properties2.xlsx,frogs/ab61.jpg,0,0,400,l,0,1,1,1,0,77,77,59,,,['l'],0,[0.48354117706639954],2018_Jul_09_1044,60.0611952028,go-nogo,001,1,
logos/2.jpg,properties2.xlsx,frogs/ab66.jpg,0,0,400,l,0,1,1,1,0,78,78,64,,,['l'],0,[0.3170329460904213],2018_Jul_09_1044,60.0611952028,go-nogo,001,1,
logos/2.jpg,properties2.xlsx,frogs/ab46.jpg,0,0,400,l,0,1,1,1,0,79,79,45,,,['l'],0,[0.3169453371265263],2018_Jul_09_1044,60.0611952028,go-nogo,001,1,
logos/2.jpg,properties2.xlsx,frogs/ab65.jpg,0,0,400,l,0,1,1,1,0,80,80,63,,,['l'],0,[0.25035000918751393],2018_Jul_09_1044,60.0611952028,go-nogo,001,1,
logos/2.jpg,properties2.xlsx,frogs/ab26.jpg,0,0,400,l,0,1,1,1,0,81,81,25,,,['l'],0,[0.23379475950491724],2018_Jul_09_1044,60.0611952028,go-nogo,001,1,
logos/2.jpg,properties2.xlsx,frogs/ab49.jpg,0,0,400,l,0,1,1,1,0,82,82,48,,,['l'],0,[0.30033831851096693],2018_Jul_09_1044,60.0611952028,go-nogo,001,1,
logos/2.jpg,properties2.xlsx,frogs/ab62.jpg,0,0,400,l,0,1,1,1,0,83,83,60,,,['l'],0,[0.30019382060982025],2018_Jul_09_1044,60.0611952028,go-nogo,001,1,
logos/2.jpg,properties2.xlsx,frogs/ab67.jpg,0,0,400,l,0,1,1,1,0,84,84,65,,,['l'],0,[0.23359280377690084],2018_Jul_09_1044,60.0611952028,go-nogo,001,1,
logos/2.jpg,properties2.xlsx,frogs/ab20.jpg,0,0,400,l,0,1,1,1,0,85,85,19,,,['l'],0,[0.2670708056782587],2018_Jul_09_1044,60.0611952028,go-nogo,001,1,
logos/2.jpg,properties2.xlsx,frogs/ab18.jpg,0,0,400,l,0,1,1,1,0,86,86,17,,,['l'],0,[0.2668295965834204],2018_Jul_09_1044,60.0611952028,go-nogo,001,1,
logos/2.jpg,properties2.xlsx,frogs/ab79.jpg,0,0,400,l,0,1,1,1,0,87,87,77,,,['l'],0,[0.2837307310057895],2018_Jul_09_1044,60.0611952028,go-nogo,001,1,
logos/2.jpg,properties2.xlsx,frogs/ab54.jpg,0,0,400,l,0,1,1,1,0,88,88,53,,,['l'],0,[0.3001568428005612],2018_Jul_09_1044,60.0611952028,go-nogo,001,1,
logos/2.jpg,properties2.xlsx,logos/2.jpg,0,0,400,a,0,1,1,1,0,89,89,89,,,['a'],0,[0.41707100478947723],2018_Jul_09_1044,60.0611952028,go-nogo,001,1,
logos/2.jpg,properties2.xlsx,,,,,,0,1,1,1,,,,,,,,,,2018_Jul_09_1044,60.0611952028,go-nogo,001,1,
logos/1.jpg,properties1.xlsx,frogs/ab62.jpg,0,0,400,l,0,2,2,0,0,0,0,60,space,11.7077410484,['l'],0,[0.7002180552972277],2018_Jul_09_1044,60.0611952028,go-nogo,001,1,
logos/1.jpg,properties1.xlsx,frogs/ab48.jpg,0,0,400,l,0,2,2,0,0,1,1,47,,,['l'],0,[0.16707939590787646],2018_Jul_09_1044,60.0611952028,go-nogo,001,1,
logos/1.jpg,properties1.xlsx,frogs/ab9.jpg,0,0,400,l,0,2,2,0,0,2,2,8,,,['l'],0,[0.25029596469698845],2018_Jul_09_1044,60.0611952028,go-nogo,001,1,
logos/1.jpg,properties1.xlsx,frogs/ab2.jpg,0,0,400,l,0,2,2,0,0,3,3,1,,,['l'],0,[0.2503050669270124],2018_Jul_09_1044,60.0611952028,go-nogo,001,1,
logos/1.jpg,properties1.xlsx,frogs/ab3.jpg,0,0,400,l,0,2,2,0,0,4,4,2,,,['l'],0,[0.20029570869678537],2018_Jul_09_1044,60.0611952028,go-nogo,001,1,
logos/1.jpg,properties1.xlsx,frogs/ab10.jpg,0,0,400,l,0,2,2,0,0,5,5,9,,,['l'],0,[0.3002069050655791],2018_Jul_09_1044,60.0611952028,go-nogo,001,1,
logos/1.jpg,properties1.xlsx,logos/1.jpg,0,0,400,a,0,2,2,0,0,6,6,84,,,['a'],0,[0.6503583149724363],2018_Jul_09_1044,60.0611952028,go-nogo,001,1,
logos/1.jpg,properties1.xlsx,frogs/ab45.jpg,0,0,400,l,0,2,2,0,0,7,7,44,,,['l'],0,[0.46698535849418477],2018_Jul_09_1044,60.0611952028,go-nogo,001,1,
logos/1.jpg,properties1.xlsx,frogs/ab24.jpg,0,0,400,l,0,2,2,0,0,8,8,23,,,['l'],0,[0.783475584121561],2018_Jul_09_1044,60.0611952028,go-nogo,001,1,
logos/1.jpg,properties1.xlsx,frogs/ab22.jpg,0,0,400,l,0,2,2,0,0,9,9,21,,,['l'],0,[0.30010450497820784],2018_Jul_09_1044,60.0611952028,go-nogo,001,1,
logos/1.jpg,properties1.xlsx,frogs/ab15.jpg,0,0,400,l,0,2,2,0,0,10,10,14,,,['l'],0,[0.28363003758636296],2018_Jul_09_1044,60.0611952028,go-nogo,001,1,
logos/1.jpg,properties1.xlsx,frogs/ab46.jpg,0,0,400,l,0,2,2,0,0,11,11,45,,,['l'],0,[0.25051726266360674],2018_Jul_09_1044,60.0611952028,go-nogo,001,1,
logos/1.jpg,properties1.xlsx,logos/1.jpg,0,0,400,a,0,2,2,0,0,12,12,86,,,['a'],0,[1.6995797614192725],2018_Jul_09_1044,60.0611952028,go-nogo,001,1,
logos/1.jpg,properties1.xlsx,frogs/ab61.jpg,0,0,400,l,0,2,2,0,0,13,13,59,,,['l'],0,[0.36691259754320527],2018_Jul_09_1044,60.0611952028,go-nogo,001,1,
logos/1.jpg,properties1.xlsx,frogs/ab16.jpg,0,0,400,l,0,2,2,0,0,14,14,15,,,['l'],0,[0.3337537425809387],2018_Jul_09_1044,60.0611952028,go-nogo,001,1,
logos/1.jpg,properties1.xlsx,frogs/ab31.jpg,0,0,400,l,0,2,2,0,0,15,15,30,,,['l'],0,[0.2503130313782549],2018_Jul_09_1044,60.0611952028,go-nogo,001,1,
logos/1.jpg,properties1.xlsx,frogs/ab25.jpg,0,0,400,l,0,2,2,0,0,16,16,24,,,['l'],0,[0.18370575676226508],2018_Jul_09_1044,60.0611952028,go-nogo,001,1,
logos/1.jpg,properties1.xlsx,frogs/ab29.jpg,0,0,400,l,0,2,2,0,0,17,17,28,,,['l'],0,[0.21710638970853324],2018_Jul_09_1044,60.0611952028,go-nogo,001,1,
logos/1.jpg,properties1.xlsx,frogs/ab23.jpg,0,0,400,l,0,2,2,0,0,18,18,22,,,['l'],0,[0.21708534080175923],2018_Jul_09_1044,60.0611952028,go-nogo,001,1,
logos/1.jpg,properties1.xlsx,frogs/ab49.jpg,0,0,400,l,0,2,2,0,0,19,19,48,,,['l'],0,[0.21711264749160364],2018_Jul_09_1044,60.0611952028,go-nogo,001,1,
logos/1.jpg,properties1.xlsx,logos/1.jpg,0,0,400,a,0,2,2,0,0,20,20,82,,,['a'],0,[0.5169947167244118],2018_Jul_09_1044,60.0611952028,go-nogo,001,1,
logos/1.jpg,properties1.xlsx,frogs/ab53.jpg,0,0,400,l,0,2,2,0,0,21,21,52,,,['l'],0,[0.8002930918055426],2018_Jul_09_1044,60.0611952028,go-nogo,001,1,
logos/1.jpg,properties1.xlsx,frogs/ab64.jpg,0,0,400,l,0,2,2,0,0,22,22,62,,,['l'],0,[0.9168039112282713],2018_Jul_09_1044,60.0611952028,go-nogo,001,1,
logos/1.jpg,properties1.xlsx,frogs/ab52.jpg,0,0,400,l,0,2,2,0,0,23,23,51,,,['l'],0,[0.2667038720319397],2018_Jul_09_1044,60.0611952028,go-nogo,001,1,
logos/1.jpg,properties1.xlsx,frogs/ab73.jpg,0,0,400,l,0,2,2,0,0,24,24,71,,,['l'],0,[0.2667436942879249],2018_Jul_09_1044,60.0611952028,go-nogo,001,1,
logos/1.jpg,properties1.xlsx,frogs/ab19.jpg,0,0,400,l,0,2,2,0,0,25,25,18,,,['l'],0,[0.3670667665637666],2018_Jul_09_1044,60.0611952028,go-nogo,001,1,
logos/1.jpg,properties1.xlsx,frogs/ab37.jpg,0,0,400,l,0,2,2,0,0,26,26,36,,,['l'],0,[0.23377314170852515],2018_Jul_09_1044,60.0611952028,go-nogo,001,1,
logos/1.jpg,properties1.xlsx,frogs/ab7.jpg,0,0,400,l,0,2,2,0,0,27,27,6,,,['l'],0,[0.20034235762545904],2018_Jul_09_1044,60.0611952028,go-nogo,001,1,
logos/1.jpg,properties1.xlsx,frogs/ab26.jpg,0,0,400,l,0,2,2,0,0,28,28,25,,,['l'],0,[0.2170836341335871],2018_Jul_09_1044,60.0611952028,go-nogo,001,1,
logos/1.jpg,properties1.xlsx,frogs/ab20.jpg,0,0,400,l,0,2,2,0,0,29,29,19,,,['l'],0,[0.1838878013620615],2018_Jul_09_1044,60.0611952028,go-nogo,001,1,
logos/1.jpg,properties1.xlsx,frogs/ab76.jpg,0,0,400,l,0,2,2,0,0,30,30,74,,,['l'],0,[0.08353571572843066],2018_Jul_09_1044,60.0611952028,go-nogo,001,1,
logos/1.jpg,properties1.xlsx,frogs/ab30.jpg,0,0,400,l,0,2,2,0,0,31,31,29,,,['l'],0,[0.18374501012908695],2018_Jul_09_1044,60.0611952028,go-nogo,001,1,
logos/1.jpg,properties1.xlsx,frogs/ab8.jpg,0,0,400,l,0,2,2,0,0,32,32,7,,,['l'],0,[0.1504763595175973],2018_Jul_09_1044,60.0611952028,go-nogo,001,1,
logos/1.jpg,properties1.xlsx,frogs/ab42.jpg,0,0,400,l,0,2,2,0,0,33,33,41,,,['l'],0,[0.2503898314437265],2018_Jul_09_1044,60.0611952028,go-nogo,001,1,
logos/1.jpg,properties1.xlsx,logos/1.jpg,0,0,400,a,0,2,2,0,0,34,34,81,,,['a'],0,[0.3004128430188757],2018_Jul_09_1044,60.0611952028,go-nogo,001,1,
logos/1.jpg,properties1.xlsx,frogs/ab78.jpg,0,0,400,l,0,2,2,0,0,35,35,76,,,['l'],0,[0.017097970145869112],2018_Jul_09_1044,60.0611952028,go-nogo,001,1,
logos/1.jpg,properties1.xlsx,frogs/ab54.jpg,0,0,400,l,0,2,2,0,0,36,36,53,,,['l'],0,[0.38356342064071214],2018_Jul_09_1044,60.0611952028,go-nogo,001,1,
logos/1.jpg,properties1.xlsx,frogs/ab4.jpg,0,0,400,l,0,2,2,0,0,37,37,3,,,['l'],0,[0.6834443520947389],2018_Jul_09_1044,60.0611952028,go-nogo,001,1,
logos/1.jpg,properties1.xlsx,logos/1.jpg,0,0,400,a,0,2,2,0,0,38,38,89,,,['a'],0,[0.6500727325064872],2018_Jul_09_1044,60.0611952028,go-nogo,001,1,
logos/1.jpg,properties1.xlsx,logos/1.jpg,0,0,400,a,0,2,2,0,0,39,39,80,,,['a'],0,[0.949809734948758],2018_Jul_09_1044,60.0611952028,go-nogo,001,1,
logos/1.jpg,properties1.xlsx,frogs/ab81.jpg,0,0,400,l,0,2,2,0,0,40,40,79,,,['l'],0,[1.1997615215743735],2018_Jul_09_1044,60.0611952028,go-nogo,001,1,
logos/1.jpg,properties1.xlsx,frogs/ab6.jpg,0,0,400,l,0,2,2,0,0,41,41,5,,,['l'],0,[0.28333250844366376],2018_Jul_09_1044,60.0611952028,go-nogo,001,1,
logos/1.jpg,properties1.xlsx,frogs/ab33.jpg,0,0,400,l,0,2,2,0,0,42,42,32,,,['l'],0,[0.2502504535470962],2018_Jul_09_1044,60.0611952028,go-nogo,001,1,
logos/1.jpg,properties1.xlsx,frogs/ab50.jpg,0,0,400,l,0,2,2,0,0,43,43,49,,,['l'],0,[0.25025216021504093],2018_Jul_09_1044,60.0611952028,go-nogo,001,1,
logos/1.jpg,properties1.xlsx,frogs/ab60.jpg,0,0,400,l,0,2,2,0,0,44,44,58,,,['l'],0,[0.2337014616473425],2018_Jul_09_1044,60.0611952028,go-nogo,001,1,
logos/1.jpg,properties1.xlsx,frogs/ab11.jpg,0,0,400,l,0,2,2,0,0,45,45,10,,,['l'],0,[0.15048261730089507],2018_Jul_09_1044,60.0611952028,go-nogo,001,1,
logos/1.jpg,properties1.xlsx,frogs/ab28.jpg,0,0,400,l,0,2,2,0,0,46,46,27,,,['l'],0,[0.18360051222794027],2018_Jul_09_1044,60.0611952028,go-nogo,001,1,
logos/1.jpg,properties1.xlsx,logos/1.jpg,0,0,400,a,0,2,2,0,0,47,47,87,,,['a'],0,[0.30043844304100276],2018_Jul_09_1044,60.0611952028,go-nogo,001,1,
logos/1.jpg,properties1.xlsx,frogs/ab47.jpg,0,0,400,l,0,2,2,0,0,48,48,46,,,['l'],0,[0.3004395808195568],2018_Jul_09_1044,60.0611952028,go-nogo,001,1,
logos/1.jpg,properties1.xlsx,frogs/ab79.jpg,0,0,400,l,0,2,2,0,0,49,49,77,,,['l'],0,[0.06729335520140012],2018_Jul_09_1044,60.0611952028,go-nogo,001,1,
logos/1.jpg,properties1.xlsx,frogs/ab39.jpg,0,0,400,l,0,2,2,0,0,50,50,38,,,['l'],0,[0.2670622723376255],2018_Jul_09_1044,60.0611952028,go-nogo,001,1,
logos/1.jpg,properties1.xlsx,frogs/ab14.jpg,0,0,400,l,0,2,2,0,0,51,51,13,,,['l'],0,[0.21711549193855717],2018_Jul_09_1044,60.0611952028,go-nogo,001,1,
logos/1.jpg,properties1.xlsx,frogs/ab43.jpg,0,0,400,l,0,2,2,0,0,52,52,42,,,['l'],0,[0.18375126791215735],2018_Jul_09_1044,60.0611952028,go-nogo,001,1,
logos/1.jpg,properties1.xlsx,frogs/ab41.jpg,0,0,400,l,0,2,2,0,0,53,53,40,,,['l'],0,[0.23372023499678107],2018_Jul_09_1044,60.0611952028,go-nogo,001,1,
logos/1.jpg,properties1.xlsx,frogs/ab67.jpg,0,0,400,l,0,2,2,0,0,54,54,65,,,['l'],0,[0.16690304020175972],2018_Jul_09_1044,60.0611952028,go-nogo,001,1,
logos/1.jpg,properties1.xlsx,logos/1.jpg,0,0,400,a,0,2,2,0,0,55,55,83,,,['a'],0,[0.267112334602416],2018_Jul_09_1044,60.0611952028,go-nogo,001,1,
logos/1.jpg,properties1.xlsx,frogs/ab32.jpg,0,0,400,l,0,2,2,0,0,56,56,31,,,['l'],0,[0.2002786420157463],2018_Jul_09_1044,60.0611952028,go-nogo,001,1,
logos/1.jpg,properties1.xlsx,frogs/ab70.jpg,0,0,400,l,0,2,2,0,0,57,57,68,,,['l'],0,[0.15052357733566168],2018_Jul_09_1044,60.0611952028,go-nogo,001,1,
logos/1.jpg,properties1.xlsx,frogs/ab66.jpg,0,0,400,l,0,2,2,0,0,58,58,64,,,['l'],0,[0.2336861016342482],2018_Jul_09_1044,60.0611952028,go-nogo,001,1,
logos/1.jpg,properties1.xlsx,logos/1.jpg,0,0,400,a,0,2,2,0,0,59,59,88,,,['a'],0,[0.2839861623347133],2018_Jul_09_1044,60.0611952028,go-nogo,001,1,
logos/1.jpg,properties1.xlsx,frogs/ab38.jpg,0,0,400,l,0,2,2,0,0,60,60,37,,,['l'],0,[0.16701681807671775],2018_Jul_09_1044,60.0611952028,go-nogo,001,1,
logos/1.jpg,properties1.xlsx,frogs/ab72.jpg,0,0,400,l,0,2,2,0,0,61,61,70,,,['l'],0,[0.26710209459383805],2018_Jul_09_1044,60.0611952028,go-nogo,001,1,
logos/1.jpg,properties1.xlsx,frogs/ab40.jpg,0,0,400,l,0,2,2,0,0,62,62,39,,,['l'],0,[1.183342236452063],2018_Jul_09_1044,60.0611952028,go-nogo,001,1,
logos/1.jpg,properties1.xlsx,frogs/ab71.jpg,0,0,400,l,0,2,2,0,0,63,63,69,,,['l'],0,[0.2503847114394375],2018_Jul_09_1044,60.0611952028,go-nogo,001,1,
logos/1.jpg,properties1.xlsx,frogs/ab58.jpg,0,0,400,l,0,2,2,0,0,64,64,57,,,['l'],0,[0.3674001357369434],2018_Jul_09_1044,60.0611952028,go-nogo,001,1,
logos/1.jpg,properties1.xlsx,frogs/ab51.jpg,0,0,400,l,0,2,2,0,0,65,65,50,,,['l'],0,[0.2504586670579556],2018_Jul_09_1044,60.0611952028,go-nogo,001,1,
logos/1.jpg,properties1.xlsx,frogs/ab17.jpg,0,0,400,l,0,2,2,0,0,66,66,16,,,['l'],0,[0.35009224541204276],2018_Jul_09_1044,60.0611952028,go-nogo,001,1,
logos/1.jpg,properties1.xlsx,frogs/ab63.jpg,0,0,400,l,0,2,2,0,0,67,67,61,,,['l'],0,[0.2338960218135071],2018_Jul_09_1044,60.0611952028,go-nogo,001,1,
logos/1.jpg,properties1.xlsx,logos/1.jpg,0,0,400,a,0,2,2,0,0,68,68,85,,,['a'],0,[0.2338141017437465],2018_Jul_09_1044,60.0611952028,go-nogo,001,1,
logos/1.jpg,properties1.xlsx,frogs/ab44.jpg,0,0,400,l,0,2,2,0,0,69,69,43,,,['l'],0,[0.25041827591235233],2018_Jul_09_1044,60.0611952028,go-nogo,001,1,
logos/1.jpg,properties1.xlsx,frogs/ab68.jpg,0,0,400,l,0,2,2,0,0,70,70,66,,,['l'],0,[0.183838876875825],2018_Jul_09_1044,60.0611952028,go-nogo,001,1,
logos/1.jpg,properties1.xlsx,frogs/ab18.jpg,0,0,400,l,0,2,2,0,0,71,71,17,,,['l'],0,[0.23380841284983944],2018_Jul_09_1044,60.0611952028,go-nogo,001,1,
logos/1.jpg,properties1.xlsx,frogs/ab55.jpg,0,0,400,l,0,2,2,0,0,72,72,54,,,['l'],0,[0.2504654937304167],2018_Jul_09_1044,60.0611952028,go-nogo,001,1,
logos/1.jpg,properties1.xlsx,frogs/ab12.jpg,0,0,400,l,0,2,2,0,0,73,73,11,,,['l'],0,[0.18381839685821433],2018_Jul_09_1044,60.0611952028,go-nogo,001,1,
logos/1.jpg,properties1.xlsx,frogs/ab13.jpg,0,0,400,l,0,2,2,0,0,74,74,12,,,['l'],0,[0.18331094753648358],2018_Jul_09_1044,60.0611952028,go-nogo,001,1,
logos/1.jpg,properties1.xlsx,frogs/ab21.jpg,0,0,400,l,0,2,2,0,0,75,75,20,,,['l'],0,[0.26709413014236816],2018_Jul_09_1044,60.0611952028,go-nogo,001,1,
logos/1.jpg,properties1.xlsx,frogs/ab36.jpg,0,0,400,l,0,2,2,0,0,76,76,35,,,['l'],0,[0.21738002549773228],2018_Jul_09_1044,60.0611952028,go-nogo,001,1,
logos/1.jpg,properties1.xlsx,frogs/ab35.jpg,0,0,400,l,0,2,2,0,0,77,77,34,,,['l'],0,[0.23374811057624356],2018_Jul_09_1044,60.0611952028,go-nogo,001,1,
logos/1.jpg,properties1.xlsx,frogs/ab77.jpg,0,0,400,l,0,2,2,0,0,78,78,75,,,['l'],0,[0.13370663854061604],2018_Jul_09_1044,60.0611952028,go-nogo,001,1,
logos/1.jpg,properties1.xlsx,frogs/ab27.jpg,0,0,400,l,0,2,2,0,0,79,79,26,,,['l'],0,[0.19957549474884217],2018_Jul_09_1044,60.0611952028,go-nogo,001,1,
logos/1.jpg,properties1.xlsx,frogs/ab34.jpg,0,0,400,l,0,2,2,0,0,80,80,33,,,['l'],0,[0.15032674161216164],2018_Jul_09_1044,60.0611952028,go-nogo,001,1,
logos/1.jpg,properties1.xlsx,frogs/ab80.jpg,0,0,400,l,0,2,2,0,0,81,81,78,,,['l'],0,[0.2167787094290361],2018_Jul_09_1044,60.0611952028,go-nogo,001,1,
logos/1.jpg,properties1.xlsx,frogs/ab74.jpg,0,0,400,l,0,2,2,0,0,82,82,72,,,['l'],0,[0.23389431514533499],2018_Jul_09_1044,60.0611952028,go-nogo,001,1,
logos/1.jpg,properties1.xlsx,frogs/ab69.jpg,0,0,400,l,0,2,2,0,0,83,83,67,,,['l'],0,[0.20048287330087078],2018_Jul_09_1044,60.0611952028,go-nogo,001,1,
logos/1.jpg,properties1.xlsx,frogs/ab75.jpg,0,0,400,l,0,2,2,0,0,84,84,73,,,['l'],0,[0.2834872463533884],2018_Jul_09_1044,60.0611952028,go-nogo,001,1,
logos/1.jpg,properties1.xlsx,frogs/ab5.jpg,0,0,400,l,0,2,2,0,0,85,85,4,,,['l'],0,[0.25043648037262756],2018_Jul_09_1044,60.0611952028,go-nogo,001,1,
logos/1.jpg,properties1.xlsx,frogs/ab65.jpg,0,0,400,l,0,2,2,0,0,86,86,63,,,['l'],0,[0.45010925520432465],2018_Jul_09_1044,60.0611952028,go-nogo,001,1,
logos/1.jpg,properties1.xlsx,frogs/ab1.jpg,0,0,400,l,0,2,2,0,0,87,87,0,,,['l'],0,[0.38400829213151155],2018_Jul_09_1044,60.0611952028,go-nogo,001,1,
logos/1.jpg,properties1.xlsx,frogs/ab56.jpg,0,0,400,l,0,2,2,0,0,88,88,55,,,['l'],0,[0.28389514003515615],2018_Jul_09_1044,60.0611952028,go-nogo,001,1,
logos/1.jpg,properties1.xlsx,frogs/ab57.jpg,0,0,400,l,0,2,2,0,0,89,89,56,,,['l'],0,[0.2172150475792023],2018_Jul_09_1044,60.0611952028,go-nogo,001,1,
logos/1.jpg,properties1.xlsx,,,,,,0,2,2,0,,,,,,,,,,2018_Jul_09_1044,60.0611952028,go-nogo,001,1,
logos/3.jpg,properties3.xlsx,frogs/ab55.jpg,0,0,400,l,0,3,3,2,0,0,0,54,space,10.818506654,['l'],0,[0.516992441166849],2018_Jul_09_1044,60.0611952028,go-nogo,001,1,
logos/3.jpg,properties3.xlsx,frogs/ab74.jpg,0,0,400,l,0,3,3,2,0,1,1,72,,,['l'],0,[0.21712174972162757],2018_Jul_09_1044,60.0611952028,go-nogo,001,1,
logos/3.jpg,properties3.xlsx,frogs/ab33.jpg,0,0,400,l,0,3,3,2,0,2,2,32,,,['l'],0,[0.38384046976602804],2018_Jul_09_1044,60.0611952028,go-nogo,001,1,
logos/3.jpg,properties3.xlsx,frogs/ab18.jpg,0,0,400,l,0,3,3,2,0,3,3,17,,,['l'],0,[0.13374361635010246],2018_Jul_09_1044,60.0611952028,go-nogo,001,1,
logos/3.jpg,properties3.xlsx,frogs/ab65.jpg,0,0,400,l,0,3,3,2,0,4,4,63,,,['l'],0,[0.15019760372410929],2018_Jul_09_1044,60.0611952028,go-nogo,001,1,
logos/3.jpg,properties3.xlsx,frogs/ab72.jpg,0,0,400,l,0,3,3,2,0,5,5,70,,,['l'],0,[0.08354880018396216],2018_Jul_09_1044,60.0611952028,go-nogo,001,1,
logos/3.jpg,properties3.xlsx,frogs/ab71.jpg,0,0,400,l,0,3,3,2,0,6,6,69,,,['l'],0,[0.08364664915620779],2018_Jul_09_1044,60.0611952028,go-nogo,001,1,
logos/3.jpg,properties3.xlsx,frogs/ab8.jpg,0,0,400,l,0,3,3,2,0,7,7,7,,,['l'],0,[0.10006991650425334],2018_Jul_09_1044,60.0611952028,go-nogo,001,1,
logos/3.jpg,properties3.xlsx,frogs/ab9.jpg,0,0,400,l,0,3,3,2,0,8,8,8,,,['l'],0,[0.283774535487737],2018_Jul_09_1044,60.0611952028,go-nogo,001,1,
logos/3.jpg,properties3.xlsx,frogs/ab3.jpg,0,0,400,l,0,3,3,2,0,9,9,2,,,['l'],0,[0.10039077011106201],2018_Jul_09_1044,60.0611952028,go-nogo,001,1,
logos/3.jpg,properties3.xlsx,frogs/ab7.jpg,0,0,400,l,0,3,3,2,0,10,10,6,,,['l'],0,[0.20062054452955635],2018_Jul_09_1044,60.0611952028,go-nogo,001,1,
logos/3.jpg,properties3.xlsx,frogs/ab62.jpg,0,0,400,l,0,3,3,2,0,11,11,60,,,['l'],0,[0.20046978884533928],2018_Jul_09_1044,60.0611952028,go-nogo,001,1,
logos/3.jpg,properties3.xlsx,frogs/ab13.jpg,0,0,400,l,0,3,3,2,0,12,12,12,,,['l'],0,[0.15063337298488477],2018_Jul_09_1044,60.0611952028,go-nogo,001,1,
logos/3.jpg,properties3.xlsx,logos/3.jpg,0,0,400,a,0,3,3,2,0,13,13,83,,,['a'],0,[0.450222464189892],2018_Jul_09_1044,60.0611952028,go-nogo,001,1,
logos/3.jpg,properties3.xlsx,frogs/ab5.jpg,0,0,400,l,0,3,3,2,0,14,14,4,,,['l'],0,[0.2672170102473501],2018_Jul_09_1044,60.0611952028,go-nogo,001,1,
logos/3.jpg,properties3.xlsx,frogs/ab60.jpg,0,0,400,l,0,3,3,2,0,15,15,58,,,['l'],0,[0.1668251023575067],2018_Jul_09_1044,60.0611952028,go-nogo,001,1,
logos/3.jpg,properties3.xlsx,logos/3.jpg,0,0,400,a,0,3,3,2,0,16,16,82,,,['a'],0,[0.29976430913234253],2018_Jul_09_1044,60.0611952028,go-nogo,001,1,
logos/3.jpg,properties3.xlsx,frogs/ab80.jpg,0,0,400,l,0,3,3,2,0,17,17,78,,,['l'],0,[0.25044160037668917],2018_Jul_09_1044,60.0611952028,go-nogo,001,1,
logos/3.jpg,properties3.xlsx,frogs/ab32.jpg,0,0,400,l,0,3,3,2,0,18,18,31,,,['l'],0,[0.16716074708824635],2018_Jul_09_1044,60.0611952028,go-nogo,001,1,
logos/3.jpg,properties3.xlsx,frogs/ab57.jpg,0,0,400,l,0,3,3,2,0,19,19,56,,,['l'],0,[0.20066321123272246],2018_Jul_09_1044,60.0611952028,go-nogo,001,1,
logos/3.jpg,properties3.xlsx,frogs/ab49.jpg,0,0,400,l,0,3,3,2,0,20,20,48,,,['l'],0,[0.2669092410958456],2018_Jul_09_1044,60.0611952028,go-nogo,001,1,
logos/3.jpg,properties3.xlsx,frogs/ab10.jpg,0,0,400,l,0,3,3,2,0,21,21,9,,,['l'],0,[0.31712339950081514],2018_Jul_09_1044,60.0611952028,go-nogo,001,1,
logos/3.jpg,properties3.xlsx,frogs/ab25.jpg,0,0,400,l,0,3,3,2,0,22,22,24,,,['l'],0,[0.28372162877576557],2018_Jul_09_1044,60.0611952028,go-nogo,001,1,
logos/3.jpg,properties3.xlsx,frogs/ab56.jpg,0,0,400,l,0,3,3,2,0,23,23,55,,,['l'],0,[0.3335665779768533],2018_Jul_09_1044,60.0611952028,go-nogo,001,1,
logos/3.jpg,properties3.xlsx,logos/3.jpg,0,0,400,a,0,3,3,2,0,24,24,86,,,['a'],0,[0.2170495007712816],2018_Jul_09_1044,60.0611952028,go-nogo,001,1,
logos/3.jpg,properties3.xlsx,frogs/ab79.jpg,0,0,400,l,0,3,3,2,0,25,25,77,,,['l'],0,[0.2506338849855183],2018_Jul_09_1044,60.0611952028,go-nogo,001,1,
logos/3.jpg,properties3.xlsx,frogs/ab77.jpg,0,0,400,l,0,3,3,2,0,26,26,75,,,['l'],0,[0.23360019933898002],2018_Jul_09_1044,60.0611952028,go-nogo,001,1,
logos/3.jpg,properties3.xlsx,frogs/ab40.jpg,0,0,400,l,0,3,3,2,0,27,27,39,,,['l'],0,[0.11722193114042057],2018_Jul_09_1044,60.0611952028,go-nogo,001,1,
logos/3.jpg,properties3.xlsx,frogs/ab1.jpg,0,0,400,l,0,3,3,2,0,28,28,0,,,['l'],0,[0.3000868694075507],2018_Jul_09_1044,60.0611952028,go-nogo,001,1,
logos/3.jpg,properties3.xlsx,frogs/ab63.jpg,0,0,400,l,0,3,3,2,0,29,29,61,,,['l'],0,[0.08372344922190678],2018_Jul_09_1044,60.0611952028,go-nogo,001,1,
logos/3.jpg,properties3.xlsx,frogs/ab19.jpg,0,0,400,l,0,3,3,2,0,30,30,18,,,['l'],0,[0.11721055335283381],2018_Jul_09_1044,60.0611952028,go-nogo,001,1,
logos/3.jpg,properties3.xlsx,frogs/ab64.jpg,0,0,400,l,0,3,3,2,0,31,31,62,,,['l'],0,[0.11708198435439954],2018_Jul_09_1044,60.0611952028,go-nogo,001,1,
logos/3.jpg,properties3.xlsx,frogs/ab14.jpg,0,0,400,l,0,3,3,2,0,32,32,13,,,['l'],0,[0.6001259521074189],2018_Jul_09_1044,60.0611952028,go-nogo,001,1,
logos/3.jpg,properties3.xlsx,logos/3.jpg,0,0,400,a,0,3,3,2,0,33,33,87,,,['a'],0,[0.26715898353131706],2018_Jul_09_1044,60.0611952028,go-nogo,001,1,
logos/3.jpg,properties3.xlsx,frogs/ab21.jpg,0,0,400,l,0,3,3,2,0,34,34,20,,,['l'],0,[0.23325431459920765],2018_Jul_09_1044,60.0611952028,go-nogo,001,1,
logos/3.jpg,properties3.xlsx,frogs/ab47.jpg,0,0,400,l,0,3,3,2,0,35,35,46,,,['l'],0,[0.2835077263709991],2018_Jul_09_1044,60.0611952028,go-nogo,001,1,
logos/3.jpg,properties3.xlsx,logos/3.jpg,0,0,400,a,0,3,3,2,0,36,36,80,,,['a'],0,[0.26692118777282303],2018_Jul_09_1044,60.0611952028,go-nogo,001,1,
logos/3.jpg,properties3.xlsx,frogs/ab31.jpg,0,0,400,l,0,3,3,2,0,37,37,30,,,['l'],0,[0.30040374078907917],2018_Jul_09_1044,60.0611952028,go-nogo,001,1,
logos/3.jpg,properties3.xlsx,logos/3.jpg,0,0,400,a,0,3,3,2,0,38,38,89,,,['a'],0,[0.21706542967353926],2018_Jul_09_1044,60.0611952028,go-nogo,001,1,
logos/3.jpg,properties3.xlsx,frogs/ab48.jpg,0,0,400,l,0,3,3,2,0,39,39,47,,,['l'],0,[0.250402915899258],2018_Jul_09_1044,60.0611952028,go-nogo,001,1,
logos/3.jpg,properties3.xlsx,frogs/ab27.jpg,0,0,400,l,0,3,3,2,0,40,40,26,,,['l'],0,[0.1006405125465335],2018_Jul_09_1044,60.0611952028,go-nogo,001,1,
logos/3.jpg,properties3.xlsx,frogs/ab26.jpg,0,0,400,l,0,3,3,2,0,41,41,25,,,['l'],0,[0.48363219936618407],2018_Jul_09_1044,60.0611952028,go-nogo,001,1,
logos/3.jpg,properties3.xlsx,frogs/ab61.jpg,0,0,400,l,0,3,3,2,0,42,42,59,,,['l'],0,[0.08381731596864483],2018_Jul_09_1044,60.0611952028,go-nogo,001,1,
logos/3.jpg,properties3.xlsx,frogs/ab69.jpg,0,0,400,l,0,3,3,2,0,43,43,67,,,['l'],0,[0.23375550613809537],2018_Jul_09_1044,60.0611952028,go-nogo,001,1,
logos/3.jpg,properties3.xlsx,frogs/ab17.jpg,0,0,400,l,0,3,3,2,0,44,44,16,,,['l'],0,[0.18375695680583704],2018_Jul_09_1044,60.0611952028,go-nogo,001,1,
logos/3.jpg,properties3.xlsx,frogs/ab58.jpg,0,0,400,l,0,3,3,2,0,45,45,57,,,['l'],0,[0.3335682846450254],2018_Jul_09_1044,60.0611952028,go-nogo,001,1,
logos/3.jpg,properties3.xlsx,frogs/ab53.jpg,0,0,400,l,0,3,3,2,0,46,46,52,,,['l'],0,[0.18370461898348367],2018_Jul_09_1044,60.0611952028,go-nogo,001,1,
logos/3.jpg,properties3.xlsx,frogs/ab11.jpg,0,0,400,l,0,3,3,2,0,47,47,10,,,['l'],0,[0.20061258007831384],2018_Jul_09_1044,60.0611952028,go-nogo,001,1,
logos/3.jpg,properties3.xlsx,frogs/ab54.jpg,0,0,400,l,0,3,3,2,0,48,48,53,,,['l'],0,[0.1837489923548219],2018_Jul_09_1044,60.0611952028,go-nogo,001,1,
logos/3.jpg,properties3.xlsx,frogs/ab16.jpg,0,0,400,l,0,3,3,2,0,49,49,15,,,['l'],0,[0.16738033838669253],2018_Jul_09_1044,60.0611952028,go-nogo,001,1,
logos/3.jpg,properties3.xlsx,frogs/ab30.jpg,0,0,400,l,0,3,3,2,0,50,50,29,,,['l'],0,[0.13382439864130902],2018_Jul_09_1044,60.0611952028,go-nogo,001,1,
logos/3.jpg,properties3.xlsx,frogs/ab50.jpg,0,0,400,l,0,3,3,2,0,51,51,49,,,['l'],0,[0.20041460657603238],2018_Jul_09_1044,60.0611952028,go-nogo,001,1,
logos/3.jpg,properties3.xlsx,frogs/ab73.jpg,0,0,400,l,0,3,3,2,0,52,52,71,,,['l'],0,[0.18375468124850158],2018_Jul_09_1044,60.0611952028,go-nogo,001,1,
logos/3.jpg,properties3.xlsx,frogs/ab44.jpg,0,0,400,l,0,3,3,2,0,53,53,43,,,['l'],0,[0.13359172288710397],2018_Jul_09_1044,60.0611952028,go-nogo,001,1,
logos/3.jpg,properties3.xlsx,frogs/ab22.jpg,0,0,400,l,0,3,3,2,0,54,54,21,,,['l'],0,[0.216792931663349],2018_Jul_09_1044,60.0611952028,go-nogo,001,1,
logos/3.jpg,properties3.xlsx,frogs/ab4.jpg,0,0,400,l,0,3,3,2,0,55,55,3,,,['l'],0,[0.11706833100947733],2018_Jul_09_1044,60.0611952028,go-nogo,001,1,
logos/3.jpg,properties3.xlsx,frogs/ab52.jpg,0,0,400,l,0,3,3,2,0,56,56,51,,,['l'],0,[0.20056308670268663],2018_Jul_09_1044,60.0611952028,go-nogo,001,1,
logos/3.jpg,properties3.xlsx,logos/3.jpg,0,0,400,a,0,3,3,2,0,57,57,84,,,['a'],0,[0.16712092483226115],2018_Jul_09_1044,60.0611952028,go-nogo,001,1,
logos/3.jpg,properties3.xlsx,logos/3.jpg,0,0,400,a,0,3,3,2,0,58,58,85,,,['l'],0,[0.250305066926785],2018_Jul_09_1044,60.0611952028,go-nogo,001,1,
logos/3.jpg,properties3.xlsx,frogs/ab2.jpg,0,0,400,l,0,3,3,2,0,59,59,1,,,['a'],0,[1.049776682476022],2018_Jul_09_1044,60.0611952028,go-nogo,001,1,
logos/3.jpg,properties3.xlsx,frogs/ab45.jpg,0,0,400,l,0,3,3,2,0,60,60,44,,,['l'],0,[0.5002773335700113],2018_Jul_09_1044,60.0611952028,go-nogo,001,1,
logos/3.jpg,properties3.xlsx,frogs/ab36.jpg,0,0,400,l,0,3,3,2,0,61,61,35,,,['l'],0,[0.1171900733354505],2018_Jul_09_1044,60.0611952028,go-nogo,001,1,
logos/3.jpg,properties3.xlsx,frogs/ab20.jpg,0,0,400,l,0,3,3,2,0,62,62,19,,,['l'],0,[0.36691316643259597],2018_Jul_09_1044,60.0611952028,go-nogo,001,1,
logos/3.jpg,properties3.xlsx,frogs/ab34.jpg,0,0,400,l,0,3,3,2,0,63,63,33,,,['l'],0,[0.16700828473608453],2018_Jul_09_1044,60.0611952028,go-nogo,001,1,
logos/3.jpg,properties3.xlsx,frogs/ab6.jpg,0,0,400,l,0,3,3,2,0,64,64,5,,,['l'],0,[0.2173117587726665],2018_Jul_09_1044,60.0611952028,go-nogo,001,1,
logos/3.jpg,properties3.xlsx,frogs/ab81.jpg,0,0,400,l,0,3,3,2,0,65,65,79,,,['l'],0,[0.26710152570444734],2018_Jul_09_1044,60.0611952028,go-nogo,001,1,
logos/3.jpg,properties3.xlsx,frogs/ab75.jpg,0,0,400,l,0,3,3,2,0,66,66,73,,,['l'],0,[0.20036397542185114],2018_Jul_09_1044,60.0611952028,go-nogo,001,1,
logos/3.jpg,properties3.xlsx,frogs/ab39.jpg,0,0,400,l,0,3,3,2,0,67,67,38,,,['l'],0,[0.2836909087495769],2018_Jul_09_1044,60.0611952028,go-nogo,001,1,
logos/3.jpg,properties3.xlsx,frogs/ab28.jpg,0,0,400,l,0,3,3,2,0,68,68,27,,,['l'],0,[0.11697901537763755],2018_Jul_09_1044,60.0611952028,go-nogo,001,1,
logos/3.jpg,properties3.xlsx,frogs/ab42.jpg,0,0,400,l,0,3,3,2,0,69,69,41,,,['l'],0,[0.18399304589615895],2018_Jul_09_1044,60.0611952028,go-nogo,001,1,
logos/3.jpg,properties3.xlsx,logos/3.jpg,0,0,400,a,0,3,3,2,0,70,70,81,,,['a'],0,[0.3332764443960059],2018_Jul_09_1044,60.0611952028,go-nogo,001,1,
logos/3.jpg,properties3.xlsx,frogs/ab67.jpg,0,0,400,l,0,3,3,2,0,71,71,65,,,['l'],0,[0.18366650339544321],2018_Jul_09_1044,60.0611952028,go-nogo,001,1,
logos/3.jpg,properties3.xlsx,frogs/ab37.jpg,0,0,400,l,0,3,3,2,0,72,72,36,,,['l'],0,[0.15043938170833826],2018_Jul_09_1044,60.0611952028,go-nogo,001,1,
logos/3.jpg,properties3.xlsx,frogs/ab38.jpg,0,0,400,l,0,3,3,2,0,73,73,37,,,['l'],0,[0.18367674340424855],2018_Jul_09_1044,60.0611952028,go-nogo,001,1,
logos/3.jpg,properties3.xlsx,logos/3.jpg,0,0,400,a,0,3,3,2,0,74,74,88,,,['a'],0,[0.2670287078644833],2018_Jul_09_1044,60.0611952028,go-nogo,001,1,
logos/3.jpg,properties3.xlsx,frogs/ab76.jpg,0,0,400,l,0,3,3,2,0,75,75,74,,,['l'],0,[0.21730208765325187],2018_Jul_09_1044,60.0611952028,go-nogo,001,1,
logos/3.jpg,properties3.xlsx,frogs/ab41.jpg,0,0,400,l,0,3,3,2,0,76,76,40,,,['l'],0,[0.2171018385934076],2018_Jul_09_1044,60.0611952028,go-nogo,001,1,
logos/3.jpg,properties3.xlsx,frogs/ab66.jpg,0,0,400,l,0,3,3,2,0,77,77,64,,,['l'],0,[0.13369412297470262],2018_Jul_09_1044,60.0611952028,go-nogo,001,1,
logos/3.jpg,properties3.xlsx,frogs/ab78.jpg,0,0,400,l,0,3,3,2,0,78,78,76,,,['l'],0,[0.1504621372832844],2018_Jul_09_1044,60.0611952028,go-nogo,001,1,
logos/3.jpg,properties3.xlsx,frogs/ab68.jpg,0,0,400,l,0,3,3,2,0,79,79,66,,,['l'],0,[0.05040701190296204],2018_Jul_09_1044,60.0611952028,go-nogo,001,1,
logos/3.jpg,properties3.xlsx,frogs/ab24.jpg,0,0,400,l,0,3,3,2,0,80,80,23,,,['l'],0,[0.28380411773491687],2018_Jul_09_1044,60.0611952028,go-nogo,001,1,
logos/3.jpg,properties3.xlsx,frogs/ab51.jpg,0,0,400,l,0,3,3,2,0,81,81,50,,,['l'],0,[0.18369608564285045],2018_Jul_09_1044,60.0611952028,go-nogo,001,1,
logos/3.jpg,properties3.xlsx,frogs/ab12.jpg,0,0,400,l,0,3,3,2,0,82,82,11,,,['l'],0,[0.2170426740988205],2018_Jul_09_1044,60.0611952028,go-nogo,001,1,
logos/3.jpg,properties3.xlsx,frogs/ab23.jpg,0,0,400,l,0,3,3,2,0,83,83,22,,,['l'],0,[0.26709469903198624],2018_Jul_09_1044,60.0611952028,go-nogo,001,1,
logos/3.jpg,properties3.xlsx,frogs/ab15.jpg,0,0,400,l,0,3,3,2,0,84,84,14,,,['l'],0,[0.1336355273690515],2018_Jul_09_1044,60.0611952028,go-nogo,001,1,
logos/3.jpg,properties3.xlsx,frogs/ab35.jpg,0,0,400,l,0,3,3,2,0,85,85,34,,,['l'],0,[0.23371227054553856],2018_Jul_09_1044,60.0611952028,go-nogo,001,1,
logos/3.jpg,properties3.xlsx,frogs/ab43.jpg,0,0,400,l,0,3,3,2,0,86,86,42,,,['l'],0,[0.1504280039207515],2018_Jul_09_1044,60.0611952028,go-nogo,001,1,
logos/3.jpg,properties3.xlsx,frogs/ab29.jpg,0,0,400,l,0,3,3,2,0,87,87,28,,,['l'],0,[0.15035006607649848],2018_Jul_09_1044,60.0611952028,go-nogo,001,1,
logos/3.jpg,properties3.xlsx,frogs/ab70.jpg,0,0,400,l,0,3,3,2,0,88,88,68,,,['l'],0,[0.16708451591216544],2018_Jul_09_1044,60.0611952028,go-nogo,001,1,
logos/3.jpg,properties3.xlsx,frogs/ab46.jpg,0,0,400,l,0,3,3,2,0,89,89,45,,,['l'],0,[0.25049621375683273],2018_Jul_09_1044,60.0611952028,go-nogo,001,1,
logos/3.jpg,properties3.xlsx,,,,,,0,3,3,2,,,,,,,,,,2018_Jul_09_1044,60.0611952028,go-nogo,001,1,
