pix,source,image1,x,y,size,answer,trials_2.thisRepN,trials_2.thisTrialN,trials_2.thisN,trials_2.thisIndex,trials.thisRepN,trials.thisTrialN,trials.thisN,trials.thisIndex,key_resp_3.keys,key_resp_3.rt,key_resp_2.keys,key_resp_2.corr,key_resp_2.rt,date,frameRate,expName,session,participant,
logos/1.jpg,properties1.xlsx,frogs/ab7.jpg,0,0,400,l,0,0,0,0,0,0,0,6,space,6.3324464348,['l'],0,[0.0011599654344536248],2018_Jul_09_1226,60.078438476,go-nogo,001,20,
logos/1.jpg,properties1.xlsx,frogs/ab2.jpg,0,0,400,l,0,0,0,0,0,1,1,1,,,['l'],0,[0.06791458239786152],2018_Jul_09_1226,60.078438476,go-nogo,001,20,
logos/1.jpg,properties1.xlsx,frogs/ab60.jpg,0,0,400,l,0,0,0,0,0,2,2,58,,,['l'],0,[0.05102596354208799],2018_Jul_09_1226,60.078438476,go-nogo,001,20,
logos/1.jpg,properties1.xlsx,frogs/ab47.jpg,0,0,400,l,0,0,0,0,0,3,3,46,,,['l'],0,[0.18333484088998375],2018_Jul_09_1226,60.078438476,go-nogo,001,20,
logos/1.jpg,properties1.xlsx,frogs/ab79.jpg,0,0,400,l,0,0,0,0,0,4,4,77,,,['l'],0,[2.3997585633496783],2018_Jul_09_1226,60.078438476,go-nogo,001,20,
logos/1.jpg,properties1.xlsx,frogs/ab18.jpg,0,0,400,l,0,0,0,0,0,5,5,17,,,['l'],0,[0.5341746069398141],2018_Jul_09_1226,60.078438476,go-nogo,001,20,
logos/1.jpg,properties1.xlsx,frogs/ab11.jpg,0,0,400,l,0,0,0,0,0,6,6,10,,,['l'],0,[1.4669108339858212],2018_Jul_09_1226,60.078438476,go-nogo,001,20,
logos/1.jpg,properties1.xlsx,frogs/ab53.jpg,0,0,400,l,0,0,0,0,0,7,7,52,,,['l'],0,[0.10103133954726218],2018_Jul_09_1226,60.078438476,go-nogo,001,20,
logos/1.jpg,properties1.xlsx,frogs/ab28.jpg,0,0,400,l,0,0,0,0,0,8,8,27,,,['l'],0,[0.15088197764089273],2018_Jul_09_1226,60.078438476,go-nogo,001,20,
logos/1.jpg,properties1.xlsx,frogs/ab9.jpg,0,0,400,l,0,0,0,0,0,9,9,8,,,['l'],0,[0.13426244345919258],2018_Jul_09_1226,60.078438476,go-nogo,001,20,
logos/1.jpg,properties1.xlsx,frogs/ab24.jpg,0,0,400,l,0,0,0,0,0,10,10,23,,,['l'],0,[0.2008640291815027],2018_Jul_09_1226,60.078438476,go-nogo,001,20,
logos/1.jpg,properties1.xlsx,frogs/ab25.jpg,0,0,400,l,0,0,0,0,0,11,11,24,,,['l'],0,[0.15093886657905387],2018_Jul_09_1226,60.078438476,go-nogo,001,20,
logos/1.jpg,properties1.xlsx,frogs/ab8.jpg,0,0,400,l,0,0,0,0,0,12,12,7,,,['l'],0,[0.16767445419372962],2018_Jul_09_1226,60.078438476,go-nogo,001,20,
logos/1.jpg,properties1.xlsx,frogs/ab22.jpg,0,0,400,l,0,0,0,0,0,13,13,21,,,['l'],0,[0.1330706202206784],2018_Jul_09_1226,60.078438476,go-nogo,001,20,
logos/1.jpg,properties1.xlsx,frogs/ab71.jpg,0,0,400,l,0,0,0,0,0,14,14,69,,,['l'],0,[0.13433184796303976],2018_Jul_09_1226,60.078438476,go-nogo,001,20,
logos/1.jpg,properties1.xlsx,frogs/ab37.jpg,0,0,400,l,0,0,0,0,0,15,15,36,,,['l'],0,[0.06766882218835235],2018_Jul_09_1226,60.078438476,go-nogo,001,20,
logos/1.jpg,properties1.xlsx,frogs/ab78.jpg,0,0,400,l,0,0,0,0,0,16,16,76,,,['l'],0,[0.16747420513274847],2018_Jul_09_1226,60.078438476,go-nogo,001,20,
logos/1.jpg,properties1.xlsx,frogs/ab50.jpg,0,0,400,l,0,0,0,0,0,17,17,49,,,['l'],0,[0.10090220165875508],2018_Jul_09_1226,60.078438476,go-nogo,001,20,
logos/1.jpg,properties1.xlsx,frogs/ab51.jpg,0,0,400,l,0,0,0,0,0,18,18,50,,,['l'],0,[0.1825799246898896],2018_Jul_09_1226,60.078438476,go-nogo,001,20,
logos/1.jpg,properties1.xlsx,frogs/ab56.jpg,0,0,400,l,0,0,0,0,0,19,19,55,,,['l'],0,[0.16768184975444456],2018_Jul_09_1226,60.078438476,go-nogo,001,20,
logos/1.jpg,properties1.xlsx,frogs/ab58.jpg,0,0,400,l,0,0,0,0,0,20,20,57,,,['l'],0,[0.15084272427520773],2018_Jul_09_1226,60.078438476,go-nogo,001,20,
logos/1.jpg,properties1.xlsx,frogs/ab45.jpg,0,0,400,l,0,0,0,0,0,21,21,44,,,['l'],0,[0.13428804348131962],2018_Jul_09_1226,60.078438476,go-nogo,001,20,
logos/1.jpg,properties1.xlsx,frogs/ab77.jpg,0,0,400,l,0,0,0,0,0,22,22,75,,,['l'],0,[0.100518201331397],2018_Jul_09_1226,60.078438476,go-nogo,001,20,
logos/1.jpg,properties1.xlsx,logos/1.jpg,0,0,400,a,0,0,0,0,0,23,23,80,,,['a'],0,[0.15099632440615096],2018_Jul_09_1226,60.078438476,go-nogo,001,20,
logos/1.jpg,properties1.xlsx,frogs/ab36.jpg,0,0,400,l,0,0,0,0,0,24,24,35,,,['l'],0,[0.11724696227338427],2018_Jul_09_1226,60.078438476,go-nogo,001,20,
logos/1.jpg,properties1.xlsx,frogs/ab30.jpg,0,0,400,l,0,0,0,0,0,25,25,29,,,['l'],0,[0.03458961173873831],2018_Jul_09_1226,60.078438476,go-nogo,001,20,
logos/1.jpg,properties1.xlsx,frogs/ab41.jpg,0,0,400,l,0,0,0,0,0,26,26,40,,,['l'],0,[0.08428664970233513],2018_Jul_09_1226,60.078438476,go-nogo,001,20,
logos/1.jpg,properties1.xlsx,logos/1.jpg,0,0,400,a,0,0,0,0,0,27,27,88,,,['a'],0,[0.1508393109388635],2018_Jul_09_1226,60.078438476,go-nogo,001,20,
logos/1.jpg,properties1.xlsx,frogs/ab72.jpg,0,0,400,l,0,0,0,0,0,28,28,70,,,['l'],0,[0.05096338571092929],2018_Jul_09_1226,60.078438476,go-nogo,001,20,
logos/1.jpg,properties1.xlsx,frogs/ab66.jpg,0,0,400,l,0,0,0,0,0,29,29,64,,,['l'],0,[0.06759941768541466],2018_Jul_09_1226,60.078438476,go-nogo,001,20,
logos/1.jpg,properties1.xlsx,frogs/ab15.jpg,0,0,400,l,0,0,0,0,0,30,30,14,,,['l'],0,[0.08439815201927559],2018_Jul_09_1226,60.078438476,go-nogo,001,20,
logos/1.jpg,properties1.xlsx,frogs/ab13.jpg,0,0,400,l,0,0,0,0,0,31,31,12,,,['l'],0,[0.05089511898586352],2018_Jul_09_1226,60.078438476,go-nogo,001,20,
logos/1.jpg,properties1.xlsx,frogs/ab55.jpg,0,0,400,l,0,0,0,0,0,32,32,54,,,['l'],0,[0.034304029272789194],2018_Jul_09_1226,60.078438476,go-nogo,001,20,
logos/1.jpg,properties1.xlsx,logos/1.jpg,0,0,400,a,0,0,0,0,0,33,33,87,,,['l'],0,[0.15101452886574407],2018_Jul_09_1226,60.078438476,go-nogo,001,20,
logos/1.jpg,properties1.xlsx,frogs/ab38.jpg,0,0,400,l,0,0,0,0,0,34,34,37,,,['l'],0,[0.5172979347607907],2018_Jul_09_1226,60.078438476,go-nogo,001,20,
logos/1.jpg,properties1.xlsx,frogs/ab75.jpg,0,0,400,l,0,0,0,0,0,35,35,73,,,['l'],0,[0.1843116239460869],2018_Jul_09_1226,60.078438476,go-nogo,001,20,
logos/1.jpg,properties1.xlsx,frogs/ab67.jpg,0,0,400,l,0,0,0,0,0,36,36,65,,,['l'],0,[0.11774587825493654],2018_Jul_09_1226,60.078438476,go-nogo,001,20,
logos/1.jpg,properties1.xlsx,frogs/ab26.jpg,0,0,400,l,0,0,0,0,0,37,37,25,,,['l'],0,[0.15134676025991212],2018_Jul_09_1226,60.078438476,go-nogo,001,20,
logos/1.jpg,properties1.xlsx,frogs/ab68.jpg,0,0,400,l,0,0,0,0,0,38,38,66,,,['l'],0,[0.06784517789401434],2018_Jul_09_1226,60.078438476,go-nogo,001,20,
logos/1.jpg,properties1.xlsx,frogs/ab76.jpg,0,0,400,l,0,0,0,0,0,39,39,74,,,['l'],0,[0.10103304621497955],2018_Jul_09_1226,60.078438476,go-nogo,001,20,
logos/1.jpg,properties1.xlsx,frogs/ab52.jpg,0,0,400,l,0,0,0,0,0,40,40,51,,,['l'],0,[0.27340652663951914],2018_Jul_09_1226,60.078438476,go-nogo,001,20,
logos/1.jpg,properties1.xlsx,frogs/ab39.jpg,0,0,400,l,0,0,0,0,0,41,41,38,,,['l'],0,[0.13355303841035493],2018_Jul_09_1226,60.078438476,go-nogo,001,20,
logos/1.jpg,properties1.xlsx,frogs/ab43.jpg,0,0,400,l,0,0,0,0,0,42,42,42,,,['l'],0,[0.1009983439635107],2018_Jul_09_1226,60.078438476,go-nogo,001,20,
logos/1.jpg,properties1.xlsx,logos/1.jpg,0,0,400,a,0,0,0,0,0,43,43,81,,,['a'],0,[0.08440896091815375],2018_Jul_09_1226,60.078438476,go-nogo,001,20,
logos/1.jpg,properties1.xlsx,frogs/ab23.jpg,0,0,400,l,0,0,0,0,0,44,44,22,,,['l'],0,[0.10104328622401226],2018_Jul_09_1226,60.078438476,go-nogo,001,20,
logos/1.jpg,properties1.xlsx,frogs/ab48.jpg,0,0,400,l,0,0,0,0,0,45,45,47,,,['l'],0,[0.1341719900492535],2018_Jul_09_1226,60.078438476,go-nogo,001,20,
logos/1.jpg,properties1.xlsx,logos/1.jpg,0,0,400,a,0,0,0,0,0,46,46,86,,,['a'],0,[0.1675299562921282],2018_Jul_09_1226,60.078438476,go-nogo,001,20,
logos/1.jpg,properties1.xlsx,frogs/ab62.jpg,0,0,400,l,0,0,0,0,0,47,47,60,,,['l'],0,[0.13429543904294405],2018_Jul_09_1226,60.078438476,go-nogo,001,20,
logos/1.jpg,properties1.xlsx,frogs/ab12.jpg,0,0,400,l,0,0,0,0,0,48,48,11,,,['l'],0,[0.101125206292636],2018_Jul_09_1226,60.078438476,go-nogo,001,20,
logos/1.jpg,properties1.xlsx,frogs/ab5.jpg,0,0,400,l,0,0,0,0,0,49,49,4,,,['l'],0,[0.13427609680456953],2018_Jul_09_1226,60.078438476,go-nogo,001,20,
logos/1.jpg,properties1.xlsx,frogs/ab57.jpg,0,0,400,l,0,0,0,0,0,50,50,56,,,['l'],0,[0.10094486836169381],2018_Jul_09_1226,60.078438476,go-nogo,001,20,
logos/1.jpg,properties1.xlsx,logos/1.jpg,0,0,400,a,0,0,0,0,0,51,51,82,,,['a'],0,[0.1008470193892208],2018_Jul_09_1226,60.078438476,go-nogo,001,20,
logos/1.jpg,properties1.xlsx,frogs/ab6.jpg,0,0,400,l,0,0,0,0,0,52,52,5,,,['l'],0,[0.1343483457549155],2018_Jul_09_1226,60.078438476,go-nogo,001,20,
logos/1.jpg,properties1.xlsx,frogs/ab33.jpg,0,0,400,l,0,0,0,0,0,53,53,32,,,['l'],0,[0.0843771031131837],2018_Jul_09_1226,60.078438476,go-nogo,001,20,
logos/1.jpg,properties1.xlsx,frogs/ab70.jpg,0,0,400,l,0,0,0,0,0,54,54,68,,,['l'],0,[0.13144871661461366],2018_Jul_09_1226,60.078438476,go-nogo,001,20,
logos/1.jpg,properties1.xlsx,frogs/ab34.jpg,0,0,400,l,0,0,0,0,0,55,55,33,,,['l'],0,[0.03515508777672949],2018_Jul_09_1226,60.078438476,go-nogo,001,20,
logos/1.jpg,properties1.xlsx,frogs/ab61.jpg,0,0,400,l,0,0,0,0,0,56,56,59,,,['l'],0,[0.051050994674369576],2018_Jul_09_1226,60.078438476,go-nogo,001,20,
logos/1.jpg,properties1.xlsx,frogs/ab42.jpg,0,0,400,l,0,0,0,0,0,57,57,41,,,['l'],0,[0.050362638531623816],2018_Jul_09_1226,60.078438476,go-nogo,001,20,
logos/1.jpg,properties1.xlsx,frogs/ab63.jpg,0,0,400,l,0,0,0,0,0,58,58,61,,,['l'],0,[0.08443740538677957],2018_Jul_09_1226,60.078438476,go-nogo,001,20,
logos/1.jpg,properties1.xlsx,frogs/ab21.jpg,0,0,400,l,0,0,0,0,0,59,59,20,,,['l'],0,[0.01689715219708887],2018_Jul_09_1226,60.078438476,go-nogo,001,20,
logos/1.jpg,properties1.xlsx,frogs/ab32.jpg,0,0,400,l,0,0,0,0,0,60,60,31,,,['l'],0,[0.050827421150643204],2018_Jul_09_1226,60.078438476,go-nogo,001,20,
logos/1.jpg,properties1.xlsx,frogs/ab3.jpg,0,0,400,l,0,0,0,0,0,61,61,2,,,['l'],0,[0.03423462476894201],2018_Jul_09_1226,60.078438476,go-nogo,001,20,
logos/1.jpg,properties1.xlsx,logos/1.jpg,0,0,400,a,0,0,0,0,0,62,62,89,,,['a'],0,[0.0843327297416181],2018_Jul_09_1226,60.078438476,go-nogo,001,20,
logos/1.jpg,properties1.xlsx,logos/1.jpg,0,0,400,a,0,0,0,0,0,63,63,85,,,['a'],0,[0.1507647864300452],2018_Jul_09_1226,60.078438476,go-nogo,001,20,
logos/1.jpg,properties1.xlsx,frogs/ab31.jpg,0,0,400,l,0,0,0,0,0,64,64,30,,,['l'],0,[0.05068804325310339],2018_Jul_09_1226,60.078438476,go-nogo,001,20,
logos/1.jpg,properties1.xlsx,frogs/ab4.jpg,0,0,400,l,0,0,0,0,0,65,65,3,,,['l'],0,[0.08440782313846285],2018_Jul_09_1226,60.078438476,go-nogo,001,20,
logos/1.jpg,properties1.xlsx,frogs/ab69.jpg,0,0,400,l,0,0,0,0,0,66,66,67,,,['l'],0,[0.017708388444589218],2018_Jul_09_1226,60.078438476,go-nogo,001,20,
logos/1.jpg,properties1.xlsx,frogs/ab40.jpg,0,0,400,l,0,0,0,0,0,67,67,39,,,['l'],0,[0.034400740466480784],2018_Jul_09_1226,60.078438476,go-nogo,001,20,
logos/1.jpg,properties1.xlsx,frogs/ab44.jpg,0,0,400,l,0,0,0,0,0,68,68,43,,,['l'],0,[0.08422748520752066],2018_Jul_09_1226,60.078438476,go-nogo,001,20,
logos/1.jpg,properties1.xlsx,logos/1.jpg,0,0,400,a,0,0,0,0,0,69,69,84,,,['a'],0,[0.11871640352637769],2018_Jul_09_1226,60.078438476,go-nogo,001,20,
logos/1.jpg,properties1.xlsx,frogs/ab19.jpg,0,0,400,l,0,0,0,0,0,70,70,18,,,['l'],0,[0.10102223731610138],2018_Jul_09_1226,60.078438476,go-nogo,001,20,
logos/1.jpg,properties1.xlsx,frogs/ab16.jpg,0,0,400,l,0,0,0,0,0,71,71,15,,,['l'],0,[1.2337583505841394],2018_Jul_09_1226,60.078438476,go-nogo,001,20,
logos/1.jpg,properties1.xlsx,frogs/ab65.jpg,0,0,400,l,0,0,0,0,0,72,72,63,,,['l'],0,[0.05107716358543257],2018_Jul_09_1226,60.078438476,go-nogo,001,20,
logos/1.jpg,properties1.xlsx,frogs/ab20.jpg,0,0,400,l,0,0,0,0,0,73,73,19,,,['l'],0,[0.034305735940506565],2018_Jul_09_1226,60.078438476,go-nogo,001,20,
logos/1.jpg,properties1.xlsx,frogs/ab73.jpg,0,0,400,l,0,0,0,0,0,74,74,71,,,['l'],0,[0.06763639549444633],2018_Jul_09_1226,60.078438476,go-nogo,001,20,
logos/1.jpg,properties1.xlsx,frogs/ab81.jpg,0,0,400,l,0,0,0,0,0,75,75,79,,,['l'],0,[0.05104075466624636],2018_Jul_09_1226,60.078438476,go-nogo,001,20,
logos/1.jpg,properties1.xlsx,frogs/ab74.jpg,0,0,400,l,0,0,0,0,0,76,76,72,,,['l'],0,[0.10015126768394111],2018_Jul_09_1226,60.078438476,go-nogo,001,20,
logos/1.jpg,properties1.xlsx,logos/1.jpg,0,0,400,a,0,0,0,0,0,77,77,83,,,['a'],0,[0.11776749604996439],2018_Jul_09_1226,60.078438476,go-nogo,001,20,
logos/1.jpg,properties1.xlsx,frogs/ab1.jpg,0,0,400,l,0,0,0,0,0,78,78,0,,,['l'],0,[0.10096534837975923],2018_Jul_09_1226,60.078438476,go-nogo,001,20,
logos/1.jpg,properties1.xlsx,frogs/ab35.jpg,0,0,400,l,0,0,0,0,0,79,79,34,,,['l'],0,[0.0843901875678057],2018_Jul_09_1226,60.078438476,go-nogo,001,20,
logos/1.jpg,properties1.xlsx,frogs/ab29.jpg,0,0,400,l,0,0,0,0,0,80,80,28,,,['l'],0,[0.1178482783416257],2018_Jul_09_1226,60.078438476,go-nogo,001,20,
logos/1.jpg,properties1.xlsx,frogs/ab54.jpg,0,0,400,l,0,0,0,0,0,81,81,53,,,['l'],0,[0.08447836542200093],2018_Jul_09_1226,60.078438476,go-nogo,001,20,
logos/1.jpg,properties1.xlsx,frogs/ab17.jpg,0,0,400,l,0,0,0,0,0,82,82,16,,,['l'],0,[0.03445933607235929],2018_Jul_09_1226,60.078438476,go-nogo,001,20,
logos/1.jpg,properties1.xlsx,frogs/ab27.jpg,0,0,400,l,0,0,0,0,0,83,83,26,,,['l'],0,[0.03428354925563326],2018_Jul_09_1226,60.078438476,go-nogo,001,20,
logos/1.jpg,properties1.xlsx,frogs/ab10.jpg,0,0,400,l,0,0,0,0,0,84,84,9,,,['l'],0,[0.017605988356990565],2018_Jul_09_1226,60.078438476,go-nogo,001,20,
logos/1.jpg,properties1.xlsx,frogs/ab64.jpg,0,0,400,l,0,0,0,0,0,85,85,62,,,['l'],0,[0.08435264086983807],2018_Jul_09_1226,60.078438476,go-nogo,001,20,
logos/1.jpg,properties1.xlsx,frogs/ab49.jpg,0,0,400,l,0,0,0,0,0,86,86,48,,,['l'],0,[0.05102027464818093],2018_Jul_09_1226,60.078438476,go-nogo,001,20,
logos/1.jpg,properties1.xlsx,frogs/ab46.jpg,0,0,400,l,0,0,0,0,0,87,87,45,,,['l'],0,[0.10080605935490894],2018_Jul_09_1226,60.078438476,go-nogo,001,20,
logos/1.jpg,properties1.xlsx,frogs/ab80.jpg,0,0,400,l,0,0,0,0,0,88,88,78,,,['l'],0,[0.05086439895967487],2018_Jul_09_1226,60.078438476,go-nogo,001,20,
logos/1.jpg,properties1.xlsx,frogs/ab14.jpg,0,0,400,l,0,0,0,0,0,89,89,13,,,['l'],0,[0.11753254473933339],2018_Jul_09_1226,60.078438476,go-nogo,001,20,
logos/1.jpg,properties1.xlsx,,,,,,0,0,0,0,,,,,,,,,,2018_Jul_09_1226,60.078438476,go-nogo,001,20,
logos/2.jpg,properties2.xlsx,frogs/ab60.jpg,0,0,400,l,0,1,1,1,0,0,0,58,space,6.19500958863,['l'],0,[2.4995269684850427],2018_Jul_09_1226,60.078438476,go-nogo,001,20,
logos/2.jpg,properties2.xlsx,frogs/ab53.jpg,0,0,400,l,0,1,1,1,0,1,1,52,,,['l'],0,[0.16773191201991722],2018_Jul_09_1226,60.078438476,go-nogo,001,20,
logos/2.jpg,properties2.xlsx,frogs/ab39.jpg,0,0,400,l,0,1,1,1,0,2,2,38,,,['l'],0,[0.11772539823687111],2018_Jul_09_1226,60.078438476,go-nogo,001,20,
logos/2.jpg,properties2.xlsx,frogs/ab21.jpg,0,0,400,l,0,1,1,1,0,3,3,20,,,['l'],0,[0.18433722396821395],2018_Jul_09_1226,60.078438476,go-nogo,001,20,
logos/2.jpg,properties2.xlsx,logos/2.jpg,0,0,400,a,0,1,1,1,0,4,4,83,,,['a'],0,[0.1673888717277805],2018_Jul_09_1226,60.078438476,go-nogo,001,20,
logos/2.jpg,properties2.xlsx,frogs/ab55.jpg,0,0,400,l,0,1,1,1,0,5,5,54,,,['l'],0,[0.06772286667910521],2018_Jul_09_1226,60.078438476,go-nogo,001,20,
logos/2.jpg,properties2.xlsx,frogs/ab66.jpg,0,0,400,l,0,1,1,1,0,6,6,64,,,['l'],0,[0.11693805534287094],2018_Jul_09_1226,60.078438476,go-nogo,001,20,
logos/2.jpg,properties2.xlsx,frogs/ab35.jpg,0,0,400,l,0,1,1,1,0,7,7,34,,,['l'],0,[0.11758886478673958],2018_Jul_09_1226,60.078438476,go-nogo,001,20,
logos/2.jpg,properties2.xlsx,frogs/ab50.jpg,0,0,400,l,0,1,1,1,0,8,8,49,,,['l'],0,[0.0675271687350687],2018_Jul_09_1226,60.078438476,go-nogo,001,20,
logos/2.jpg,properties2.xlsx,frogs/ab71.jpg,0,0,400,l,0,1,1,1,0,9,9,69,,,['l'],0,[0.13436427465694578],2018_Jul_09_1226,60.078438476,go-nogo,001,20,
logos/2.jpg,properties2.xlsx,frogs/ab78.jpg,0,0,400,l,0,1,1,1,0,10,10,76,,,['l'],0,[0.10102223731701088],2018_Jul_09_1226,60.078438476,go-nogo,001,20,
logos/2.jpg,properties2.xlsx,frogs/ab76.jpg,0,0,400,l,0,1,1,1,0,11,11,74,,,['l'],0,[0.13432900351654098],2018_Jul_09_1226,60.078438476,go-nogo,001,20,
logos/2.jpg,properties2.xlsx,frogs/ab52.jpg,0,0,400,l,0,1,1,1,0,12,12,51,,,['l'],0,[0.05099296795833652],2018_Jul_09_1226,60.078438476,go-nogo,001,20,
logos/2.jpg,properties2.xlsx,frogs/ab72.jpg,0,0,400,l,0,1,1,1,0,13,13,70,,,['l'],0,[0.08423886299442529],2018_Jul_09_1226,60.078438476,go-nogo,001,20,
logos/2.jpg,properties2.xlsx,frogs/ab17.jpg,0,0,400,l,0,1,1,1,0,14,14,16,,,['l'],0,[0.15099632440524147],2018_Jul_09_1226,60.078438476,go-nogo,001,20,
logos/2.jpg,properties2.xlsx,frogs/ab54.jpg,0,0,400,l,0,1,1,1,0,15,15,53,,,['l'],0,[0.15084158649551682],2018_Jul_09_1226,60.078438476,go-nogo,001,20,
logos/2.jpg,properties2.xlsx,frogs/ab45.jpg,0,0,400,l,0,1,1,1,0,16,16,44,,,['l'],0,[0.06753228873913031],2018_Jul_09_1226,60.078438476,go-nogo,001,20,
logos/2.jpg,properties2.xlsx,frogs/ab61.jpg,0,0,400,l,0,1,1,1,0,17,17,59,,,['l'],0,[0.10111667295313964],2018_Jul_09_1226,60.078438476,go-nogo,001,20,
logos/2.jpg,properties2.xlsx,frogs/ab77.jpg,0,0,400,l,0,1,1,1,0,18,18,75,,,['l'],0,[0.10120712636307871],2018_Jul_09_1226,60.078438476,go-nogo,001,20,
logos/2.jpg,properties2.xlsx,frogs/ab12.jpg,0,0,400,l,0,1,1,1,0,19,19,11,,,['l'],0,[0.13359286066588538],2018_Jul_09_1226,60.078438476,go-nogo,001,20,
logos/2.jpg,properties2.xlsx,frogs/ab15.jpg,0,0,400,l,0,1,1,1,0,20,20,14,,,['l'],0,[0.10027756112594943],2018_Jul_09_1226,60.078438476,go-nogo,001,20,
logos/2.jpg,properties2.xlsx,frogs/ab81.jpg,0,0,400,l,0,1,1,1,0,21,21,79,,,['l'],0,[0.03432052706466493],2018_Jul_09_1226,60.078438476,go-nogo,001,20,
logos/2.jpg,properties2.xlsx,logos/2.jpg,0,0,400,a,0,1,1,1,0,22,22,82,,,['a'],0,[0.0011133165053252014],2018_Jul_09_1226,60.078438476,go-nogo,001,20,
logos/2.jpg,properties2.xlsx,frogs/ab74.jpg,0,0,400,l,0,1,1,1,0,23,23,72,,,['l'],0,[0.017756744041435013],2018_Jul_09_1226,60.078438476,go-nogo,001,20,
logos/2.jpg,properties2.xlsx,frogs/ab63.jpg,0,0,400,l,0,1,1,1,0,24,24,61,,,['l'],0,[0.06775188003757648],2018_Jul_09_1226,60.078438476,go-nogo,001,20,
logos/2.jpg,properties2.xlsx,frogs/ab7.jpg,0,0,400,l,0,1,1,1,0,25,25,6,,,['l'],0,[0.033564473086698854],2018_Jul_09_1226,60.078438476,go-nogo,001,20,
logos/2.jpg,properties2.xlsx,frogs/ab6.jpg,0,0,400,l,0,1,1,1,0,26,26,5,,,['l'],0,[0.06703280386773258],2018_Jul_09_1226,60.078438476,go-nogo,001,20,
logos/2.jpg,properties2.xlsx,frogs/ab24.jpg,0,0,400,l,0,1,1,1,0,27,27,23,,,['l'],0,[0.0011372098597348668],2018_Jul_09_1226,60.078438476,go-nogo,001,20,
logos/2.jpg,properties2.xlsx,logos/2.jpg,0,0,400,a,0,1,1,1,0,28,28,87,,,['a'],0,[0.05106123468340229],2018_Jul_09_1226,60.078438476,go-nogo,001,20,
logos/2.jpg,properties2.xlsx,frogs/ab73.jpg,0,0,400,l,0,1,1,1,0,29,29,71,,,['l'],0,[0.017729437351590605],2018_Jul_09_1226,60.078438476,go-nogo,001,20,
logos/2.jpg,properties2.xlsx,frogs/ab42.jpg,0,0,400,l,0,1,1,1,0,30,30,41,,,['l'],0,[0.05129561710600683],2018_Jul_09_1226,60.078438476,go-nogo,001,20,
logos/2.jpg,properties2.xlsx,frogs/ab20.jpg,0,0,400,l,0,1,1,1,0,31,31,19,,,['l'],0,[0.03443544271794963],2018_Jul_09_1226,60.078438476,go-nogo,001,20,
logos/2.jpg,properties2.xlsx,frogs/ab44.jpg,0,0,400,l,0,1,1,1,0,32,32,43,,,['l'],0,[0.6000884054083144],2018_Jul_09_1226,60.078438476,go-nogo,001,20,
logos/2.jpg,properties2.xlsx,frogs/ab10.jpg,0,0,400,l,0,1,1,1,0,33,33,9,,,['l'],0,[0.06765004883891379],2018_Jul_09_1226,60.078438476,go-nogo,001,20,
logos/2.jpg,properties2.xlsx,frogs/ab47.jpg,0,0,400,l,0,1,1,1,0,34,34,46,,,['l'],0,[0.0011070587224821793],2018_Jul_09_1226,60.078438476,go-nogo,001,20,
logos/2.jpg,properties2.xlsx,frogs/ab40.jpg,0,0,400,l,0,1,1,1,0,35,35,39,,,['l'],0,[0.01772261067890213],2018_Jul_09_1226,60.078438476,go-nogo,001,20,
logos/2.jpg,properties2.xlsx,frogs/ab16.jpg,0,0,400,l,0,1,1,1,0,36,36,15,,,['l'],0,[0.5008968540978458],2018_Jul_09_1226,60.078438476,go-nogo,001,20,
logos/2.jpg,properties2.xlsx,frogs/ab38.jpg,0,0,400,l,0,1,1,1,0,37,37,37,,,['l'],0,[0.5007005872648733],2018_Jul_09_1226,60.078438476,go-nogo,001,20,
logos/2.jpg,properties2.xlsx,frogs/ab62.jpg,0,0,400,l,0,1,1,1,0,38,38,60,,,['l'],0,[0.0344997272177352],2018_Jul_09_1226,60.078438476,go-nogo,001,20,
logos/2.jpg,properties2.xlsx,frogs/ab19.jpg,0,0,400,l,0,1,1,1,0,39,39,18,,,['l'],0,[0.5510893947075601],2018_Jul_09_1226,60.078438476,go-nogo,001,20,
logos/2.jpg,properties2.xlsx,logos/2.jpg,0,0,400,a,0,1,1,1,0,40,40,84,,,['a'],0,[0.06694747046185512],2018_Jul_09_1226,60.078438476,go-nogo,001,20,
logos/2.jpg,properties2.xlsx,logos/2.jpg,0,0,400,a,0,1,1,1,0,41,41,85,,,['l'],0,[0.5342314958779752],2018_Jul_09_1226,60.078438476,go-nogo,001,20,
logos/2.jpg,properties2.xlsx,logos/2.jpg,0,0,400,a,0,1,1,1,0,42,42,80,,,['a'],0,[0.08426560079533374],2018_Jul_09_1226,60.078438476,go-nogo,001,20,
logos/2.jpg,properties2.xlsx,frogs/ab67.jpg,0,0,400,l,0,1,1,1,0,43,43,65,,,['a'],0,[1.2671026634834561],2018_Jul_09_1226,60.078438476,go-nogo,001,20,
logos/2.jpg,properties2.xlsx,frogs/ab9.jpg,0,0,400,l,0,1,1,1,0,44,44,8,,,['l'],0,[0.2176405768313998],2018_Jul_09_1226,60.078438476,go-nogo,001,20,
logos/2.jpg,properties2.xlsx,frogs/ab32.jpg,0,0,400,l,0,1,1,1,0,45,45,31,,,['l'],0,[0.03449119387641986],2018_Jul_09_1226,60.078438476,go-nogo,001,20,
logos/2.jpg,properties2.xlsx,frogs/ab33.jpg,0,0,400,l,0,1,1,1,0,46,46,32,,,['l'],0,[0.051049856895588164],2018_Jul_09_1226,60.078438476,go-nogo,001,20,
logos/2.jpg,properties2.xlsx,frogs/ab3.jpg,0,0,400,l,0,1,1,1,0,47,47,2,,,['l'],0,[0.5176170816994272],2018_Jul_09_1226,60.078438476,go-nogo,001,20,
logos/2.jpg,properties2.xlsx,frogs/ab34.jpg,0,0,400,l,0,1,1,1,0,48,48,33,,,['l'],0,[0.034470713859263924],2018_Jul_09_1226,60.078438476,go-nogo,001,20,
logos/2.jpg,properties2.xlsx,frogs/ab64.jpg,0,0,400,l,0,1,1,1,0,49,49,62,,,['l'],0,[0.6339623543144626],2018_Jul_09_1226,60.078438476,go-nogo,001,20,
logos/2.jpg,properties2.xlsx,frogs/ab30.jpg,0,0,400,l,0,1,1,1,0,50,50,29,,,['l'],0,[0.05196064878418838],2018_Jul_09_1226,60.078438476,go-nogo,001,20,
logos/2.jpg,properties2.xlsx,frogs/ab68.jpg,0,0,400,l,0,1,1,1,0,51,51,66,,,['l'],0,[0.06679614588847471],2018_Jul_09_1226,60.078438476,go-nogo,001,20,
logos/2.jpg,properties2.xlsx,frogs/ab58.jpg,0,0,400,l,0,1,1,1,0,52,52,57,,,['l'],0,[0.017468317128077615],2018_Jul_09_1226,60.078438476,go-nogo,001,20,
logos/2.jpg,properties2.xlsx,frogs/ab46.jpg,0,0,400,l,0,1,1,1,0,53,53,45,,,['l'],0,[0.05102539465224254],2018_Jul_09_1226,60.078438476,go-nogo,001,20,
logos/2.jpg,properties2.xlsx,logos/2.jpg,0,0,400,a,0,1,1,1,0,54,54,89,,,['a'],0,[0.10101825509082119],2018_Jul_09_1226,60.078438476,go-nogo,001,20,
logos/2.jpg,properties2.xlsx,logos/2.jpg,0,0,400,a,0,1,1,1,0,55,55,81,,,['a'],0,[0.0011235565143579151],2018_Jul_09_1226,60.078438476,go-nogo,001,20,
logos/2.jpg,properties2.xlsx,frogs/ab5.jpg,0,0,400,l,0,1,1,1,0,56,56,4,,,['l'],0,[0.0675402531906002],2018_Jul_09_1226,60.078438476,go-nogo,001,20,
logos/2.jpg,properties2.xlsx,frogs/ab70.jpg,0,0,400,l,0,1,1,1,0,57,57,68,,,['l'],0,[0.0509867101754935],2018_Jul_09_1226,60.078438476,go-nogo,001,20,
logos/2.jpg,properties2.xlsx,logos/2.jpg,0,0,400,a,0,1,1,1,0,58,58,86,,,['a'],0,[0.03362420647044928],2018_Jul_09_1226,60.078438476,go-nogo,001,20,
logos/2.jpg,properties2.xlsx,frogs/ab2.jpg,0,0,400,l,0,1,1,1,0,59,59,1,,,['l'],0,[0.051657430748491606],2018_Jul_09_1226,60.078438476,go-nogo,001,20,
logos/2.jpg,properties2.xlsx,frogs/ab43.jpg,0,0,400,l,0,1,1,1,0,60,60,42,,,['l'],0,[0.05088032786261465],2018_Jul_09_1226,60.078438476,go-nogo,001,20,
logos/2.jpg,properties2.xlsx,frogs/ab56.jpg,0,0,400,l,0,1,1,1,0,61,61,55,,,['l'],0,[0.1008822905305351],2018_Jul_09_1226,60.078438476,go-nogo,001,20,
logos/2.jpg,properties2.xlsx,frogs/ab4.jpg,0,0,400,l,0,1,1,1,0,62,62,3,,,['l'],0,[0.017724886236464954],2018_Jul_09_1226,60.078438476,go-nogo,001,20,
logos/2.jpg,properties2.xlsx,frogs/ab11.jpg,0,0,400,l,0,1,1,1,0,63,63,10,,,['l'],0,[0.834027093925215],2018_Jul_09_1226,60.078438476,go-nogo,001,20,
logos/2.jpg,properties2.xlsx,frogs/ab80.jpg,0,0,400,l,0,1,1,1,0,64,64,78,,,['l'],0,[0.434179783833315],2018_Jul_09_1226,60.078438476,go-nogo,001,20,
logos/2.jpg,properties2.xlsx,frogs/ab48.jpg,0,0,400,l,0,1,1,1,0,65,65,47,,,['l'],0,[0.001678792544225871],2018_Jul_09_1226,60.078438476,go-nogo,001,20,
logos/2.jpg,properties2.xlsx,frogs/ab37.jpg,0,0,400,l,0,1,1,1,0,66,66,36,,,['l'],0,[0.5017956993106054],2018_Jul_09_1226,60.078438476,go-nogo,001,20,
logos/2.jpg,properties2.xlsx,frogs/ab25.jpg,0,0,400,l,0,1,1,1,0,67,67,24,,,['l'],0,[0.0011258320719207404],2018_Jul_09_1226,60.078438476,go-nogo,001,20,
logos/2.jpg,properties2.xlsx,frogs/ab28.jpg,0,0,400,l,0,1,1,1,0,68,68,27,,,['l'],0,[0.45080842024526646],2018_Jul_09_1226,60.078438476,go-nogo,001,20,
logos/2.jpg,properties2.xlsx,frogs/ab1.jpg,0,0,400,l,0,1,1,1,0,69,69,0,,,['l'],0,[0.4676338923809453],2018_Jul_09_1226,60.078438476,go-nogo,001,20,
logos/2.jpg,properties2.xlsx,frogs/ab31.jpg,0,0,400,l,0,1,1,1,0,70,70,30,,,['l'],0,[0.4840861730863253],2018_Jul_09_1226,60.078438476,go-nogo,001,20,
logos/2.jpg,properties2.xlsx,frogs/ab18.jpg,0,0,400,l,0,1,1,1,0,71,71,17,,,['l'],0,[0.450918784784335],2018_Jul_09_1226,60.078438476,go-nogo,001,20,
logos/2.jpg,properties2.xlsx,frogs/ab69.jpg,0,0,400,l,0,1,1,1,0,72,72,67,,,['l'],0,[0.5007921784535938],2018_Jul_09_1226,60.078438476,go-nogo,001,20,
logos/2.jpg,properties2.xlsx,frogs/ab23.jpg,0,0,400,l,0,1,1,1,0,73,73,22,,,['l'],0,[0.001104214275983395],2018_Jul_09_1226,60.078438476,go-nogo,001,20,
logos/2.jpg,properties2.xlsx,logos/2.jpg,0,0,400,a,0,1,1,1,0,74,74,88,,,['a'],0,[0.0841421518016432],2018_Jul_09_1226,60.078438476,go-nogo,001,20,
logos/2.jpg,properties2.xlsx,frogs/ab36.jpg,0,0,400,l,0,1,1,1,0,75,75,35,,,['l'],0,[0.03433930041410349],2018_Jul_09_1226,60.078438476,go-nogo,001,20,
logos/2.jpg,properties2.xlsx,frogs/ab29.jpg,0,0,400,l,0,1,1,1,0,76,76,28,,,['l'],0,[0.017749917368746537],2018_Jul_09_1226,60.078438476,go-nogo,001,20,
logos/2.jpg,properties2.xlsx,frogs/ab57.jpg,0,0,400,l,0,1,1,1,0,77,77,56,,,['l'],0,[0.5342178425325983],2018_Jul_09_1226,60.078438476,go-nogo,001,20,
logos/2.jpg,properties2.xlsx,frogs/ab27.jpg,0,0,400,l,0,1,1,1,0,78,78,26,,,['l'],0,[0.0011008009396391571],2018_Jul_09_1226,60.078438476,go-nogo,001,20,
logos/2.jpg,properties2.xlsx,frogs/ab22.jpg,0,0,400,l,0,1,1,1,0,79,79,21,,,['l'],0,[0.0011667921071421006],2018_Jul_09_1226,60.078438476,go-nogo,001,20,
logos/2.jpg,properties2.xlsx,frogs/ab49.jpg,0,0,400,l,0,1,1,1,0,80,80,48,,,['l'],0,[0.0009722319409775082],2018_Jul_09_1226,60.078438476,go-nogo,001,20,
logos/2.jpg,properties2.xlsx,frogs/ab51.jpg,0,0,400,l,0,1,1,1,0,81,81,50,,,['l'],0,[0.017693597320430854],2018_Jul_09_1226,60.078438476,go-nogo,001,20,
logos/2.jpg,properties2.xlsx,frogs/ab8.jpg,0,0,400,l,0,1,1,1,0,82,82,7,,,['l'],0,[0.0011212809567950899],2018_Jul_09_1226,60.078438476,go-nogo,001,20,
logos/2.jpg,properties2.xlsx,frogs/ab14.jpg,0,0,400,l,0,1,1,1,0,83,83,13,,,['l'],0,[0.4674893944802534],2018_Jul_09_1226,60.078438476,go-nogo,001,20,
logos/2.jpg,properties2.xlsx,frogs/ab41.jpg,0,0,400,l,0,1,1,1,0,84,84,40,,,['l'],0,[0.5674546353393453],2018_Jul_09_1226,60.078438476,go-nogo,001,20,
logos/2.jpg,properties2.xlsx,frogs/ab75.jpg,0,0,400,l,0,1,1,1,0,85,85,73,,,['l'],0,[0.0011332276335451752],2018_Jul_09_1226,60.078438476,go-nogo,001,20,
logos/2.jpg,properties2.xlsx,frogs/ab79.jpg,0,0,400,l,0,1,1,1,0,86,86,77,,,['l'],0,[0.5673886441709328],2018_Jul_09_1226,60.078438476,go-nogo,001,20,
logos/2.jpg,properties2.xlsx,frogs/ab65.jpg,0,0,400,l,0,1,1,1,0,87,87,63,,,['l'],0,[0.051082852479339635],2018_Jul_09_1226,60.078438476,go-nogo,001,20,
logos/2.jpg,properties2.xlsx,frogs/ab13.jpg,0,0,400,l,0,1,1,1,0,88,88,12,,,['l'],0,[0.017752192926309363],2018_Jul_09_1226,60.078438476,go-nogo,001,20,
logos/2.jpg,properties2.xlsx,frogs/ab26.jpg,0,0,400,l,0,1,1,1,0,89,89,25,,,['l'],0,[0.03485642085524887],2018_Jul_09_1226,60.078438476,go-nogo,001,20,
logos/2.jpg,properties2.xlsx,,,,,,0,1,1,1,,,,,,,,,,2018_Jul_09_1226,60.078438476,go-nogo,001,20,
logos/3.jpg,properties3.xlsx,frogs/ab61.jpg,0,0,400,l,0,2,2,2,0,0,0,59,space,8.15550249714,['l'],0,[0.8007669766539038],2018_Jul_09_1226,60.078438476,go-nogo,001,20,
logos/3.jpg,properties3.xlsx,frogs/ab58.jpg,0,0,400,l,0,2,2,2,0,1,1,57,,,['l'],0,[0.06772514223666803],2018_Jul_09_1226,60.078438476,go-nogo,001,20,
logos/3.jpg,properties3.xlsx,frogs/ab39.jpg,0,0,400,l,0,2,2,2,0,2,2,38,,,['l'],0,[0.10102223731701088],2018_Jul_09_1226,60.078438476,go-nogo,001,20,
logos/3.jpg,properties3.xlsx,frogs/ab1.jpg,0,0,400,l,0,2,2,2,0,3,3,0,,,['l'],0,[0.10025594333001209],2018_Jul_09_1226,60.078438476,go-nogo,001,20,
logos/3.jpg,properties3.xlsx,frogs/ab70.jpg,0,0,400,l,0,2,2,2,0,4,4,68,,,['l'],0,[0.050948025697834964],2018_Jul_09_1226,60.078438476,go-nogo,001,20,
logos/3.jpg,properties3.xlsx,frogs/ab31.jpg,0,0,400,l,0,2,2,2,0,5,5,30,,,['l'],0,[0.16764657861403975],2018_Jul_09_1226,60.078438476,go-nogo,001,20,
logos/3.jpg,properties3.xlsx,frogs/ab4.jpg,0,0,400,l,0,2,2,2,0,6,6,3,,,['l'],0,[0.06773595113463671],2018_Jul_09_1226,60.078438476,go-nogo,001,20,
logos/3.jpg,properties3.xlsx,logos/3.jpg,0,0,400,a,0,2,2,2,0,7,7,86,,,['a'],0,[0.06788898237664398],2018_Jul_09_1226,60.078438476,go-nogo,001,20,
logos/3.jpg,properties3.xlsx,frogs/ab19.jpg,0,0,400,l,0,2,2,2,0,8,8,18,,,['l'],0,[0.08408981397860771],2018_Jul_09_1226,60.078438476,go-nogo,001,20,
logos/3.jpg,properties3.xlsx,frogs/ab64.jpg,0,0,400,l,0,2,2,2,0,9,9,62,,,['l'],0,[0.05090080787977058],2018_Jul_09_1226,60.078438476,go-nogo,001,20,
logos/3.jpg,properties3.xlsx,frogs/ab65.jpg,0,0,400,l,0,2,2,2,0,10,10,63,,,['l'],0,[0.05096395460077474],2018_Jul_09_1226,60.078438476,go-nogo,001,20,
logos/3.jpg,properties3.xlsx,frogs/ab42.jpg,0,0,400,l,0,2,2,2,0,11,11,41,,,['l'],0,[0.03419650918112893],2018_Jul_09_1226,60.078438476,go-nogo,001,20,
logos/3.jpg,properties3.xlsx,frogs/ab22.jpg,0,0,400,l,0,2,2,2,0,12,12,21,,,['l'],0,[0.06729904409439769],2018_Jul_09_1226,60.078438476,go-nogo,001,20,
logos/3.jpg,properties3.xlsx,frogs/ab34.jpg,0,0,400,l,0,2,2,2,0,13,13,33,,,['l'],0,[0.06740599529712199],2018_Jul_09_1226,60.078438476,go-nogo,001,20,
logos/3.jpg,properties3.xlsx,logos/3.jpg,0,0,400,a,0,2,2,2,0,14,14,85,,,['a'],0,[0.9005410706831753],2018_Jul_09_1226,60.078438476,go-nogo,001,20,
logos/3.jpg,properties3.xlsx,frogs/ab46.jpg,0,0,400,l,0,2,2,2,0,15,15,45,,,['l'],0,[0.0013522500421458972],2018_Jul_09_1226,60.078438476,go-nogo,001,20,
logos/3.jpg,properties3.xlsx,frogs/ab16.jpg,0,0,400,l,0,2,2,2,0,16,16,15,,,['l'],0,[0.06768418220235617],2018_Jul_09_1226,60.078438476,go-nogo,001,20,
logos/3.jpg,properties3.xlsx,frogs/ab51.jpg,0,0,400,l,0,2,2,2,0,17,17,50,,,['l'],0,[0.1341759722745337],2018_Jul_09_1226,60.078438476,go-nogo,001,20,
logos/3.jpg,properties3.xlsx,frogs/ab49.jpg,0,0,400,l,0,2,2,2,0,18,18,48,,,['l'],0,[0.11685044637943065],2018_Jul_09_1226,60.078438476,go-nogo,001,20,
logos/3.jpg,properties3.xlsx,frogs/ab71.jpg,0,0,400,l,0,2,2,2,0,19,19,69,,,['l'],0,[0.10086977496393956],2018_Jul_09_1226,60.078438476,go-nogo,001,20,
logos/3.jpg,properties3.xlsx,frogs/ab30.jpg,0,0,400,l,0,2,2,2,0,20,20,29,,,['l'],0,[0.03426534479513066],2018_Jul_09_1226,60.078438476,go-nogo,001,20,
logos/3.jpg,properties3.xlsx,frogs/ab18.jpg,0,0,400,l,0,2,2,2,0,21,21,17,,,['l'],0,[0.08425763634477335],2018_Jul_09_1226,60.078438476,go-nogo,001,20,
logos/3.jpg,properties3.xlsx,frogs/ab81.jpg,0,0,400,l,0,2,2,2,0,22,22,79,,,['l'],0,[0.1342698390217265],2018_Jul_09_1226,60.078438476,go-nogo,001,20,
logos/3.jpg,properties3.xlsx,frogs/ab26.jpg,0,0,400,l,0,2,2,2,0,23,23,25,,,['l'],0,[0.1010688862461393],2018_Jul_09_1226,60.078438476,go-nogo,001,20,
logos/3.jpg,properties3.xlsx,frogs/ab54.jpg,0,0,400,l,0,2,2,2,0,24,24,53,,,['l'],0,[0.10125605084976996],2018_Jul_09_1226,60.078438476,go-nogo,001,20,
logos/3.jpg,properties3.xlsx,logos/3.jpg,0,0,400,a,0,2,2,2,0,25,25,83,,,['a'],0,[0.08422520964995783],2018_Jul_09_1226,60.078438476,go-nogo,001,20,
logos/3.jpg,properties3.xlsx,frogs/ab33.jpg,0,0,400,l,0,2,2,2,0,26,26,32,,,['l'],0,[0.11782154054071725],2018_Jul_09_1226,60.078438476,go-nogo,001,20,
logos/3.jpg,properties3.xlsx,frogs/ab72.jpg,0,0,400,l,0,2,2,2,0,27,27,70,,,['l'],0,[0.08438392978587217],2018_Jul_09_1226,60.078438476,go-nogo,001,20,
logos/3.jpg,properties3.xlsx,frogs/ab2.jpg,0,0,400,l,0,2,2,2,0,28,28,1,,,['l'],0,[0.10089594387591205],2018_Jul_09_1226,60.078438476,go-nogo,001,20,
logos/3.jpg,properties3.xlsx,frogs/ab12.jpg,0,0,400,l,0,2,2,2,0,29,29,11,,,['l'],0,[0.10038906344379939],2018_Jul_09_1226,60.078438476,go-nogo,001,20,
logos/3.jpg,properties3.xlsx,frogs/ab7.jpg,0,0,400,l,0,2,2,2,0,30,30,6,,,['l'],0,[0.10012964988891326],2018_Jul_09_1226,60.078438476,go-nogo,001,20,
logos/3.jpg,properties3.xlsx,frogs/ab8.jpg,0,0,400,l,0,2,2,2,0,31,31,7,,,['l'],0,[0.06728027074495913],2018_Jul_09_1226,60.078438476,go-nogo,001,20,
logos/3.jpg,properties3.xlsx,frogs/ab40.jpg,0,0,400,l,0,2,2,2,0,32,32,39,,,['l'],0,[0.08348224012752326],2018_Jul_09_1226,60.078438476,go-nogo,001,20,
logos/3.jpg,properties3.xlsx,frogs/ab44.jpg,0,0,400,l,0,2,2,2,0,33,33,43,,,['l'],0,[0.05031030070858833],2018_Jul_09_1226,60.078438476,go-nogo,001,20,
logos/3.jpg,properties3.xlsx,frogs/ab3.jpg,0,0,400,l,0,2,2,2,0,34,34,2,,,['l'],0,[0.08455516548747255],2018_Jul_09_1226,60.078438476,go-nogo,001,20,
logos/3.jpg,properties3.xlsx,frogs/ab62.jpg,0,0,400,l,0,2,2,2,0,35,35,60,,,['l'],0,[0.10057338360002177],2018_Jul_09_1226,60.078438476,go-nogo,001,20,
logos/3.jpg,properties3.xlsx,frogs/ab57.jpg,0,0,400,l,0,2,2,2,0,36,36,56,,,['l'],0,[0.06799536468952283],2018_Jul_09_1226,60.078438476,go-nogo,001,20,
logos/3.jpg,properties3.xlsx,frogs/ab43.jpg,0,0,400,l,0,2,2,2,0,37,37,42,,,['l'],0,[0.08421838297726936],2018_Jul_09_1226,60.078438476,go-nogo,001,20,
logos/3.jpg,properties3.xlsx,frogs/ab45.jpg,0,0,400,l,0,2,2,2,0,38,38,44,,,['l'],0,[0.10107457513913687],2018_Jul_09_1226,60.078438476,go-nogo,001,20,
logos/3.jpg,properties3.xlsx,frogs/ab77.jpg,0,0,400,l,0,2,2,2,0,39,39,75,,,['l'],0,[0.15210053868122486],2018_Jul_09_1226,60.078438476,go-nogo,001,20,
logos/3.jpg,properties3.xlsx,frogs/ab69.jpg,0,0,400,l,0,2,2,2,0,40,40,67,,,['l'],0,[0.10143126877665054],2018_Jul_09_1226,60.078438476,go-nogo,001,20,
logos/3.jpg,properties3.xlsx,frogs/ab80.jpg,0,0,400,l,0,2,2,2,0,41,41,78,,,['l'],0,[0.10055233469302038],2018_Jul_09_1226,60.078438476,go-nogo,001,20,
logos/3.jpg,properties3.xlsx,frogs/ab78.jpg,0,0,400,l,0,2,2,2,0,42,42,76,,,['l'],0,[0.08440668536059093],2018_Jul_09_1226,60.078438476,go-nogo,001,20,
logos/3.jpg,properties3.xlsx,frogs/ab75.jpg,0,0,400,l,0,2,2,2,0,43,43,73,,,['l'],0,[0.03451451834098407],2018_Jul_09_1226,60.078438476,go-nogo,001,20,
logos/3.jpg,properties3.xlsx,frogs/ab10.jpg,0,0,400,l,0,2,2,2,0,44,44,9,,,['l'],0,[0.13424992789350654],2018_Jul_09_1226,60.078438476,go-nogo,001,20,
logos/3.jpg,properties3.xlsx,logos/3.jpg,0,0,400,a,0,2,2,2,0,45,45,80,,,['a'],0,[0.08368704030181107],2018_Jul_09_1226,60.078438476,go-nogo,001,20,
logos/3.jpg,properties3.xlsx,frogs/ab15.jpg,0,0,400,l,0,2,2,2,0,46,46,14,,,['l'],0,[0.08431395639217953],2018_Jul_09_1226,60.078438476,go-nogo,001,20,
logos/3.jpg,properties3.xlsx,frogs/ab29.jpg,0,0,400,l,0,2,2,2,0,47,47,28,,,['l'],0,[0.13417540338559775],2018_Jul_09_1226,60.078438476,go-nogo,001,20,
logos/3.jpg,properties3.xlsx,frogs/ab50.jpg,0,0,400,l,0,2,2,2,0,48,48,49,,,['l'],0,[0.1176798870865241],2018_Jul_09_1226,60.078438476,go-nogo,001,20,
logos/3.jpg,properties3.xlsx,frogs/ab13.jpg,0,0,400,l,0,2,2,2,0,49,49,12,,,['l'],0,[0.10115478854186222],2018_Jul_09_1226,60.078438476,go-nogo,001,20,
logos/3.jpg,properties3.xlsx,frogs/ab17.jpg,0,0,400,l,0,2,2,2,0,50,50,16,,,['l'],0,[0.051011172418839124],2018_Jul_09_1226,60.078438476,go-nogo,001,20,
logos/3.jpg,properties3.xlsx,logos/3.jpg,0,0,400,a,0,2,2,2,0,51,51,82,,,['a'],0,[0.18421548164133128],2018_Jul_09_1226,60.078438476,go-nogo,001,20,
logos/3.jpg,properties3.xlsx,frogs/ab76.jpg,0,0,400,l,0,2,2,2,0,52,52,74,,,['l'],0,[0.08441464981206082],2018_Jul_09_1226,60.078438476,go-nogo,001,20,
logos/3.jpg,properties3.xlsx,frogs/ab23.jpg,0,0,400,l,0,2,2,2,0,53,53,22,,,['l'],0,[0.13392793650655221],2018_Jul_09_1226,60.078438476,go-nogo,001,20,
logos/3.jpg,properties3.xlsx,frogs/ab6.jpg,0,0,400,l,0,2,2,2,0,54,54,5,,,['l'],0,[0.11779935385584395],2018_Jul_09_1226,60.078438476,go-nogo,001,20,
logos/3.jpg,properties3.xlsx,frogs/ab66.jpg,0,0,400,l,0,2,2,2,0,55,55,64,,,['l'],0,[0.134198158959407],2018_Jul_09_1226,60.078438476,go-nogo,001,20,
logos/3.jpg,properties3.xlsx,frogs/ab74.jpg,0,0,400,l,0,2,2,2,0,56,56,72,,,['l'],0,[0.11681346856948949],2018_Jul_09_1226,60.078438476,go-nogo,001,20,
logos/3.jpg,properties3.xlsx,frogs/ab25.jpg,0,0,400,l,0,2,2,2,0,57,57,24,,,['l'],0,[0.11782495387706149],2018_Jul_09_1226,60.078438476,go-nogo,001,20,
logos/3.jpg,properties3.xlsx,frogs/ab37.jpg,0,0,400,l,0,2,2,2,0,58,58,36,,,['l'],0,[0.13431478128222807],2018_Jul_09_1226,60.078438476,go-nogo,001,20,
logos/3.jpg,properties3.xlsx,frogs/ab41.jpg,0,0,400,l,0,2,2,2,0,59,59,40,,,['l'],0,[0.05258984043211967],2018_Jul_09_1226,60.078438476,go-nogo,001,20,
logos/3.jpg,properties3.xlsx,frogs/ab38.jpg,0,0,400,l,0,2,2,2,0,60,60,37,,,['l'],0,[0.08414613402692339],2018_Jul_09_1226,60.078438476,go-nogo,001,20,
logos/3.jpg,properties3.xlsx,frogs/ab73.jpg,0,0,400,l,0,2,2,2,0,61,61,71,,,['l'],0,[0.10138006873330596],2018_Jul_09_1226,60.078438476,go-nogo,001,20,
logos/3.jpg,properties3.xlsx,frogs/ab21.jpg,0,0,400,l,0,2,2,2,0,62,62,20,,,['l'],0,[0.08465130779131869],2018_Jul_09_1226,60.078438476,go-nogo,001,20,
logos/3.jpg,properties3.xlsx,frogs/ab27.jpg,0,0,400,l,0,2,2,2,0,63,63,26,,,['l'],0,[0.08422577853889379],2018_Jul_09_1226,60.078438476,go-nogo,001,20,
logos/3.jpg,properties3.xlsx,logos/3.jpg,0,0,400,a,0,2,2,2,0,64,64,84,,,['a'],0,[0.13349444280447642],2018_Jul_09_1226,60.078438476,go-nogo,001,20,
logos/3.jpg,properties3.xlsx,frogs/ab60.jpg,0,0,400,l,0,2,2,2,0,65,65,58,,,['l'],0,[0.050973625719962],2018_Jul_09_1226,60.078438476,go-nogo,001,20,
logos/3.jpg,properties3.xlsx,frogs/ab53.jpg,0,0,400,l,0,2,2,2,0,66,66,52,,,['l'],0,[0.0510845591479665],2018_Jul_09_1226,60.078438476,go-nogo,001,20,
logos/3.jpg,properties3.xlsx,frogs/ab48.jpg,0,0,400,l,0,2,2,2,0,67,67,47,,,['l'],0,[0.08472298785272869],2018_Jul_09_1226,60.078438476,go-nogo,001,20,
logos/3.jpg,properties3.xlsx,frogs/ab35.jpg,0,0,400,l,0,2,2,2,0,68,68,34,,,['l'],0,[0.051082283590403676],2018_Jul_09_1226,60.078438476,go-nogo,001,20,
logos/3.jpg,properties3.xlsx,logos/3.jpg,0,0,400,a,0,2,2,2,0,69,69,81,,,['l'],0,[0.6008148771397828],2018_Jul_09_1226,60.078438476,go-nogo,001,20,
logos/3.jpg,properties3.xlsx,frogs/ab55.jpg,0,0,400,l,0,2,2,2,0,70,70,54,,,['l'],0,[0.10104044177660398],2018_Jul_09_1226,60.078438476,go-nogo,001,20,
logos/3.jpg,properties3.xlsx,logos/3.jpg,0,0,400,a,0,2,2,2,0,71,71,88,,,['a'],0,[0.11781186942152999],2018_Jul_09_1226,60.078438476,go-nogo,001,20,
logos/3.jpg,properties3.xlsx,frogs/ab32.jpg,0,0,400,l,0,2,2,2,0,72,72,31,,,['l'],0,[0.10114739297932829],2018_Jul_09_1226,60.078438476,go-nogo,001,20,
logos/3.jpg,properties3.xlsx,frogs/ab11.jpg,0,0,400,l,0,2,2,2,0,73,73,10,,,['l'],0,[0.13356498508619552],2018_Jul_09_1226,60.078438476,go-nogo,001,20,
logos/3.jpg,properties3.xlsx,frogs/ab28.jpg,0,0,400,l,0,2,2,2,0,74,74,27,,,['l'],0,[0.11745858912036056],2018_Jul_09_1226,60.078438476,go-nogo,001,20,
logos/3.jpg,properties3.xlsx,frogs/ab47.jpg,0,0,400,l,0,2,2,2,0,75,75,46,,,['l'],0,[0.0841865251722993],2018_Jul_09_1226,60.078438476,go-nogo,001,20,
logos/3.jpg,properties3.xlsx,frogs/ab14.jpg,0,0,400,l,0,2,2,2,0,76,76,13,,,['l'],0,[0.08450908544728009],2018_Jul_09_1226,60.078438476,go-nogo,001,20,
logos/3.jpg,properties3.xlsx,frogs/ab20.jpg,0,0,400,l,0,2,2,2,0,77,77,19,,,['l'],0,[0.18410454821332678],2018_Jul_09_1226,60.078438476,go-nogo,001,20,
logos/3.jpg,properties3.xlsx,frogs/ab63.jpg,0,0,400,l,0,2,2,2,0,78,78,61,,,['l'],0,[0.0674293197625957],2018_Jul_09_1226,60.078438476,go-nogo,001,20,
logos/3.jpg,properties3.xlsx,frogs/ab56.jpg,0,0,400,l,0,2,2,2,0,79,79,55,,,['l'],0,[0.10070707260365452],2018_Jul_09_1226,60.078438476,go-nogo,001,20,
logos/3.jpg,properties3.xlsx,frogs/ab52.jpg,0,0,400,l,0,2,2,2,0,80,80,51,,,['l'],0,[0.050725589952890004],2018_Jul_09_1226,60.078438476,go-nogo,001,20,
logos/3.jpg,properties3.xlsx,frogs/ab67.jpg,0,0,400,l,0,2,2,2,0,81,81,65,,,['l'],0,[0.05073810551857605],2018_Jul_09_1226,60.078438476,go-nogo,001,20,
logos/3.jpg,properties3.xlsx,logos/3.jpg,0,0,400,a,0,2,2,2,0,82,82,87,,,['a'],0,[0.050938354578647704],2018_Jul_09_1226,60.078438476,go-nogo,001,20,
logos/3.jpg,properties3.xlsx,frogs/ab5.jpg,0,0,400,l,0,2,2,2,0,83,83,4,,,['l'],0,[0.08448234764728113],2018_Jul_09_1226,60.078438476,go-nogo,001,20,
logos/3.jpg,properties3.xlsx,frogs/ab36.jpg,0,0,400,l,0,2,2,2,0,84,84,35,,,['l'],0,[0.08447438319581124],2018_Jul_09_1226,60.078438476,go-nogo,001,20,
logos/3.jpg,properties3.xlsx,frogs/ab9.jpg,0,0,400,l,0,2,2,2,0,85,85,8,,,['l'],0,[0.1010023261887909],2018_Jul_09_1226,60.078438476,go-nogo,001,20,
logos/3.jpg,properties3.xlsx,logos/3.jpg,0,0,400,a,0,2,2,2,0,86,86,89,,,['a'],0,[0.017730006240526563],2018_Jul_09_1226,60.078438476,go-nogo,001,20,
logos/3.jpg,properties3.xlsx,frogs/ab68.jpg,0,0,400,l,0,2,2,2,0,87,87,66,,,['l'],0,[0.06770750666601089],2018_Jul_09_1226,60.078438476,go-nogo,001,20,
logos/3.jpg,properties3.xlsx,frogs/ab24.jpg,0,0,400,l,0,2,2,2,0,88,88,23,,,['l'],0,[0.08401016946663731],2018_Jul_09_1226,60.078438476,go-nogo,001,20,
logos/3.jpg,properties3.xlsx,frogs/ab79.jpg,0,0,400,l,0,2,2,2,0,89,89,77,,,['l'],0,[0.10101711731203977],2018_Jul_09_1226,60.078438476,go-nogo,001,20,
logos/3.jpg,properties3.xlsx,,,,,,0,2,2,2,,,,,,,,,,2018_Jul_09_1226,60.078438476,go-nogo,001,20,
logos/4.jpg,properties4.xlsx,frogs/ab11.jpg,0,0,400,l,0,3,3,3,0,0,0,10,space,5.0924997056,['l'],0,[1.5667105280372198],2018_Jul_09_1226,60.078438476,go-nogo,001,20,
logos/4.jpg,properties4.xlsx,frogs/ab27.jpg,0,0,400,l,0,3,3,3,0,1,1,26,,,['l'],0,[0.0011025076073565288],2018_Jul_09_1226,60.078438476,go-nogo,001,20,
logos/4.jpg,properties4.xlsx,frogs/ab1.jpg,0,0,400,l,0,3,3,3,0,2,2,0,,,['l'],0,[0.06695884824966924],2018_Jul_09_1226,60.078438476,go-nogo,001,20,
logos/4.jpg,properties4.xlsx,frogs/ab13.jpg,0,0,400,l,0,3,3,3,0,3,3,12,,,['l'],0,[0.05513618927125208],2018_Jul_09_1226,60.078438476,go-nogo,001,20,
logos/4.jpg,properties4.xlsx,frogs/ab54.jpg,0,0,400,l,0,3,3,3,0,4,4,53,,,['l'],0,[0.10128733976489457],2018_Jul_09_1226,60.078438476,go-nogo,001,20,
logos/4.jpg,properties4.xlsx,frogs/ab67.jpg,0,0,400,l,0,3,3,3,0,5,5,65,,,['l'],0,[0.08443456094028079],2018_Jul_09_1226,60.078438476,go-nogo,001,20,
logos/4.jpg,properties4.xlsx,frogs/ab8.jpg,0,0,400,l,0,3,3,3,0,6,6,7,,,['l'],0,[0.10100289507863636],2018_Jul_09_1226,60.078438476,go-nogo,001,20,
logos/4.jpg,properties4.xlsx,frogs/ab18.jpg,0,0,400,l,0,3,3,3,0,7,7,17,,,['l'],0,[0.051131776966030884],2018_Jul_09_1226,60.078438476,go-nogo,001,20,
logos/4.jpg,properties4.xlsx,frogs/ab25.jpg,0,0,400,l,0,3,3,3,0,8,8,24,,,['l'],0,[0.08502336144283618],2018_Jul_09_1226,60.078438476,go-nogo,001,20,
logos/4.jpg,properties4.xlsx,frogs/ab10.jpg,0,0,400,l,0,3,3,3,0,9,9,9,,,['l'],0,[0.13394955430339905],2018_Jul_09_1226,60.078438476,go-nogo,001,20,
logos/4.jpg,properties4.xlsx,frogs/ab55.jpg,0,0,400,l,0,3,3,3,0,10,10,54,,,['l'],0,[0.13444903917388729],2018_Jul_09_1226,60.078438476,go-nogo,001,20,
logos/4.jpg,properties4.xlsx,frogs/ab49.jpg,0,0,400,l,0,3,3,3,0,11,11,48,,,['l'],0,[0.1175075136070518],2018_Jul_09_1226,60.078438476,go-nogo,001,20,
logos/4.jpg,properties4.xlsx,frogs/ab9.jpg,0,0,400,l,0,3,3,3,0,12,12,8,,,['l'],0,[0.13424082566325524],2018_Jul_09_1226,60.078438476,go-nogo,001,20,
logos/4.jpg,properties4.xlsx,frogs/ab15.jpg,0,0,400,l,0,3,3,3,0,13,13,14,,,['l'],0,[0.06758291989262943],2018_Jul_09_1226,60.078438476,go-nogo,001,20,
logos/4.jpg,properties4.xlsx,frogs/ab29.jpg,0,0,400,l,0,3,3,3,0,14,14,28,,,['l'],0,[0.08434638308608555],2018_Jul_09_1226,60.078438476,go-nogo,001,20,
logos/4.jpg,properties4.xlsx,frogs/ab51.jpg,0,0,400,l,0,3,3,3,0,15,15,50,,,['l'],0,[0.21895926240085828],2018_Jul_09_1226,60.078438476,go-nogo,001,20,
logos/4.jpg,properties4.xlsx,frogs/ab45.jpg,0,0,400,l,0,3,3,3,0,16,16,44,,,['l'],0,[0.0019421883243921911],2018_Jul_09_1226,60.078438476,go-nogo,001,20,
logos/4.jpg,properties4.xlsx,frogs/ab16.jpg,0,0,400,l,0,3,3,3,0,17,17,15,,,['l'],0,[0.10108879737344978],2018_Jul_09_1226,60.078438476,go-nogo,001,20,
logos/4.jpg,properties4.xlsx,frogs/ab53.jpg,0,0,400,l,0,3,3,3,0,18,18,52,,,['l'],0,[0.10102451287366421],2018_Jul_09_1226,60.078438476,go-nogo,001,20,
logos/4.jpg,properties4.xlsx,frogs/ab57.jpg,0,0,400,l,0,3,3,3,0,19,19,56,,,['l'],0,[0.13356157175076078],2018_Jul_09_1226,60.078438476,go-nogo,001,20,
logos/4.jpg,properties4.xlsx,frogs/ab12.jpg,0,0,400,l,0,3,3,3,0,20,20,11,,,['l'],0,[0.08365120027065132],2018_Jul_09_1226,60.078438476,go-nogo,001,20,
logos/4.jpg,properties4.xlsx,logos/4.jpg,0,0,400,a,0,3,3,3,0,21,21,88,,,['a'],0,[0.06764663550347905],2018_Jul_09_1226,60.078438476,go-nogo,001,20,
logos/4.jpg,properties4.xlsx,frogs/ab31.jpg,0,0,400,l,0,3,3,3,0,22,22,30,,,['l'],0,[0.06747084868584352],2018_Jul_09_1226,60.078438476,go-nogo,001,20,
logos/4.jpg,properties4.xlsx,frogs/ab76.jpg,0,0,400,l,0,3,3,3,0,23,23,74,,,['l'],0,[0.08474688120622886],2018_Jul_09_1226,60.078438476,go-nogo,001,20,
logos/4.jpg,properties4.xlsx,frogs/ab68.jpg,0,0,400,l,0,3,3,3,0,24,24,66,,,['l'],0,[0.10091699278291344],2018_Jul_09_1226,60.078438476,go-nogo,001,20,
logos/4.jpg,properties4.xlsx,frogs/ab41.jpg,0,0,400,l,0,3,3,3,0,25,25,40,,,['l'],0,[0.06687806595800794],2018_Jul_09_1226,60.078438476,go-nogo,001,20,
logos/4.jpg,properties4.xlsx,frogs/ab58.jpg,0,0,400,l,0,3,3,3,0,26,26,57,,,['l'],0,[0.11754449141517398],2018_Jul_09_1226,60.078438476,go-nogo,001,20,
logos/4.jpg,properties4.xlsx,frogs/ab56.jpg,0,0,400,l,0,3,3,3,0,27,27,55,,,['l'],0,[0.13437508355582395],2018_Jul_09_1226,60.078438476,go-nogo,001,20,
logos/4.jpg,properties4.xlsx,logos/4.jpg,0,0,400,a,0,3,3,3,0,28,28,80,,,['a'],0,[0.03415099803078192],2018_Jul_09_1226,60.078438476,go-nogo,001,20,
logos/4.jpg,properties4.xlsx,frogs/ab50.jpg,0,0,400,l,0,3,3,3,0,29,29,49,,,['l'],0,[0.051165341438718315],2018_Jul_09_1226,60.078438476,go-nogo,001,20,
logos/4.jpg,properties4.xlsx,frogs/ab60.jpg,0,0,400,l,0,3,3,3,0,30,30,58,,,['l'],0,[0.10100972175132483],2018_Jul_09_1226,60.078438476,go-nogo,001,20,
logos/4.jpg,properties4.xlsx,frogs/ab14.jpg,0,0,400,l,0,3,3,3,0,31,31,13,,,['l'],0,[0.1173379845731688],2018_Jul_09_1226,60.078438476,go-nogo,001,20,
logos/4.jpg,properties4.xlsx,frogs/ab30.jpg,0,0,400,l,0,3,3,3,0,32,32,29,,,['l'],0,[0.1300361642970529],2018_Jul_09_1226,60.078438476,go-nogo,001,20,
logos/4.jpg,properties4.xlsx,frogs/ab44.jpg,0,0,400,l,0,3,3,3,0,33,33,43,,,['l'],0,[0.08411541400073475],2018_Jul_09_1226,60.078438476,go-nogo,001,20,
logos/4.jpg,properties4.xlsx,frogs/ab2.jpg,0,0,400,l,0,3,3,3,0,34,34,1,,,['l'],0,[0.08424739633574063],2018_Jul_09_1226,60.078438476,go-nogo,001,20,
logos/4.jpg,properties4.xlsx,frogs/ab75.jpg,0,0,400,l,0,3,3,3,0,35,35,73,,,['l'],0,[0.0674424042172177],2018_Jul_09_1226,60.078438476,go-nogo,001,20,
logos/4.jpg,properties4.xlsx,logos/4.jpg,0,0,400,a,0,3,3,3,0,36,36,89,,,['a'],0,[0.1177504293691527],2018_Jul_09_1226,60.078438476,go-nogo,001,20,
logos/4.jpg,properties4.xlsx,frogs/ab36.jpg,0,0,400,l,0,3,3,3,0,37,37,35,,,['l'],0,[0.08436856977186835],2018_Jul_09_1226,60.078438476,go-nogo,001,20,
logos/4.jpg,properties4.xlsx,frogs/ab6.jpg,0,0,400,l,0,3,3,3,0,38,38,5,,,['l'],0,[0.06690537264785235],2018_Jul_09_1226,60.078438476,go-nogo,001,20,
logos/4.jpg,properties4.xlsx,logos/4.jpg,0,0,400,a,0,3,3,3,0,39,39,86,,,['a'],0,[0.05024601620971225],2018_Jul_09_1226,60.078438476,go-nogo,001,20,
logos/4.jpg,properties4.xlsx,frogs/ab42.jpg,0,0,400,l,0,3,3,3,0,40,40,41,,,['l'],0,[0.0842752719154305],2018_Jul_09_1226,60.078438476,go-nogo,001,20,
logos/4.jpg,properties4.xlsx,logos/4.jpg,0,0,400,a,0,3,3,3,0,41,41,81,,,['a'],0,[0.11771686489646527],2018_Jul_09_1226,60.078438476,go-nogo,001,20,
logos/4.jpg,properties4.xlsx,frogs/ab81.jpg,0,0,400,l,0,3,3,3,0,42,42,79,,,['l'],0,[0.08460181441569148],2018_Jul_09_1226,60.078438476,go-nogo,001,20,
logos/4.jpg,properties4.xlsx,frogs/ab19.jpg,0,0,400,l,0,3,3,3,0,43,43,18,,,['l'],0,[0.10092609501225525],2018_Jul_09_1226,60.078438476,go-nogo,001,20,
logos/4.jpg,properties4.xlsx,frogs/ab43.jpg,0,0,400,l,0,3,3,3,0,44,44,42,,,['l'],0,[0.10098241506057093],2018_Jul_09_1226,60.078438476,go-nogo,001,20,
logos/4.jpg,properties4.xlsx,logos/4.jpg,0,0,400,a,0,3,3,3,0,45,45,84,,,['a'],0,[0.03418570028316026],2018_Jul_09_1226,60.078438476,go-nogo,001,20,
logos/4.jpg,properties4.xlsx,frogs/ab23.jpg,0,0,400,l,0,3,3,3,0,46,46,22,,,['l'],0,[0.017967801998565847],2018_Jul_09_1226,60.078438476,go-nogo,001,20,
logos/4.jpg,properties4.xlsx,frogs/ab24.jpg,0,0,400,l,0,3,3,3,0,47,47,23,,,['l'],0,[0.06851362290944962],2018_Jul_09_1226,60.078438476,go-nogo,001,20,
logos/4.jpg,properties4.xlsx,frogs/ab61.jpg,0,0,400,l,0,3,3,3,0,48,48,59,,,['l'],0,[0.03410776243890723],2018_Jul_09_1226,60.078438476,go-nogo,001,20,
logos/4.jpg,properties4.xlsx,frogs/ab71.jpg,0,0,400,l,0,3,3,3,0,49,49,69,,,['l'],0,[0.08444309428068664],2018_Jul_09_1226,60.078438476,go-nogo,001,20,
logos/4.jpg,properties4.xlsx,frogs/ab21.jpg,0,0,400,l,0,3,3,3,0,50,50,20,,,['l'],0,[0.05116135921343812],2018_Jul_09_1226,60.078438476,go-nogo,001,20,
logos/4.jpg,properties4.xlsx,logos/4.jpg,0,0,400,a,0,3,3,3,0,51,51,87,,,['l'],0,[0.6340107099113084],2018_Jul_09_1226,60.078438476,go-nogo,001,20,
logos/4.jpg,properties4.xlsx,frogs/ab37.jpg,0,0,400,l,0,3,3,3,0,52,52,36,,,['l'],0,[1.0838565693347846],2018_Jul_09_1226,60.078438476,go-nogo,001,20,
logos/4.jpg,properties4.xlsx,frogs/ab63.jpg,0,0,400,l,0,3,3,3,0,53,53,61,,,['l'],0,[0.23423166654447414],2018_Jul_09_1226,60.078438476,go-nogo,001,20,
logos/4.jpg,properties4.xlsx,frogs/ab78.jpg,0,0,400,l,0,3,3,3,0,54,54,76,,,['l'],0,[0.21750916338532988],2018_Jul_09_1226,60.078438476,go-nogo,001,20,
logos/4.jpg,properties4.xlsx,frogs/ab62.jpg,0,0,400,l,0,3,3,3,0,55,55,60,,,['l'],0,[0.18404709038622968],2018_Jul_09_1226,60.078438476,go-nogo,001,20,
logos/4.jpg,properties4.xlsx,frogs/ab79.jpg,0,0,400,l,0,3,3,3,0,56,56,77,,,['l'],0,[0.12024216482859629],2018_Jul_09_1226,60.078438476,go-nogo,001,20,
logos/4.jpg,properties4.xlsx,frogs/ab80.jpg,0,0,400,l,0,3,3,3,0,57,57,78,,,['l'],0,[0.21781351920071756],2018_Jul_09_1226,60.078438476,go-nogo,001,20,
logos/4.jpg,properties4.xlsx,frogs/ab28.jpg,0,0,400,l,0,3,3,3,0,58,58,27,,,['l'],0,[0.21755922565080255],2018_Jul_09_1226,60.078438476,go-nogo,001,20,
logos/4.jpg,properties4.xlsx,frogs/ab5.jpg,0,0,400,l,0,3,3,3,0,59,59,4,,,['l'],0,[0.25083072070901835],2018_Jul_09_1226,60.078438476,go-nogo,001,20,
logos/4.jpg,properties4.xlsx,frogs/ab70.jpg,0,0,400,l,0,3,3,3,0,60,60,68,,,['l'],0,[0.26758906389841286],2018_Jul_09_1226,60.078438476,go-nogo,001,20,
logos/4.jpg,properties4.xlsx,frogs/ab3.jpg,0,0,400,l,0,3,3,3,0,61,61,2,,,['l'],0,[0.26732965034352674],2018_Jul_09_1226,60.078438476,go-nogo,001,20,
logos/4.jpg,properties4.xlsx,frogs/ab17.jpg,0,0,400,l,0,3,3,3,0,62,62,16,,,['l'],0,[0.2176041679103946],2018_Jul_09_1226,60.078438476,go-nogo,001,20,
logos/4.jpg,properties4.xlsx,logos/4.jpg,0,0,400,a,0,3,3,3,0,63,63,82,,,['a'],0,[0.1491855495269192],2018_Jul_09_1226,60.078438476,go-nogo,001,20,
logos/4.jpg,properties4.xlsx,frogs/ab65.jpg,0,0,400,l,0,3,3,3,0,64,64,63,,,['l'],0,[0.2177543547059031],2018_Jul_09_1226,60.078438476,go-nogo,001,20,
logos/4.jpg,properties4.xlsx,frogs/ab34.jpg,0,0,400,l,0,3,3,3,0,65,65,33,,,['l'],0,[0.18359994333786744],2018_Jul_09_1226,60.078438476,go-nogo,001,20,
logos/4.jpg,properties4.xlsx,frogs/ab73.jpg,0,0,400,l,0,3,3,3,0,66,66,71,,,['l'],0,[0.25081251624942524],2018_Jul_09_1226,60.078438476,go-nogo,001,20,
logos/4.jpg,properties4.xlsx,frogs/ab7.jpg,0,0,400,l,0,3,3,3,0,67,67,6,,,['l'],0,[0.2344512578429203],2018_Jul_09_1226,60.078438476,go-nogo,001,20,
logos/4.jpg,properties4.xlsx,frogs/ab26.jpg,0,0,400,l,0,3,3,3,0,68,68,25,,,['l'],0,[0.15097584438808553],2018_Jul_09_1226,60.078438476,go-nogo,001,20,
logos/4.jpg,properties4.xlsx,frogs/ab47.jpg,0,0,400,l,0,3,3,3,0,69,69,46,,,['l'],0,[0.21755695009233023],2018_Jul_09_1226,60.078438476,go-nogo,001,20,
logos/4.jpg,properties4.xlsx,frogs/ab52.jpg,0,0,400,l,0,3,3,3,0,70,70,51,,,['l'],0,[0.15085694650952064],2018_Jul_09_1226,60.078438476,go-nogo,001,20,
logos/4.jpg,properties4.xlsx,frogs/ab77.jpg,0,0,400,l,0,3,3,3,0,71,71,75,,,['l'],0,[0.18425245945036295],2018_Jul_09_1226,60.078438476,go-nogo,001,20,
logos/4.jpg,properties4.xlsx,frogs/ab69.jpg,0,0,400,l,0,3,3,3,0,72,72,67,,,['l'],0,[0.1843719262196828],2018_Jul_09_1226,60.078438476,go-nogo,001,20,
logos/4.jpg,properties4.xlsx,frogs/ab33.jpg,0,0,400,l,0,3,3,3,0,73,73,32,,,['l'],0,[0.18409430820520356],2018_Jul_09_1226,60.078438476,go-nogo,001,20,
logos/4.jpg,properties4.xlsx,frogs/ab39.jpg,0,0,400,l,0,3,3,3,0,74,74,38,,,['l'],0,[0.20091807367225556],2018_Jul_09_1226,60.078438476,go-nogo,001,20,
logos/4.jpg,properties4.xlsx,frogs/ab20.jpg,0,0,400,l,0,3,3,3,0,75,75,19,,,['l'],0,[0.11768955820571136],2018_Jul_09_1226,60.078438476,go-nogo,001,20,
logos/4.jpg,properties4.xlsx,frogs/ab72.jpg,0,0,400,l,0,3,3,3,0,76,76,70,,,['l'],0,[0.18422003275736643],2018_Jul_09_1226,60.078438476,go-nogo,001,20,
logos/4.jpg,properties4.xlsx,frogs/ab48.jpg,0,0,400,l,0,3,3,3,0,77,77,47,,,['l'],0,[0.20084753139053646],2018_Jul_09_1226,60.078438476,go-nogo,001,20,
logos/4.jpg,properties4.xlsx,frogs/ab74.jpg,0,0,400,l,0,3,3,3,0,78,78,72,,,['l'],0,[0.10080890380140772],2018_Jul_09_1226,60.078438476,go-nogo,001,20,
logos/4.jpg,properties4.xlsx,logos/4.jpg,0,0,400,a,0,3,3,3,0,79,79,85,,,['a'],0,[0.11682086413202342],2018_Jul_09_1226,60.078438476,go-nogo,001,20,
logos/4.jpg,properties4.xlsx,frogs/ab38.jpg,0,0,400,l,0,3,3,3,0,80,80,37,,,['l'],0,[0.0842894941497434],2018_Jul_09_1226,60.078438476,go-nogo,001,20,
logos/4.jpg,properties4.xlsx,frogs/ab35.jpg,0,0,400,l,0,3,3,3,0,81,81,34,,,['l'],0,[0.16763747638378845],2018_Jul_09_1226,60.078438476,go-nogo,001,20,
logos/4.jpg,properties4.xlsx,frogs/ab66.jpg,0,0,400,l,0,3,3,3,0,82,82,64,,,['l'],0,[0.18359425444486988],2018_Jul_09_1226,60.078438476,go-nogo,001,20,
logos/4.jpg,properties4.xlsx,frogs/ab40.jpg,0,0,400,l,0,3,3,3,0,83,83,39,,,['l'],0,[0.18430707283096126],2018_Jul_09_1226,60.078438476,go-nogo,001,20,
logos/4.jpg,properties4.xlsx,frogs/ab32.jpg,0,0,400,l,0,3,3,3,0,84,84,31,,,['l'],0,[0.2009789448347874],2018_Jul_09_1226,60.078438476,go-nogo,001,20,
logos/4.jpg,properties4.xlsx,frogs/ab4.jpg,0,0,400,l,0,3,3,3,0,85,85,3,,,['l'],0,[0.23343692808884953],2018_Jul_09_1226,60.078438476,go-nogo,001,20,
logos/4.jpg,properties4.xlsx,frogs/ab64.jpg,0,0,400,l,0,3,3,3,0,86,86,62,,,['l'],0,[0.2340297108166851],2018_Jul_09_1226,60.078438476,go-nogo,001,20,
logos/4.jpg,properties4.xlsx,frogs/ab22.jpg,0,0,400,l,0,3,3,3,0,87,87,21,,,['l'],0,[0.23440233335622906],2018_Jul_09_1226,60.078438476,go-nogo,001,20,
logos/4.jpg,properties4.xlsx,logos/4.jpg,0,0,400,a,0,3,3,3,0,88,88,83,,,['a'],0,[0.08514339710018248],2018_Jul_09_1226,60.078438476,go-nogo,001,20,
logos/4.jpg,properties4.xlsx,frogs/ab46.jpg,0,0,400,l,0,3,3,3,0,89,89,45,,,['l'],0,[0.150284643798841],2018_Jul_09_1226,60.078438476,go-nogo,001,20,
logos/4.jpg,properties4.xlsx,,,,,,0,3,3,3,,,,,,,,,,2018_Jul_09_1226,60.078438476,go-nogo,001,20,
