pix,source,image1,x,y,size,answer,trials_2.thisRepN,trials_2.thisTrialN,trials_2.thisN,trials_2.thisIndex,trials.thisRepN,trials.thisTrialN,trials.thisN,trials.thisIndex,key_resp_3.keys,key_resp_3.rt,key_resp_2.keys,key_resp_2.corr,key_resp_2.rt,date,frameRate,expName,session,participant,
logos/1.jpg,properties1.xlsx,frogs/ab6.jpg,0,0,400,l,0,0,0,0,0,0,0,5,space,3.27835048786,['l'],0,[1.1173659749110811],2018_Jul_09_0532,60.0369989341,go-nogo,001,21,
logos/1.jpg,properties1.xlsx,frogs/ab63.jpg,0,0,400,l,0,0,0,0,0,1,1,61,,,['l'],0,[7.115389541279001],2018_Jul_09_0532,60.0369989341,go-nogo,001,21,
logos/1.jpg,properties1.xlsx,frogs/ab16.jpg,0,0,400,l,0,0,0,0,0,2,2,15,,,['l'],0,[2.800040162350342],2018_Jul_09_0532,60.0369989341,go-nogo,001,21,
logos/1.jpg,properties1.xlsx,frogs/ab7.jpg,0,0,400,l,0,0,0,0,0,3,3,6,,,['l'],0,[1.1174369283835404],2018_Jul_09_0532,60.0369989341,go-nogo,001,21,
logos/1.jpg,properties1.xlsx,frogs/ab33.jpg,0,0,400,l,0,0,0,0,0,4,4,32,,,['l'],0,[2.15082254713343],2018_Jul_09_0532,60.0369989341,go-nogo,001,21,
logos/1.jpg,properties1.xlsx,frogs/ab5.jpg,0,0,400,l,0,0,0,0,0,5,5,4,,,['a'],0,[3.233476653411344],2018_Jul_09_0532,60.0369989341,go-nogo,001,21,
logos/1.jpg,properties1.xlsx,logos/1.jpg,0,0,400,a,0,0,0,0,0,6,6,86,,,['l'],0,[11.932930222392315],2018_Jul_09_0532,60.0369989341,go-nogo,001,21,
logos/1.jpg,properties1.xlsx,frogs/ab60.jpg,0,0,400,l,0,0,0,0,0,7,7,58,,,['l'],0,[1.250670153356623],2018_Jul_09_0532,60.0369989341,go-nogo,001,21,
logos/1.jpg,properties1.xlsx,frogs/ab44.jpg,0,0,400,l,0,0,0,0,0,8,8,43,,,['l'],0,[1.4171796662485576],2018_Jul_09_0532,60.0369989341,go-nogo,001,21,
logos/1.jpg,properties1.xlsx,frogs/ab27.jpg,0,0,400,l,0,0,0,0,0,9,9,26,,,['l'],0,[2.95000725153659],2018_Jul_09_0532,60.0369989341,go-nogo,001,21,
logos/1.jpg,properties1.xlsx,frogs/ab26.jpg,0,0,400,l,0,0,0,0,0,10,10,25,,,['l'],0,[6.332255048735533],2018_Jul_09_0532,60.0369989341,go-nogo,001,21,
logos/1.jpg,properties1.xlsx,frogs/ab14.jpg,0,0,400,l,0,0,0,0,0,11,11,13,,,['l'],0,[3.383599929496995],2018_Jul_09_0532,60.0369989341,go-nogo,001,21,
logos/1.jpg,properties1.xlsx,frogs/ab61.jpg,0,0,400,l,0,0,0,0,0,12,12,59,,,['l'],0,[3.582082239096053],2018_Jul_09_0532,60.0369989341,go-nogo,001,21,
logos/1.jpg,properties1.xlsx,frogs/ab17.jpg,0,0,400,l,0,0,0,0,0,13,13,16,,,['l'],0,[2.5002273635036545],2018_Jul_09_0532,60.0369989341,go-nogo,001,21,
logos/1.jpg,properties1.xlsx,frogs/ab22.jpg,0,0,400,l,0,0,0,0,0,14,14,21,,,['l'],0,[2.3351061289940844],2018_Jul_09_0532,60.0369989341,go-nogo,001,21,
logos/1.jpg,properties1.xlsx,frogs/ab65.jpg,0,0,400,l,0,0,0,0,0,15,15,63,,,['l'],0,[2.4003480736573692],2018_Jul_09_0532,60.0369989341,go-nogo,001,21,
logos/1.jpg,properties1.xlsx,frogs/ab68.jpg,0,0,400,l,0,0,0,0,0,16,16,66,,,['l'],0,[2.6501654465537285],2018_Jul_09_0532,60.0369989341,go-nogo,001,21,
logos/1.jpg,properties1.xlsx,frogs/ab23.jpg,0,0,400,l,0,0,0,0,0,17,17,22,,,['l'],0,[1.817118083992682],2018_Jul_09_0532,60.0369989341,go-nogo,001,21,
logos/1.jpg,properties1.xlsx,frogs/ab18.jpg,0,0,400,l,0,0,0,0,0,18,18,17,,,['l'],0,[2.7501870895866887],2018_Jul_09_0532,60.0369989341,go-nogo,001,21,
logos/1.jpg,properties1.xlsx,frogs/ab30.jpg,0,0,400,l,0,0,0,0,0,19,19,29,,,['l'],0,[2.9500884687222424],2018_Jul_09_0532,60.0369989341,go-nogo,001,21,
logos/1.jpg,properties1.xlsx,frogs/ab51.jpg,0,0,400,l,0,0,0,0,0,20,20,50,,,['l'],0,[1.1340574455389287],2018_Jul_09_0532,60.0369989341,go-nogo,001,21,
logos/1.jpg,properties1.xlsx,frogs/ab45.jpg,0,0,400,l,0,0,0,0,0,21,21,44,,,['l'],0,[2.2170399905371596],2018_Jul_09_0532,60.0369989341,go-nogo,001,21,
logos/1.jpg,properties1.xlsx,frogs/ab1.jpg,0,0,400,l,0,0,0,0,0,22,22,0,,,['l'],0,[0.9507618573770742],2018_Jul_09_0532,60.0369989341,go-nogo,001,21,
logos/1.jpg,properties1.xlsx,frogs/ab49.jpg,0,0,400,l,0,0,0,0,0,23,23,48,,,['l'],0,[6.149678366549779],2018_Jul_09_0532,60.0369989341,go-nogo,001,21,
logos/1.jpg,properties1.xlsx,frogs/ab34.jpg,0,0,400,l,0,0,0,0,0,24,24,33,,,['l'],0,[1.8003909134931746],2018_Jul_09_0532,60.0369989341,go-nogo,001,21,
logos/1.jpg,properties1.xlsx,frogs/ab39.jpg,0,0,400,l,0,0,0,0,0,25,25,38,,,['l'],0,[3.2832395840014215],2018_Jul_09_0532,60.0369989341,go-nogo,001,21,
logos/1.jpg,properties1.xlsx,frogs/ab3.jpg,0,0,400,l,0,0,0,0,0,26,26,2,,,['l'],0,[2.8015159053975367],2018_Jul_09_0532,60.0369989341,go-nogo,001,21,
logos/1.jpg,properties1.xlsx,frogs/ab76.jpg,0,0,400,l,0,0,0,0,0,27,27,74,,,['l'],0,[1.4505474350735312],2018_Jul_09_0532,60.0369989341,go-nogo,001,21,
logos/1.jpg,properties1.xlsx,frogs/ab24.jpg,0,0,400,l,0,0,0,0,0,28,28,23,,,['l'],0,[2.3667442394944374],2018_Jul_09_0532,60.0369989341,go-nogo,001,21,
logos/1.jpg,properties1.xlsx,frogs/ab70.jpg,0,0,400,l,0,0,0,0,0,29,29,68,,,['l'],0,[1.8171243314645835],2018_Jul_09_0532,60.0369989341,go-nogo,001,21,
logos/1.jpg,properties1.xlsx,frogs/ab32.jpg,0,0,400,l,0,0,0,0,0,30,30,31,,,['l'],0,[2.250444797973614],2018_Jul_09_0532,60.0369989341,go-nogo,001,21,
logos/1.jpg,properties1.xlsx,frogs/ab74.jpg,0,0,400,l,0,0,0,0,0,31,31,72,,,['l'],0,[1.1175489367014961],2018_Jul_09_0532,60.0369989341,go-nogo,001,21,
logos/1.jpg,properties1.xlsx,frogs/ab21.jpg,0,0,400,l,0,0,0,0,0,32,32,20,,,['l'],0,[1.750470457249321],2018_Jul_09_0532,60.0369989341,go-nogo,001,21,
logos/1.jpg,properties1.xlsx,logos/1.jpg,0,0,400,a,0,0,0,0,0,33,33,80,,,['a'],0,[0.9994417434063507],2018_Jul_09_0532,60.0369989341,go-nogo,001,21,
logos/1.jpg,properties1.xlsx,logos/1.jpg,0,0,400,a,0,0,0,0,0,34,34,83,,,['l'],0,[1.4176375169845414],2018_Jul_09_0532,60.0369989341,go-nogo,001,21,
logos/1.jpg,properties1.xlsx,frogs/ab9.jpg,0,0,400,l,0,0,0,0,0,35,35,8,,,['l'],0,[1.2330545025324682],2018_Jul_09_0532,60.0369989341,go-nogo,001,21,
logos/1.jpg,properties1.xlsx,frogs/ab43.jpg,0,0,400,l,0,0,0,0,0,36,36,42,,,['l'],0,[3.633224523124227],2018_Jul_09_0532,60.0369989341,go-nogo,001,21,
logos/1.jpg,properties1.xlsx,frogs/ab13.jpg,0,0,400,l,0,0,0,0,0,37,37,12,,,['l'],0,[1.284022749736323],2018_Jul_09_0532,60.0369989341,go-nogo,001,21,
logos/1.jpg,properties1.xlsx,frogs/ab8.jpg,0,0,400,l,0,0,0,0,0,38,38,7,,,['l'],0,[0.7509765028007678],2018_Jul_09_0532,60.0369989341,go-nogo,001,21,
logos/1.jpg,properties1.xlsx,frogs/ab75.jpg,0,0,400,l,0,0,0,0,0,39,39,73,,,['l'],0,[2.8001035295965266],2018_Jul_09_0532,60.0369989341,go-nogo,001,21,
logos/1.jpg,properties1.xlsx,frogs/ab36.jpg,0,0,400,l,0,0,0,0,0,40,40,35,,,['l'],0,[2.551655692674103],2018_Jul_09_0532,60.0369989341,go-nogo,001,21,
logos/1.jpg,properties1.xlsx,frogs/ab37.jpg,0,0,400,l,0,0,0,0,0,41,41,36,,,['l'],0,[2.3169964813350816],2018_Jul_09_0532,60.0369989341,go-nogo,001,21,
logos/1.jpg,properties1.xlsx,frogs/ab4.jpg,0,0,400,l,0,0,0,0,0,42,42,3,,,['l'],0,[0.10086906852666289],2018_Jul_09_0532,60.0369989341,go-nogo,001,21,
logos/1.jpg,properties1.xlsx,frogs/ab12.jpg,0,0,400,l,0,0,0,0,0,43,43,11,,,['l'],0,[1.283800518096541],2018_Jul_09_0532,60.0369989341,go-nogo,001,21,
logos/1.jpg,properties1.xlsx,frogs/ab38.jpg,0,0,400,l,0,0,0,0,0,44,44,37,,,['l'],0,[1.767160142888315],2018_Jul_09_0532,60.0369989341,go-nogo,001,21,
logos/1.jpg,properties1.xlsx,frogs/ab62.jpg,0,0,400,l,0,0,0,0,0,45,45,60,,,['l'],0,[2.903084691228287],2018_Jul_09_0532,60.0369989341,go-nogo,001,21,
logos/1.jpg,properties1.xlsx,frogs/ab53.jpg,0,0,400,l,0,0,0,0,0,46,46,52,,,['l'],0,[1.3506801939365687],2018_Jul_09_0532,60.0369989341,go-nogo,001,21,
logos/1.jpg,properties1.xlsx,frogs/ab56.jpg,0,0,400,l,0,0,0,0,0,47,47,55,,,['l'],0,[3.0275848373712506],2018_Jul_09_0532,60.0369989341,go-nogo,001,21,
logos/1.jpg,properties1.xlsx,frogs/ab40.jpg,0,0,400,l,0,0,0,0,0,48,48,39,,,['l'],0,[0.13435553939052625],2018_Jul_09_0532,60.0369989341,go-nogo,001,21,
logos/1.jpg,properties1.xlsx,logos/1.jpg,0,0,400,a,0,0,0,0,0,49,49,81,,,['a'],0,[0.6539500782091636],2018_Jul_09_0532,60.0369989341,go-nogo,001,21,
logos/1.jpg,properties1.xlsx,frogs/ab48.jpg,0,0,400,l,0,0,0,0,0,50,50,47,,,['l'],0,[2.300157748766651],2018_Jul_09_0532,60.0369989341,go-nogo,001,21,
logos/1.jpg,properties1.xlsx,frogs/ab73.jpg,0,0,400,l,0,0,0,0,0,51,51,71,,,['l'],0,[1.2504947777779307],2018_Jul_09_0532,60.0369989341,go-nogo,001,21,
logos/1.jpg,properties1.xlsx,frogs/ab79.jpg,0,0,400,l,0,0,0,0,0,52,52,77,,,['l'],0,[1.0174603564228164],2018_Jul_09_0532,60.0369989341,go-nogo,001,21,
logos/1.jpg,properties1.xlsx,frogs/ab57.jpg,0,0,400,l,0,0,0,0,0,53,53,56,,,['l'],0,[1.416929767212423],2018_Jul_09_0532,60.0369989341,go-nogo,001,21,
logos/1.jpg,properties1.xlsx,frogs/ab72.jpg,0,0,400,l,0,0,0,0,0,54,54,70,,,['l'],0,[1.3672556400197209],2018_Jul_09_0532,60.0369989341,go-nogo,001,21,
logos/1.jpg,properties1.xlsx,frogs/ab54.jpg,0,0,400,l,0,0,0,0,0,55,55,53,,,['l'],0,[1.966988783548004],2018_Jul_09_0532,60.0369989341,go-nogo,001,21,
logos/1.jpg,properties1.xlsx,frogs/ab29.jpg,0,0,400,l,0,0,0,0,0,56,56,28,,,['l'],0,[3.299905172236322],2018_Jul_09_0532,60.0369989341,go-nogo,001,21,
logos/1.jpg,properties1.xlsx,frogs/ab42.jpg,0,0,400,l,0,0,0,0,0,57,57,41,,,['l'],0,[0.06827420171612175],2018_Jul_09_0532,60.0369989341,go-nogo,001,21,
logos/1.jpg,properties1.xlsx,frogs/ab78.jpg,0,0,400,l,0,0,0,0,0,58,58,76,,,['l'],0,[1.8003177287755534],2018_Jul_09_0532,60.0369989341,go-nogo,001,21,
logos/1.jpg,properties1.xlsx,frogs/ab80.jpg,0,0,400,l,0,0,0,0,0,59,59,78,,,['l'],0,[1.5004893112418358],2018_Jul_09_0532,60.0369989341,go-nogo,001,21,
logos/1.jpg,properties1.xlsx,frogs/ab2.jpg,0,0,400,l,0,0,0,0,0,60,60,1,,,['l'],0,[0.3697586466150824],2018_Jul_09_0532,60.0369989341,go-nogo,001,21,
logos/1.jpg,properties1.xlsx,frogs/ab31.jpg,0,0,400,l,0,0,0,0,0,61,61,30,,,['l'],0,[1.600131643244822],2018_Jul_09_0532,60.0369989341,go-nogo,001,21,
logos/1.jpg,properties1.xlsx,logos/1.jpg,0,0,400,a,0,0,0,0,0,62,62,89,,,['l'],0,[4.8355463529223925],2018_Jul_09_0532,60.0369989341,go-nogo,001,21,
logos/1.jpg,properties1.xlsx,frogs/ab67.jpg,0,0,400,l,0,0,0,0,0,63,63,65,,,['l'],0,[1.867114402441075],2018_Jul_09_0532,60.0369989341,go-nogo,001,21,
logos/1.jpg,properties1.xlsx,frogs/ab77.jpg,0,0,400,l,0,0,0,0,0,64,64,75,,,['l'],0,[2.650200700161804],2018_Jul_09_0532,60.0369989341,go-nogo,001,21,
logos/1.jpg,properties1.xlsx,frogs/ab64.jpg,0,0,400,l,0,0,0,0,0,65,65,62,,,['l'],0,[1.7172865427128272],2018_Jul_09_0532,60.0369989341,go-nogo,001,21,
logos/1.jpg,properties1.xlsx,logos/1.jpg,0,0,400,a,0,0,0,0,0,66,66,87,,,['a'],0,[0.7175899915455375],2018_Jul_09_0532,60.0369989341,go-nogo,001,21,
logos/1.jpg,properties1.xlsx,frogs/ab20.jpg,0,0,400,l,0,0,0,0,0,67,67,19,,,['l'],0,[0.7512951240714756],2018_Jul_09_0532,60.0369989341,go-nogo,001,21,
logos/1.jpg,properties1.xlsx,frogs/ab71.jpg,0,0,400,l,0,0,0,0,0,68,68,69,,,['l'],0,[1.3841760360155604],2018_Jul_09_0532,60.0369989341,go-nogo,001,21,
logos/1.jpg,properties1.xlsx,frogs/ab81.jpg,0,0,400,l,0,0,0,0,0,69,69,79,,,['l'],0,[1.434111218455655],2018_Jul_09_0532,60.0369989341,go-nogo,001,21,
logos/1.jpg,properties1.xlsx,frogs/ab66.jpg,0,0,400,l,0,0,0,0,0,70,70,64,,,['l'],0,[1.417351918091299],2018_Jul_09_0532,60.0369989341,go-nogo,001,21,
logos/1.jpg,properties1.xlsx,frogs/ab55.jpg,0,0,400,l,0,0,0,0,0,71,71,54,,,['l'],0,[1.5007334090478253],2018_Jul_09_0532,60.0369989341,go-nogo,001,21,
logos/1.jpg,properties1.xlsx,frogs/ab58.jpg,0,0,400,l,0,0,0,0,0,72,72,57,,,['l'],0,[1.1505070496059489],2018_Jul_09_0532,60.0369989341,go-nogo,001,21,
logos/1.jpg,properties1.xlsx,frogs/ab35.jpg,0,0,400,l,0,0,0,0,0,73,73,34,,,['l'],0,[2.550117474864237],2018_Jul_09_0532,60.0369989341,go-nogo,001,21,
logos/1.jpg,properties1.xlsx,frogs/ab41.jpg,0,0,400,l,0,0,0,0,0,74,74,40,,,['l'],0,[2.850039604534686],2018_Jul_09_0532,60.0369989341,go-nogo,001,21,
logos/1.jpg,properties1.xlsx,logos/1.jpg,0,0,400,a,0,0,0,0,0,75,75,82,,,['a'],0,[2.9026478141604457],2018_Jul_09_0532,60.0369989341,go-nogo,001,21,
logos/1.jpg,properties1.xlsx,frogs/ab19.jpg,0,0,400,l,0,0,0,0,0,76,76,18,,,['l'],0,[0.7675537338727736],2018_Jul_09_0532,60.0369989341,go-nogo,001,21,
logos/1.jpg,properties1.xlsx,logos/1.jpg,0,0,400,a,0,0,0,0,0,77,77,84,,,['l'],0,[4.316113802240579],2018_Jul_09_0532,60.0369989341,go-nogo,001,21,
logos/1.jpg,properties1.xlsx,frogs/ab69.jpg,0,0,400,l,0,0,0,0,0,78,78,67,,,['l'],0,[2.284112445639039],2018_Jul_09_0532,60.0369989341,go-nogo,001,21,
logos/1.jpg,properties1.xlsx,frogs/ab46.jpg,0,0,400,l,0,0,0,0,0,79,79,45,,,['l'],0,[3.5165355068602366],2018_Jul_09_0532,60.0369989341,go-nogo,001,21,
logos/1.jpg,properties1.xlsx,frogs/ab11.jpg,0,0,400,l,0,0,0,0,0,80,80,10,,,['l'],0,[3.4833828297050786],2018_Jul_09_0532,60.0369989341,go-nogo,001,21,
logos/1.jpg,properties1.xlsx,frogs/ab25.jpg,0,0,400,l,0,0,0,0,0,81,81,24,,,['l'],0,[3.0667069777628058],2018_Jul_09_0532,60.0369989341,go-nogo,001,21,
logos/1.jpg,properties1.xlsx,frogs/ab52.jpg,0,0,400,l,0,0,0,0,0,82,82,51,,,['l'],0,[4.199715739843668],2018_Jul_09_0532,60.0369989341,go-nogo,001,21,
logos/1.jpg,properties1.xlsx,frogs/ab10.jpg,0,0,400,l,0,0,0,0,0,83,83,9,,,['l'],0,[1.4672116845686105],2018_Jul_09_0532,60.0369989341,go-nogo,001,21,
logos/1.jpg,properties1.xlsx,logos/1.jpg,0,0,400,a,0,0,0,0,0,84,84,88,,,['a'],0,[0.5178282881242922],2018_Jul_09_0532,60.0369989341,go-nogo,001,21,
logos/1.jpg,properties1.xlsx,logos/1.jpg,0,0,400,a,0,0,0,0,0,85,85,85,,,['l'],0,[3.0162403136200737],2018_Jul_09_0532,60.0369989341,go-nogo,001,21,
logos/1.jpg,properties1.xlsx,frogs/ab47.jpg,0,0,400,l,0,0,0,0,0,86,86,46,,,['a'],0,[0.22473911209817743],2018_Jul_09_0532,60.0369989341,go-nogo,001,21,
logos/1.jpg,properties1.xlsx,frogs/ab28.jpg,0,0,400,l,0,0,0,0,0,87,87,27,,,['l'],0,[0.6175500523168012],2018_Jul_09_0532,60.0369989341,go-nogo,001,21,
logos/1.jpg,properties1.xlsx,frogs/ab15.jpg,0,0,400,l,0,0,0,0,0,88,88,14,,,['l'],0,[0.13431403830327326],2018_Jul_09_0532,60.0369989341,go-nogo,001,21,
logos/1.jpg,properties1.xlsx,frogs/ab50.jpg,0,0,400,l,0,0,0,0,0,89,89,49,,,['l'],0,[1.6172381247815792],2018_Jul_09_0532,60.0369989341,go-nogo,001,21,
logos/1.jpg,properties1.xlsx,,,,,,0,0,0,0,,,,,,,,,,2018_Jul_09_0532,60.0369989341,go-nogo,001,21,
logos/2.jpg,properties2.xlsx,logos/2.jpg,0,0,400,a,0,1,1,1,0,0,0,84,space,6.77781387431,['l'],0,[2.1171151833768818],2018_Jul_09_0532,60.0369989341,go-nogo,001,21,
logos/2.jpg,properties2.xlsx,logos/2.jpg,0,0,400,a,0,1,1,1,0,1,1,80,,,['a'],0,[0.417597800893418],2018_Jul_09_0532,60.0369989341,go-nogo,001,21,
logos/2.jpg,properties2.xlsx,frogs/ab31.jpg,0,0,400,l,0,1,1,1,0,2,2,30,,,['l'],0,[0.5007695551539655],2018_Jul_09_0532,60.0369989341,go-nogo,001,21,
logos/2.jpg,properties2.xlsx,frogs/ab77.jpg,0,0,400,l,0,1,1,1,0,3,3,75,,,['l'],0,[1.3673448896806804],2018_Jul_09_0532,60.0369989341,go-nogo,001,21,
logos/2.jpg,properties2.xlsx,frogs/ab38.jpg,0,0,400,l,0,1,1,1,0,4,4,37,,,['l'],0,[0.9834767649663263],2018_Jul_09_0532,60.0369989341,go-nogo,001,21,
logos/2.jpg,properties2.xlsx,frogs/ab71.jpg,0,0,400,l,0,1,1,1,0,5,5,69,,,['l'],0,[3.3332894522536662],2018_Jul_09_0532,60.0369989341,go-nogo,001,21,
logos/2.jpg,properties2.xlsx,frogs/ab1.jpg,0,0,400,l,0,1,1,1,0,6,6,0,,,['l'],0,[2.666803813634033],2018_Jul_09_0532,60.0369989341,go-nogo,001,21,
logos/2.jpg,properties2.xlsx,frogs/ab11.jpg,0,0,400,l,0,1,1,1,0,7,7,10,,,['l'],0,[3.13330685593246],2018_Jul_09_0532,60.0369989341,go-nogo,001,21,
logos/2.jpg,properties2.xlsx,logos/2.jpg,0,0,400,a,0,1,1,1,0,8,8,82,,,['a'],0,[0.10100562049774453],2018_Jul_09_0532,60.0369989341,go-nogo,001,21,
logos/2.jpg,properties2.xlsx,frogs/ab65.jpg,0,0,400,l,0,1,1,1,0,9,9,63,,,['l'],0,[1.1840278815943748],2018_Jul_09_0532,60.0369989341,go-nogo,001,21,
logos/2.jpg,properties2.xlsx,logos/2.jpg,0,0,400,a,0,1,1,1,0,10,10,89,,,['a'],0,[0.10105024532822426],2018_Jul_09_0532,60.0369989341,go-nogo,001,21,
logos/2.jpg,properties2.xlsx,frogs/ab13.jpg,0,0,400,l,0,1,1,1,0,11,11,12,,,['l'],0,[1.2172131348706898],2018_Jul_09_0532,60.0369989341,go-nogo,001,21,
logos/2.jpg,properties2.xlsx,frogs/ab27.jpg,0,0,400,l,0,1,1,1,0,12,12,26,,,['l'],0,[0.6841035206743982],2018_Jul_09_0532,60.0369989341,go-nogo,001,21,
logos/2.jpg,properties2.xlsx,frogs/ab47.jpg,0,0,400,l,0,1,1,1,0,13,13,46,,,['l'],0,[3.909519145163358],2018_Jul_09_0532,60.0369989341,go-nogo,001,21,
logos/2.jpg,properties2.xlsx,frogs/ab53.jpg,0,0,400,l,0,1,1,1,0,14,14,52,,,['l'],0,[2.083665304868191],2018_Jul_09_0532,60.0369989341,go-nogo,001,21,
logos/2.jpg,properties2.xlsx,logos/2.jpg,0,0,400,a,0,1,1,1,0,15,15,88,,,['a'],0,[0.5850056115741609],2018_Jul_09_0532,60.0369989341,go-nogo,001,21,
logos/2.jpg,properties2.xlsx,frogs/ab63.jpg,0,0,400,l,0,1,1,1,0,16,16,61,,,['l'],0,[0.4509419185560546],2018_Jul_09_0532,60.0369989341,go-nogo,001,21,
logos/2.jpg,properties2.xlsx,frogs/ab8.jpg,0,0,400,l,0,1,1,1,0,17,17,7,,,['l'],0,[2.0003114812934655],2018_Jul_09_0532,60.0369989341,go-nogo,001,21,
logos/2.jpg,properties2.xlsx,frogs/ab57.jpg,0,0,400,l,0,1,1,1,0,18,18,56,,,['l'],0,[1.9170125462696888],2018_Jul_09_0532,60.0369989341,go-nogo,001,21,
logos/2.jpg,properties2.xlsx,frogs/ab48.jpg,0,0,400,l,0,1,1,1,0,19,19,47,,,['l'],0,[0.9843393628907506],2018_Jul_09_0532,60.0369989341,go-nogo,001,21,
logos/2.jpg,properties2.xlsx,frogs/ab45.jpg,0,0,400,l,0,1,1,1,0,20,20,44,,,['l'],0,[1.7333322920894716],2018_Jul_09_0532,60.0369989341,go-nogo,001,21,
logos/2.jpg,properties2.xlsx,frogs/ab81.jpg,0,0,400,l,0,1,1,1,0,21,21,79,,,['l'],0,[2.9667054158926476],2018_Jul_09_0532,60.0369989341,go-nogo,001,21,
logos/2.jpg,properties2.xlsx,frogs/ab2.jpg,0,0,400,l,0,1,1,1,0,22,22,1,,,['l'],0,[2.0934738420401118],2018_Jul_09_0532,60.0369989341,go-nogo,001,21,
logos/2.jpg,properties2.xlsx,frogs/ab72.jpg,0,0,400,l,0,1,1,1,0,23,23,70,,,['l'],0,[2.383757901385252],2018_Jul_09_0532,60.0369989341,go-nogo,001,21,
logos/2.jpg,properties2.xlsx,frogs/ab61.jpg,0,0,400,l,0,1,1,1,0,24,24,59,,,['l'],0,[1.516862606848008],2018_Jul_09_0532,60.0369989341,go-nogo,001,21,
logos/2.jpg,properties2.xlsx,frogs/ab23.jpg,0,0,400,l,0,1,1,1,0,25,25,22,,,['l'],0,[1.5172548590853694],2018_Jul_09_0532,60.0369989341,go-nogo,001,21,
logos/2.jpg,properties2.xlsx,frogs/ab75.jpg,0,0,400,l,0,1,1,1,0,26,26,73,,,['l'],0,[1.5836869479026063],2018_Jul_09_0532,60.0369989341,go-nogo,001,21,
logos/2.jpg,properties2.xlsx,frogs/ab64.jpg,0,0,400,l,0,1,1,1,0,27,27,62,,,['l'],0,[2.067008195350354],2018_Jul_09_0532,60.0369989341,go-nogo,001,21,
logos/2.jpg,properties2.xlsx,frogs/ab4.jpg,0,0,400,l,0,1,1,1,0,28,28,3,,,['l'],0,[1.7836820391748915],2018_Jul_09_0532,60.0369989341,go-nogo,001,21,
logos/2.jpg,properties2.xlsx,frogs/ab39.jpg,0,0,400,l,0,1,1,1,0,29,29,38,,,['l'],0,[1.2506340072432067],2018_Jul_09_0532,60.0369989341,go-nogo,001,21,
logos/2.jpg,properties2.xlsx,frogs/ab41.jpg,0,0,400,l,0,1,1,1,0,30,30,40,,,['l'],0,[1.2006970398142585],2018_Jul_09_0532,60.0369989341,go-nogo,001,21,
logos/2.jpg,properties2.xlsx,frogs/ab16.jpg,0,0,400,l,0,1,1,1,0,31,31,15,,,['l'],0,[2.0004159033996984],2018_Jul_09_0532,60.0369989341,go-nogo,001,21,
logos/2.jpg,properties2.xlsx,frogs/ab78.jpg,0,0,400,l,0,1,1,1,0,32,32,76,,,['l'],0,[1.2506866645417176],2018_Jul_09_0532,60.0369989341,go-nogo,001,21,
logos/2.jpg,properties2.xlsx,frogs/ab67.jpg,0,0,400,l,0,1,1,1,0,33,33,65,,,['l'],0,[2.722077017991978],2018_Jul_09_0532,60.0369989341,go-nogo,001,21,
logos/2.jpg,properties2.xlsx,frogs/ab25.jpg,0,0,400,l,0,1,1,1,0,34,34,24,,,['l'],0,[1.2673201228972175],2018_Jul_09_0532,60.0369989341,go-nogo,001,21,
logos/2.jpg,properties2.xlsx,frogs/ab76.jpg,0,0,400,l,0,1,1,1,0,35,35,74,,,['l'],0,[1.9004951124661602],2018_Jul_09_0532,60.0369989341,go-nogo,001,21,
logos/2.jpg,properties2.xlsx,frogs/ab58.jpg,0,0,400,l,0,1,1,1,0,36,36,57,,,['l'],0,[1.762260783034435],2018_Jul_09_0532,60.0369989341,go-nogo,001,21,
logos/2.jpg,properties2.xlsx,frogs/ab37.jpg,0,0,400,l,0,1,1,1,0,37,37,36,,,['l'],0,[2.650262282426411],2018_Jul_09_0532,60.0369989341,go-nogo,001,21,
logos/2.jpg,properties2.xlsx,frogs/ab40.jpg,0,0,400,l,0,1,1,1,0,38,38,39,,,['l'],0,[2.249896805085882],2018_Jul_09_0532,60.0369989341,go-nogo,001,21,
logos/2.jpg,properties2.xlsx,frogs/ab73.jpg,0,0,400,l,0,1,1,1,0,39,39,71,,,['l'],0,[1.3839542506248108],2018_Jul_09_0532,60.0369989341,go-nogo,001,21,
logos/2.jpg,properties2.xlsx,frogs/ab29.jpg,0,0,400,l,0,1,1,1,0,40,40,28,,,['l'],0,[0.717563662896282],2018_Jul_09_0532,60.0369989341,go-nogo,001,21,
logos/2.jpg,properties2.xlsx,frogs/ab46.jpg,0,0,400,l,0,1,1,1,0,41,41,45,,,['l'],0,[2.583538347229478],2018_Jul_09_0532,60.0369989341,go-nogo,001,21,
logos/2.jpg,properties2.xlsx,frogs/ab52.jpg,0,0,400,l,0,1,1,1,0,42,42,51,,,['l'],0,[2.433565456813085],2018_Jul_09_0532,60.0369989341,go-nogo,001,21,
logos/2.jpg,properties2.xlsx,logos/2.jpg,0,0,400,a,0,1,1,1,0,43,43,87,,,['a'],0,[0.06768426149210427],2018_Jul_09_0532,60.0369989341,go-nogo,001,21,
logos/2.jpg,properties2.xlsx,frogs/ab28.jpg,0,0,400,l,0,1,1,1,0,44,44,27,,,['l'],0,[0.5857526311883703],2018_Jul_09_0532,60.0369989341,go-nogo,001,21,
logos/2.jpg,properties2.xlsx,frogs/ab18.jpg,0,0,400,l,0,1,1,1,0,45,45,17,,,['l'],0,[0.11758731405279832],2018_Jul_09_0532,60.0369989341,go-nogo,001,21,
logos/2.jpg,properties2.xlsx,frogs/ab74.jpg,0,0,400,l,0,1,1,1,0,46,46,72,,,['l'],0,[1.2673058429500088],2018_Jul_09_0532,60.0369989341,go-nogo,001,21,
logos/2.jpg,properties2.xlsx,frogs/ab21.jpg,0,0,400,l,0,1,1,1,0,47,47,20,,,['l'],0,[0.017546928589581512],2018_Jul_09_0532,60.0369989341,go-nogo,001,21,
logos/2.jpg,properties2.xlsx,frogs/ab10.jpg,0,0,400,l,0,1,1,1,0,48,48,9,,,['l'],0,[0.6177281053824117],2018_Jul_09_0532,60.0369989341,go-nogo,001,21,
logos/2.jpg,properties2.xlsx,frogs/ab17.jpg,0,0,400,l,0,1,1,1,0,49,49,16,,,['l'],0,[0.41757950471219374],2018_Jul_09_0532,60.0369989341,go-nogo,001,21,
logos/2.jpg,properties2.xlsx,frogs/ab32.jpg,0,0,400,l,0,1,1,1,0,50,50,31,,,['l'],0,[0.350942141682026],2018_Jul_09_0532,60.0369989341,go-nogo,001,21,
logos/2.jpg,properties2.xlsx,frogs/ab14.jpg,0,0,400,l,0,1,1,1,0,51,51,13,,,['l'],0,[0.11769976861978648],2018_Jul_09_0532,60.0369989341,go-nogo,001,21,
logos/2.jpg,properties2.xlsx,frogs/ab43.jpg,0,0,400,l,0,1,1,1,0,52,52,42,,,['l'],0,[0.16767422090197215],2018_Jul_09_0532,60.0369989341,go-nogo,001,21,
logos/2.jpg,properties2.xlsx,frogs/ab3.jpg,0,0,400,l,0,1,1,1,0,53,53,2,,,['l'],0,[0.08483402911224402],2018_Jul_09_0532,60.0369989341,go-nogo,001,21,
logos/2.jpg,properties2.xlsx,logos/2.jpg,0,0,400,a,0,1,1,1,0,54,54,83,,,['a'],0,[0.03433077261433937],2018_Jul_09_0532,60.0369989341,go-nogo,001,21,
logos/2.jpg,properties2.xlsx,frogs/ab6.jpg,0,0,400,l,0,1,1,1,0,55,55,5,,,['l'],0,[0.6007956606845255],2018_Jul_09_0532,60.0369989341,go-nogo,001,21,
logos/2.jpg,properties2.xlsx,frogs/ab35.jpg,0,0,400,l,0,1,1,1,0,56,56,34,,,['l'],0,[0.017705792968627065],2018_Jul_09_0532,60.0369989341,go-nogo,001,21,
logos/2.jpg,properties2.xlsx,frogs/ab22.jpg,0,0,400,l,0,1,1,1,0,57,57,21,,,['l'],0,[0.0009558638121234253],2018_Jul_09_0532,60.0369989341,go-nogo,001,21,
logos/2.jpg,properties2.xlsx,frogs/ab54.jpg,0,0,400,l,0,1,1,1,0,58,58,53,,,['l'],0,[0.6677378112872248],2018_Jul_09_0532,60.0369989341,go-nogo,001,21,
logos/2.jpg,properties2.xlsx,frogs/ab51.jpg,0,0,400,l,0,1,1,1,0,59,59,50,,,['l'],0,[0.35064494032849325],2018_Jul_09_0532,60.0369989341,go-nogo,001,21,
logos/2.jpg,properties2.xlsx,frogs/ab7.jpg,0,0,400,l,0,1,1,1,0,60,60,6,,,['l'],0,[0.5342395148400101],2018_Jul_09_0532,60.0369989341,go-nogo,001,21,
logos/2.jpg,properties2.xlsx,logos/2.jpg,0,0,400,a,0,1,1,1,0,61,61,86,,,['a'],0,[0.5687273668445414],2018_Jul_09_0532,60.0369989341,go-nogo,001,21,
logos/2.jpg,properties2.xlsx,frogs/ab36.jpg,0,0,400,l,0,1,1,1,0,62,62,35,,,['l'],0,[1.4838250617540325],2018_Jul_09_0532,60.0369989341,go-nogo,001,21,
logos/2.jpg,properties2.xlsx,frogs/ab9.jpg,0,0,400,l,0,1,1,1,0,63,63,8,,,['l'],0,[0.3507797073034453],2018_Jul_09_0532,60.0369989341,go-nogo,001,21,
logos/2.jpg,properties2.xlsx,logos/2.jpg,0,0,400,a,0,1,1,1,0,64,64,85,,,['a'],0,[0.13440908918710193],2018_Jul_09_0532,60.0369989341,go-nogo,001,21,
logos/2.jpg,properties2.xlsx,frogs/ab15.jpg,0,0,400,l,0,1,1,1,0,65,65,14,,,['l'],0,[0.5520149225485511],2018_Jul_09_0532,60.0369989341,go-nogo,001,21,
logos/2.jpg,properties2.xlsx,frogs/ab42.jpg,0,0,400,l,0,1,1,1,0,66,66,41,,,['l'],0,[0.05112934283533832],2018_Jul_09_0532,60.0369989341,go-nogo,001,21,
logos/2.jpg,properties2.xlsx,frogs/ab19.jpg,0,0,400,l,0,1,1,1,0,67,67,18,,,['l'],0,[0.48450202038657153],2018_Jul_09_0532,60.0369989341,go-nogo,001,21,
logos/2.jpg,properties2.xlsx,frogs/ab56.jpg,0,0,400,l,0,1,1,1,0,68,68,55,,,['l'],0,[0.1911959677017876],2018_Jul_09_0532,60.0369989341,go-nogo,001,21,
logos/2.jpg,properties2.xlsx,frogs/ab70.jpg,0,0,400,l,0,1,1,1,0,69,69,68,,,['l'],0,[0.017824941263825167],2018_Jul_09_0532,60.0369989341,go-nogo,001,21,
logos/2.jpg,properties2.xlsx,frogs/ab44.jpg,0,0,400,l,0,1,1,1,0,70,70,43,,,['l'],0,[0.6343102451937739],2018_Jul_09_0532,60.0369989341,go-nogo,001,21,
logos/2.jpg,properties2.xlsx,frogs/ab60.jpg,0,0,400,l,0,1,1,1,0,71,71,58,,,['l'],0,[0.0009326588988187723],2018_Jul_09_0532,60.0369989341,go-nogo,001,21,
logos/2.jpg,properties2.xlsx,frogs/ab33.jpg,0,0,400,l,0,1,1,1,0,72,72,32,,,['l'],0,[0.45110881541040726],2018_Jul_09_0532,60.0369989341,go-nogo,001,21,
logos/2.jpg,properties2.xlsx,frogs/ab62.jpg,0,0,400,l,0,1,1,1,0,73,73,60,,,['l'],0,[0.017831634984759148],2018_Jul_09_0532,60.0369989341,go-nogo,001,21,
logos/2.jpg,properties2.xlsx,logos/2.jpg,0,0,400,a,0,1,1,1,0,74,74,81,,,['a'],0,[0.15121881561208284],2018_Jul_09_0532,60.0369989341,go-nogo,001,21,
logos/2.jpg,properties2.xlsx,frogs/ab30.jpg,0,0,400,l,0,1,1,1,0,75,75,29,,,['l'],0,[0.517613642703509],2018_Jul_09_0532,60.0369989341,go-nogo,001,21,
logos/2.jpg,properties2.xlsx,frogs/ab20.jpg,0,0,400,l,0,1,1,1,0,76,76,19,,,['l'],0,[0.5676630646994454],2018_Jul_09_0532,60.0369989341,go-nogo,001,21,
logos/2.jpg,properties2.xlsx,frogs/ab80.jpg,0,0,400,l,0,1,1,1,0,77,77,78,,,['l'],0,[0.017876259807962924],2018_Jul_09_0532,60.0369989341,go-nogo,001,21,
logos/2.jpg,properties2.xlsx,frogs/ab49.jpg,0,0,400,l,0,1,1,1,0,78,78,48,,,['l'],0,[0.001100002002203837],2018_Jul_09_0532,60.0369989341,go-nogo,001,21,
logos/2.jpg,properties2.xlsx,frogs/ab66.jpg,0,0,400,l,0,1,1,1,0,79,79,64,,,['l'],0,[0.4843418172604288],2018_Jul_09_0532,60.0369989341,go-nogo,001,21,
logos/2.jpg,properties2.xlsx,frogs/ab79.jpg,0,0,400,l,0,1,1,1,0,80,80,77,,,['l'],0,[0.48420035654999083],2018_Jul_09_0532,60.0369989341,go-nogo,001,21,
logos/2.jpg,properties2.xlsx,frogs/ab55.jpg,0,0,400,l,0,1,1,1,0,81,81,54,,,['l'],0,[0.001019677314616274],2018_Jul_09_0532,60.0369989341,go-nogo,001,21,
logos/2.jpg,properties2.xlsx,frogs/ab34.jpg,0,0,400,l,0,1,1,1,0,82,82,33,,,['l'],0,[0.4843833183476818],2018_Jul_09_0532,60.0369989341,go-nogo,001,21,
logos/2.jpg,properties2.xlsx,frogs/ab12.jpg,0,0,400,l,0,1,1,1,0,83,83,11,,,['l'],0,[0.3175565229248605],2018_Jul_09_0532,60.0369989341,go-nogo,001,21,
logos/2.jpg,properties2.xlsx,frogs/ab50.jpg,0,0,400,l,0,1,1,1,0,84,84,49,,,['l'],0,[0.18437060027645202],2018_Jul_09_0532,60.0369989341,go-nogo,001,21,
logos/2.jpg,properties2.xlsx,frogs/ab5.jpg,0,0,400,l,0,1,1,1,0,85,85,4,,,['l'],0,[0.6841967865620973],2018_Jul_09_0532,60.0369989341,go-nogo,001,21,
logos/2.jpg,properties2.xlsx,frogs/ab69.jpg,0,0,400,l,0,1,1,1,0,86,86,67,,,['l'],0,[0.16764432227500947],2018_Jul_09_0532,60.0369989341,go-nogo,001,21,
logos/2.jpg,properties2.xlsx,frogs/ab26.jpg,0,0,400,l,0,1,1,1,0,87,87,25,,,['l'],0,[0.250967800959188],2018_Jul_09_0532,60.0369989341,go-nogo,001,21,
logos/2.jpg,properties2.xlsx,frogs/ab24.jpg,0,0,400,l,0,1,1,1,0,88,88,23,,,['l'],0,[0.667447303654626],2018_Jul_09_0532,60.0369989341,go-nogo,001,21,
logos/2.jpg,properties2.xlsx,frogs/ab68.jpg,0,0,400,l,0,1,1,1,0,89,89,66,,,['l'],0,[0.0010924157904810272],2018_Jul_09_0532,60.0369989341,go-nogo,001,21,
logos/2.jpg,properties2.xlsx,,,,,,0,1,1,1,,,,,,,,,,2018_Jul_09_0532,60.0369989341,go-nogo,001,21,
logos/3.jpg,properties3.xlsx,frogs/ab31.jpg,0,0,400,l,0,2,2,2,0,0,0,30,space,8.37971132198,['l'],0,[2.6502515724641853],2018_Jul_09_0532,60.0369989341,go-nogo,001,21,
logos/3.jpg,properties3.xlsx,frogs/ab22.jpg,0,0,400,l,0,2,2,2,0,1,1,21,,,['l'],0,[0.13453537744499044],2018_Jul_09_0532,60.0369989341,go-nogo,001,21,
logos/3.jpg,properties3.xlsx,frogs/ab67.jpg,0,0,400,l,0,2,2,2,0,2,2,65,,,['l'],0,[0.6513783493792289],2018_Jul_09_0532,60.0369989341,go-nogo,001,21,
logos/3.jpg,properties3.xlsx,frogs/ab50.jpg,0,0,400,l,0,2,2,2,0,3,3,49,,,['l'],0,[0.4509066649407032],2018_Jul_09_0532,60.0369989341,go-nogo,001,21,
logos/3.jpg,properties3.xlsx,logos/3.jpg,0,0,400,a,0,2,2,2,0,4,4,89,,,['a'],0,[0.5178983491059626],2018_Jul_09_0532,60.0369989341,go-nogo,001,21,
logos/3.jpg,properties3.xlsx,frogs/ab79.jpg,0,0,400,l,0,2,2,2,0,5,5,77,,,['l'],0,[0.1510755699200672],2018_Jul_09_0532,60.0369989341,go-nogo,001,21,
logos/3.jpg,properties3.xlsx,frogs/ab74.jpg,0,0,400,l,0,2,2,2,0,6,6,72,,,['l'],0,[0.017615204567846376],2018_Jul_09_0532,60.0369989341,go-nogo,001,21,
logos/3.jpg,properties3.xlsx,frogs/ab77.jpg,0,0,400,l,0,2,2,2,0,7,7,75,,,['l'],0,[0.13424085358565208],2018_Jul_09_0532,60.0369989341,go-nogo,001,21,
logos/3.jpg,properties3.xlsx,frogs/ab43.jpg,0,0,400,l,0,2,2,2,0,8,8,42,,,['l'],0,[0.15100774017628282],2018_Jul_09_0532,60.0369989341,go-nogo,001,21,
logos/3.jpg,properties3.xlsx,frogs/ab76.jpg,0,0,400,l,0,2,2,2,0,9,9,74,,,['l'],0,[0.2663522103757714],2018_Jul_09_0532,60.0369989341,go-nogo,001,21,
logos/3.jpg,properties3.xlsx,frogs/ab37.jpg,0,0,400,l,0,2,2,2,0,10,10,36,,,['l'],0,[0.05099591460020747],2018_Jul_09_0532,60.0369989341,go-nogo,001,21,
logos/3.jpg,properties3.xlsx,frogs/ab13.jpg,0,0,400,l,0,2,2,2,0,11,11,12,,,['l'],0,[0.0678739170107292],2018_Jul_09_0532,60.0369989341,go-nogo,001,21,
logos/3.jpg,properties3.xlsx,logos/3.jpg,0,0,400,a,0,2,2,2,0,12,12,88,,,['a'],0,[0.0667194727138849],2018_Jul_09_0532,60.0369989341,go-nogo,001,21,
logos/3.jpg,properties3.xlsx,frogs/ab5.jpg,0,0,400,l,0,2,2,2,0,13,13,4,,,['l'],0,[0.28449978914431995],2018_Jul_09_0532,60.0369989341,go-nogo,001,21,
logos/3.jpg,properties3.xlsx,logos/3.jpg,0,0,400,a,0,2,2,2,0,14,14,85,,,['a'],0,[0.5011836735648103],2018_Jul_09_0532,60.0369989341,go-nogo,001,21,
logos/3.jpg,properties3.xlsx,frogs/ab33.jpg,0,0,400,l,0,2,2,2,0,15,15,32,,,['l'],0,[0.06775967744761147],2018_Jul_09_0532,60.0369989341,go-nogo,001,21,
logos/3.jpg,properties3.xlsx,frogs/ab23.jpg,0,0,400,l,0,2,2,2,0,16,16,22,,,['a'],0,[0.5009462694797548],2018_Jul_09_0532,60.0369989341,go-nogo,001,21,
logos/3.jpg,properties3.xlsx,frogs/ab30.jpg,0,0,400,l,0,2,2,2,0,17,17,29,,,['l'],0,[0.5184508044767426],2018_Jul_09_0532,60.0369989341,go-nogo,001,21,
logos/3.jpg,properties3.xlsx,frogs/ab14.jpg,0,0,400,l,0,2,2,2,0,18,18,13,,,['l'],0,[0.05107713178585982],2018_Jul_09_0532,60.0369989341,go-nogo,001,21,
logos/3.jpg,properties3.xlsx,frogs/ab17.jpg,0,0,400,l,0,2,2,2,0,19,19,16,,,['l'],0,[0.13445996148948325],2018_Jul_09_0532,60.0369989341,go-nogo,001,21,
logos/3.jpg,properties3.xlsx,frogs/ab38.jpg,0,0,400,l,0,2,2,2,0,20,20,37,,,['l'],0,[0.10105024532822426],2018_Jul_09_0532,60.0369989341,go-nogo,001,21,
logos/3.jpg,properties3.xlsx,frogs/ab10.jpg,0,0,400,l,0,2,2,2,0,21,21,9,,,['l'],0,[0.08461804494436365],2018_Jul_09_0532,60.0369989341,go-nogo,001,21,
logos/3.jpg,properties3.xlsx,frogs/ab60.jpg,0,0,400,l,0,2,2,2,0,22,22,58,,,['l'],0,[0.034561036722152494],2018_Jul_09_0532,60.0369989341,go-nogo,001,21,
logos/3.jpg,properties3.xlsx,logos/3.jpg,0,0,400,a,0,2,2,2,0,23,23,81,,,['a'],0,[0.08448372420389205],2018_Jul_09_0532,60.0369989341,go-nogo,001,21,
logos/3.jpg,properties3.xlsx,frogs/ab68.jpg,0,0,400,l,0,2,2,2,0,24,24,66,,,['l'],0,[1.5338798387238057],2018_Jul_09_0532,60.0369989341,go-nogo,001,21,
logos/3.jpg,properties3.xlsx,frogs/ab9.jpg,0,0,400,l,0,2,2,2,0,25,25,8,,,['l'],0,[0.0010196773218922317],2018_Jul_09_0532,60.0369989341,go-nogo,001,21,
logos/3.jpg,properties3.xlsx,frogs/ab21.jpg,0,0,400,l,0,2,2,2,0,26,26,20,,,['l'],0,[0.2347908545852988],2018_Jul_09_0532,60.0369989341,go-nogo,001,21,
logos/3.jpg,properties3.xlsx,frogs/ab19.jpg,0,0,400,l,0,2,2,2,0,27,27,18,,,['l'],0,[0.2510512493827264],2018_Jul_09_0532,60.0369989341,go-nogo,001,21,
logos/3.jpg,properties3.xlsx,frogs/ab53.jpg,0,0,400,l,0,2,2,2,0,28,28,52,,,['l'],0,[0.11778678703558398],2018_Jul_09_0532,60.0369989341,go-nogo,001,21,
logos/3.jpg,properties3.xlsx,frogs/ab71.jpg,0,0,400,l,0,2,2,2,0,29,29,69,,,['l'],0,[0.2513149821170373],2018_Jul_09_0532,60.0369989341,go-nogo,001,21,
logos/3.jpg,properties3.xlsx,frogs/ab51.jpg,0,0,400,l,0,2,2,2,0,30,30,50,,,['l'],0,[0.10101231422595447],2018_Jul_09_0532,60.0369989341,go-nogo,001,21,
logos/3.jpg,properties3.xlsx,frogs/ab75.jpg,0,0,400,l,0,2,2,2,0,31,31,73,,,['l'],0,[0.1677085820265347],2018_Jul_09_0532,60.0369989341,go-nogo,001,21,
logos/3.jpg,properties3.xlsx,frogs/ab39.jpg,0,0,400,l,0,2,2,2,0,32,32,38,,,['l'],0,[0.08444891684484901],2018_Jul_09_0532,60.0369989341,go-nogo,001,21,
logos/3.jpg,properties3.xlsx,frogs/ab34.jpg,0,0,400,l,0,2,2,2,0,33,33,33,,,['l'],0,[0.20135927225783234],2018_Jul_09_0532,60.0369989341,go-nogo,001,21,
logos/3.jpg,properties3.xlsx,logos/3.jpg,0,0,400,a,0,2,2,2,0,34,34,87,,,['a'],0,[1.9338793924762285],2018_Jul_09_0532,60.0369989341,go-nogo,001,21,
logos/3.jpg,properties3.xlsx,frogs/ab29.jpg,0,0,400,l,0,2,2,2,0,35,35,28,,,['l'],0,[0.41786554985446855],2018_Jul_09_0532,60.0369989341,go-nogo,001,21,
logos/3.jpg,properties3.xlsx,frogs/ab8.jpg,0,0,400,l,0,2,2,2,0,36,36,7,,,['l'],0,[0.10100919048272772],2018_Jul_09_0532,60.0369989341,go-nogo,001,21,
logos/3.jpg,properties3.xlsx,frogs/ab40.jpg,0,0,400,l,0,2,2,2,0,37,37,39,,,['l'],0,[0.6011133894571685],2018_Jul_09_0532,60.0369989341,go-nogo,001,21,
logos/3.jpg,properties3.xlsx,frogs/ab28.jpg,0,0,400,l,0,2,2,2,0,38,38,27,,,['l'],0,[0.6008398392659728],2018_Jul_09_0532,60.0369989341,go-nogo,001,21,
logos/3.jpg,properties3.xlsx,frogs/ab41.jpg,0,0,400,l,0,2,2,2,0,39,39,40,,,['l'],0,[0.4509419185560546],2018_Jul_09_0532,60.0369989341,go-nogo,001,21,
logos/3.jpg,properties3.xlsx,frogs/ab45.jpg,0,0,400,l,0,2,2,2,0,40,40,44,,,['l'],0,[0.0009563100611558184],2018_Jul_09_0532,60.0369989341,go-nogo,001,21,
logos/3.jpg,properties3.xlsx,frogs/ab81.jpg,0,0,400,l,0,2,2,2,0,41,41,79,,,['l'],0,[0.5841153462533839],2018_Jul_09_0532,60.0369989341,go-nogo,001,21,
logos/3.jpg,properties3.xlsx,frogs/ab42.jpg,0,0,400,l,0,2,2,2,0,42,42,41,,,['l'],0,[0.31775688839843497],2018_Jul_09_0532,60.0369989341,go-nogo,001,21,
logos/3.jpg,properties3.xlsx,frogs/ab27.jpg,0,0,400,l,0,2,2,2,0,43,43,26,,,['l'],0,[0.26755127950309543],2018_Jul_09_0532,60.0369989341,go-nogo,001,21,
logos/3.jpg,properties3.xlsx,frogs/ab12.jpg,0,0,400,l,0,2,2,2,0,44,44,11,,,['l'],0,[0.06692430067778332],2018_Jul_09_0532,60.0369989341,go-nogo,001,21,
logos/3.jpg,properties3.xlsx,frogs/ab35.jpg,0,0,400,l,0,2,2,2,0,45,45,34,,,['l'],0,[1.4339171004539821],2018_Jul_09_0532,60.0369989341,go-nogo,001,21,
logos/3.jpg,properties3.xlsx,frogs/ab78.jpg,0,0,400,l,0,2,2,2,0,46,46,76,,,['l'],0,[0.15098408902122173],2018_Jul_09_0532,60.0369989341,go-nogo,001,21,
logos/3.jpg,properties3.xlsx,frogs/ab20.jpg,0,0,400,l,0,2,2,2,0,47,47,19,,,['l'],0,[0.43426026538509177],2018_Jul_09_0532,60.0369989341,go-nogo,001,21,
logos/3.jpg,properties3.xlsx,frogs/ab47.jpg,0,0,400,l,0,2,2,2,0,48,48,46,,,['l'],0,[0.07197449244995369],2018_Jul_09_0532,60.0369989341,go-nogo,001,21,
logos/3.jpg,properties3.xlsx,frogs/ab62.jpg,0,0,400,l,0,2,2,2,0,49,49,60,,,['l'],0,[0.18451652345538605],2018_Jul_09_0532,60.0369989341,go-nogo,001,21,
logos/3.jpg,properties3.xlsx,frogs/ab1.jpg,0,0,400,l,0,2,2,2,0,50,50,0,,,['l'],0,[0.08447479924507206],2018_Jul_09_0532,60.0369989341,go-nogo,001,21,
logos/3.jpg,properties3.xlsx,frogs/ab3.jpg,0,0,400,l,0,2,2,2,0,51,51,2,,,['l'],0,[0.08460822748020291],2018_Jul_09_0532,60.0369989341,go-nogo,001,21,
logos/3.jpg,properties3.xlsx,frogs/ab70.jpg,0,0,400,l,0,2,2,2,0,52,52,68,,,['l'],0,[0.06713135987956775],2018_Jul_09_0532,60.0369989341,go-nogo,001,21,
logos/3.jpg,properties3.xlsx,frogs/ab15.jpg,0,0,400,l,0,2,2,2,0,53,53,14,,,['l'],0,[0.05101867325720377],2018_Jul_09_0532,60.0369989341,go-nogo,001,21,
logos/3.jpg,properties3.xlsx,frogs/ab36.jpg,0,0,400,l,0,2,2,2,0,54,54,35,,,['l'],0,[0.10109531640773639],2018_Jul_09_0532,60.0369989341,go-nogo,001,21,
logos/3.jpg,properties3.xlsx,frogs/ab4.jpg,0,0,400,l,0,2,2,2,0,55,55,3,,,['l'],0,[0.0677842211080133],2018_Jul_09_0532,60.0369989341,go-nogo,001,21,
logos/3.jpg,properties3.xlsx,frogs/ab48.jpg,0,0,400,l,0,2,2,2,0,56,56,47,,,['l'],0,[0.06775119873782387],2018_Jul_09_0532,60.0369989341,go-nogo,001,21,
logos/3.jpg,properties3.xlsx,frogs/ab69.jpg,0,0,400,l,0,2,2,2,0,57,57,67,,,['l'],0,[0.05062775976693956],2018_Jul_09_0532,60.0369989341,go-nogo,001,21,
logos/3.jpg,properties3.xlsx,frogs/ab11.jpg,0,0,400,l,0,2,2,2,0,58,58,10,,,['l'],0,[0.017762020259397104],2018_Jul_09_0532,60.0369989341,go-nogo,001,21,
logos/3.jpg,properties3.xlsx,frogs/ab66.jpg,0,0,400,l,0,2,2,2,0,59,59,64,,,['l'],0,[0.06842681862326572],2018_Jul_09_0532,60.0369989341,go-nogo,001,21,
logos/3.jpg,properties3.xlsx,frogs/ab32.jpg,0,0,400,l,0,2,2,2,0,60,60,31,,,['l'],0,[0.10097884559945669],2018_Jul_09_0532,60.0369989341,go-nogo,001,21,
logos/3.jpg,properties3.xlsx,frogs/ab2.jpg,0,0,400,l,0,2,2,2,0,61,61,1,,,['l'],0,[0.06454758234031033],2018_Jul_09_0532,60.0369989341,go-nogo,001,21,
logos/3.jpg,properties3.xlsx,frogs/ab54.jpg,0,0,400,l,0,2,2,2,0,62,62,53,,,['l'],0,[0.16761442363349488],2018_Jul_09_0532,60.0369989341,go-nogo,001,21,
logos/3.jpg,properties3.xlsx,frogs/ab52.jpg,0,0,400,l,0,2,2,2,0,63,63,51,,,['l'],0,[0.9841122225188883],2018_Jul_09_0532,60.0369989341,go-nogo,001,21,
logos/3.jpg,properties3.xlsx,frogs/ab61.jpg,0,0,400,l,0,2,2,2,0,64,64,59,,,['l'],0,[0.3014536537666572],2018_Jul_09_0532,60.0369989341,go-nogo,001,21,
logos/3.jpg,properties3.xlsx,frogs/ab63.jpg,0,0,400,l,0,2,2,2,0,65,65,61,,,['l'],0,[0.051148531507351436],2018_Jul_09_0532,60.0369989341,go-nogo,001,21,
logos/3.jpg,properties3.xlsx,frogs/ab24.jpg,0,0,400,l,0,2,2,2,0,66,66,23,,,['l'],0,[0.034334342599322554],2018_Jul_09_0532,60.0369989341,go-nogo,001,21,
logos/3.jpg,properties3.xlsx,frogs/ab7.jpg,0,0,400,l,0,2,2,2,0,67,67,6,,,['l'],0,[0.05085891638009343],2018_Jul_09_0532,60.0369989341,go-nogo,001,21,
logos/3.jpg,properties3.xlsx,logos/3.jpg,0,0,400,a,0,2,2,2,0,68,68,82,,,['a'],0,[0.10097125938045792],2018_Jul_09_0532,60.0369989341,go-nogo,001,21,
logos/3.jpg,properties3.xlsx,frogs/ab80.jpg,0,0,400,l,0,2,2,2,0,69,69,78,,,['l'],0,[0.25096423097420484],2018_Jul_09_0532,60.0369989341,go-nogo,001,21,
logos/3.jpg,properties3.xlsx,frogs/ab18.jpg,0,0,400,l,0,2,2,2,0,70,70,17,,,['l'],0,[0.1176555900456151],2018_Jul_09_0532,60.0369989341,go-nogo,001,21,
logos/3.jpg,properties3.xlsx,logos/3.jpg,0,0,400,a,0,2,2,2,0,71,71,83,,,['a'],0,[2.1502642905397806],2018_Jul_09_0532,60.0369989341,go-nogo,001,21,
logos/3.jpg,properties3.xlsx,frogs/ab56.jpg,0,0,400,l,0,2,2,2,0,72,72,55,,,['a'],0,[0.3837409439511248],2018_Jul_09_0532,60.0369989341,go-nogo,001,21,
logos/3.jpg,properties3.xlsx,frogs/ab57.jpg,0,0,400,l,0,2,2,2,0,73,73,56,,,['l'],0,[0.4207117213809397],2018_Jul_09_0532,60.0369989341,go-nogo,001,21,
logos/3.jpg,properties3.xlsx,logos/3.jpg,0,0,400,a,0,2,2,2,0,74,74,80,,,['a'],0,[0.6010138760902919],2018_Jul_09_0532,60.0369989341,go-nogo,001,21,
logos/3.jpg,properties3.xlsx,frogs/ab16.jpg,0,0,400,l,0,2,2,2,0,75,75,15,,,['l'],0,[0.2848840089136502],2018_Jul_09_0532,60.0369989341,go-nogo,001,21,
logos/3.jpg,properties3.xlsx,frogs/ab55.jpg,0,0,400,l,0,2,2,2,0,76,76,54,,,['l'],0,[0.2676659653079696],2018_Jul_09_0532,60.0369989341,go-nogo,001,21,
logos/3.jpg,properties3.xlsx,logos/3.jpg,0,0,400,a,0,2,2,2,0,77,77,84,,,['a'],0,[0.10100160426372895],2018_Jul_09_0532,60.0369989341,go-nogo,001,21,
logos/3.jpg,properties3.xlsx,frogs/ab73.jpg,0,0,400,l,0,2,2,2,0,78,78,71,,,['l'],0,[1.1508287946126075],2018_Jul_09_0532,60.0369989341,go-nogo,001,21,
logos/3.jpg,properties3.xlsx,frogs/ab64.jpg,0,0,400,l,0,2,2,2,0,79,79,62,,,['l'],0,[0.5342426385832368],2018_Jul_09_0532,60.0369989341,go-nogo,001,21,
logos/3.jpg,properties3.xlsx,frogs/ab65.jpg,0,0,400,l,0,2,2,2,0,80,80,63,,,['l'],0,[0.5175618779030629],2018_Jul_09_0532,60.0369989341,go-nogo,001,21,
logos/3.jpg,properties3.xlsx,frogs/ab6.jpg,0,0,400,l,0,2,2,2,0,81,81,5,,,['l'],0,[0.5175641091409489],2018_Jul_09_0532,60.0369989341,go-nogo,001,21,
logos/3.jpg,properties3.xlsx,frogs/ab26.jpg,0,0,400,l,0,2,2,2,0,82,82,25,,,['l'],0,[0.26743391621130286],2018_Jul_09_0532,60.0369989341,go-nogo,001,21,
logos/3.jpg,properties3.xlsx,frogs/ab46.jpg,0,0,400,l,0,2,2,2,0,83,83,45,,,['l'],0,[0.0009464926042710431],2018_Jul_09_0532,60.0369989341,go-nogo,001,21,
logos/3.jpg,properties3.xlsx,frogs/ab44.jpg,0,0,400,l,0,2,2,2,0,84,84,43,,,['l'],0,[0.1343296569903032],2018_Jul_09_0532,60.0369989341,go-nogo,001,21,
logos/3.jpg,properties3.xlsx,frogs/ab58.jpg,0,0,400,l,0,2,2,2,0,85,85,57,,,['l'],0,[0.11283833986817626],2018_Jul_09_0532,60.0369989341,go-nogo,001,21,
logos/3.jpg,properties3.xlsx,logos/3.jpg,0,0,400,a,0,2,2,2,0,86,86,86,,,['a'],0,[2.5334621503352537],2018_Jul_09_0532,60.0369989341,go-nogo,001,21,
logos/3.jpg,properties3.xlsx,frogs/ab72.jpg,0,0,400,l,0,2,2,2,0,87,87,70,,,['l'],0,[0.4673272628642735],2018_Jul_09_0532,60.0369989341,go-nogo,001,21,
logos/3.jpg,properties3.xlsx,frogs/ab25.jpg,0,0,400,l,0,2,2,2,0,88,88,24,,,['l'],0,[0.8009411376187927],2018_Jul_09_0532,60.0369989341,go-nogo,001,21,
logos/3.jpg,properties3.xlsx,frogs/ab49.jpg,0,0,400,l,0,2,2,2,0,89,89,48,,,['l'],0,[0.5009850930728135],2018_Jul_09_0532,60.0369989341,go-nogo,001,21,
logos/3.jpg,properties3.xlsx,,,,,,0,2,2,2,,,,,,,,,,2018_Jul_09_0532,60.0369989341,go-nogo,001,21,
logos/4.jpg,properties4.xlsx,frogs/ab76.jpg,0,0,400,l,0,3,3,3,0,0,0,74,space,6.8345146269,['l'],0,[1.7672636724892072],2018_Jul_09_0532,60.0369989341,go-nogo,001,21,
logos/4.jpg,properties4.xlsx,frogs/ab73.jpg,0,0,400,l,0,3,3,3,0,1,1,71,,,['l'],0,[0.5508345958442078],2018_Jul_09_0532,60.0369989341,go-nogo,001,21,
logos/4.jpg,properties4.xlsx,frogs/ab47.jpg,0,0,400,l,0,3,3,3,0,2,2,46,,,['l'],0,[0.18152130500675412],2018_Jul_09_0532,60.0369989341,go-nogo,001,21,
logos/4.jpg,properties4.xlsx,frogs/ab15.jpg,0,0,400,l,0,3,3,3,0,3,3,14,,,['l'],0,[0.016985548245429527],2018_Jul_09_0532,60.0369989341,go-nogo,001,21,
logos/4.jpg,properties4.xlsx,frogs/ab37.jpg,0,0,400,l,0,3,3,3,0,4,4,36,,,['l'],0,[0.08445070184097858],2018_Jul_09_0532,60.0369989341,go-nogo,001,21,
logos/4.jpg,properties4.xlsx,frogs/ab18.jpg,0,0,400,l,0,3,3,3,0,5,5,17,,,['l'],0,[0.11757749658863759],2018_Jul_09_0532,60.0369989341,go-nogo,001,21,
logos/4.jpg,properties4.xlsx,frogs/ab5.jpg,0,0,400,l,0,3,3,3,0,6,6,4,,,['l'],0,[0.16765235474304063],2018_Jul_09_0532,60.0369989341,go-nogo,001,21,
logos/4.jpg,properties4.xlsx,frogs/ab68.jpg,0,0,400,l,0,3,3,3,0,7,7,66,,,['l'],0,[0.400888926575135],2018_Jul_09_0532,60.0369989341,go-nogo,001,21,
logos/4.jpg,properties4.xlsx,frogs/ab1.jpg,0,0,400,l,0,3,3,3,0,8,8,0,,,['l'],0,[0.31766451500880066],2018_Jul_09_0532,60.0369989341,go-nogo,001,21,
logos/4.jpg,properties4.xlsx,frogs/ab67.jpg,0,0,400,l,0,3,3,3,0,9,9,65,,,['l'],0,[0.1176582675325335],2018_Jul_09_0532,60.0369989341,go-nogo,001,21,
logos/4.jpg,properties4.xlsx,frogs/ab29.jpg,0,0,400,l,0,3,3,3,0,10,10,28,,,['l'],0,[0.050903094961540774],2018_Jul_09_0532,60.0369989341,go-nogo,001,21,
logos/4.jpg,properties4.xlsx,frogs/ab11.jpg,0,0,400,l,0,3,3,3,0,11,11,10,,,['l'],0,[0.5175752653522068],2018_Jul_09_0532,60.0369989341,go-nogo,001,21,
logos/4.jpg,properties4.xlsx,frogs/ab75.jpg,0,0,400,l,0,3,3,3,0,12,12,73,,,['l'],0,[0.1456148297220352],2018_Jul_09_0532,60.0369989341,go-nogo,001,21,
logos/4.jpg,properties4.xlsx,frogs/ab42.jpg,0,0,400,l,0,3,3,3,0,13,13,41,,,['l'],0,[0.1009752756144735],2018_Jul_09_0532,60.0369989341,go-nogo,001,21,
logos/4.jpg,properties4.xlsx,frogs/ab23.jpg,0,0,400,l,0,3,3,3,0,14,14,22,,,['l'],0,[0.01762502203200711],2018_Jul_09_0532,60.0369989341,go-nogo,001,21,
logos/4.jpg,properties4.xlsx,frogs/ab28.jpg,0,0,400,l,0,3,3,3,0,15,15,27,,,['l'],0,[0.001026371042826213],2018_Jul_09_0532,60.0369989341,go-nogo,001,21,
logos/4.jpg,properties4.xlsx,frogs/ab7.jpg,0,0,400,l,0,3,3,3,0,16,16,6,,,['l'],0,[0.06769229396013543],2018_Jul_09_0532,60.0369989341,go-nogo,001,21,
logos/4.jpg,properties4.xlsx,frogs/ab79.jpg,0,0,400,l,0,3,3,3,0,17,17,77,,,['l'],0,[0.15086137074104045],2018_Jul_09_0532,60.0369989341,go-nogo,001,21,
logos/4.jpg,properties4.xlsx,frogs/ab69.jpg,0,0,400,l,0,3,3,3,0,18,18,67,,,['l'],0,[0.06779493107023882],2018_Jul_09_0532,60.0369989341,go-nogo,001,21,
logos/4.jpg,properties4.xlsx,frogs/ab31.jpg,0,0,400,l,0,3,3,3,0,19,19,30,,,['l'],0,[0.03436736496951198],2018_Jul_09_0532,60.0369989341,go-nogo,001,21,
logos/4.jpg,properties4.xlsx,frogs/ab24.jpg,0,0,400,l,0,3,3,3,0,20,20,23,,,['l'],0,[0.10104622909420868],2018_Jul_09_0532,60.0369989341,go-nogo,001,21,
logos/4.jpg,properties4.xlsx,frogs/ab51.jpg,0,0,400,l,0,3,3,3,0,21,21,50,,,['l'],0,[0.03450079320464283],2018_Jul_09_0532,60.0369989341,go-nogo,001,21,
logos/4.jpg,properties4.xlsx,frogs/ab22.jpg,0,0,400,l,0,3,3,3,0,22,22,21,,,['l'],0,[0.06829651413136162],2018_Jul_09_0532,60.0369989341,go-nogo,001,21,
logos/4.jpg,properties4.xlsx,logos/4.jpg,0,0,400,a,0,3,3,3,0,23,23,87,,,['a'],0,[0.16789377506211167],2018_Jul_09_0532,60.0369989341,go-nogo,001,21,
logos/4.jpg,properties4.xlsx,frogs/ab13.jpg,0,0,400,l,0,3,3,3,0,24,24,12,,,['l'],0,[1.0838420191867044],2018_Jul_09_0532,60.0369989341,go-nogo,001,21,
logos/4.jpg,properties4.xlsx,frogs/ab48.jpg,0,0,400,l,0,3,3,3,0,25,25,47,,,['l'],0,[0.4508607013631263],2018_Jul_09_0532,60.0369989341,go-nogo,001,21,
logos/4.jpg,properties4.xlsx,frogs/ab60.jpg,0,0,400,l,0,3,3,3,0,26,26,58,,,['l'],0,[0.0843306610477157],2018_Jul_09_0532,60.0369989341,go-nogo,001,21,
logos/4.jpg,properties4.xlsx,logos/4.jpg,0,0,400,a,0,3,3,3,0,27,27,82,,,['a'],0,[0.13426807472569635],2018_Jul_09_0532,60.0369989341,go-nogo,001,21,
logos/4.jpg,properties4.xlsx,frogs/ab54.jpg,0,0,400,l,0,3,3,3,0,28,28,53,,,['l'],0,[0.13416052889078856],2018_Jul_09_0532,60.0369989341,go-nogo,001,21,
logos/4.jpg,properties4.xlsx,frogs/ab34.jpg,0,0,400,l,0,3,3,3,0,29,29,33,,,['l'],0,[0.000977283729298506],2018_Jul_09_0532,60.0369989341,go-nogo,001,21,
logos/4.jpg,properties4.xlsx,logos/4.jpg,0,0,400,a,0,3,3,3,0,30,30,85,,,['l'],0,[1.2340509749410558],2018_Jul_09_0532,60.0369989341,go-nogo,001,21,
logos/4.jpg,properties4.xlsx,frogs/ab10.jpg,0,0,400,l,0,3,3,3,0,31,31,9,,,['l'],0,[0.1009351132743177],2018_Jul_09_0532,60.0369989341,go-nogo,001,21,
logos/4.jpg,properties4.xlsx,frogs/ab61.jpg,0,0,400,l,0,3,3,3,0,32,32,59,,,['l'],0,[0.06767355152987875],2018_Jul_09_0532,60.0369989341,go-nogo,001,21,
logos/4.jpg,properties4.xlsx,frogs/ab71.jpg,0,0,400,l,0,3,3,3,0,33,33,69,,,['l'],0,[0.05095664474356454],2018_Jul_09_0532,60.0369989341,go-nogo,001,21,
logos/4.jpg,properties4.xlsx,logos/4.jpg,0,0,400,a,0,3,3,3,0,34,34,86,,,['l'],0,[1.5340007720151334],2018_Jul_09_0532,60.0369989341,go-nogo,001,21,
logos/4.jpg,properties4.xlsx,frogs/ab33.jpg,0,0,400,l,0,3,3,3,0,35,35,32,,,['l'],0,[0.03434148256928893],2018_Jul_09_0532,60.0369989341,go-nogo,001,21,
logos/4.jpg,properties4.xlsx,frogs/ab40.jpg,0,0,400,l,0,3,3,3,0,36,36,39,,,['l'],0,[0.13422344990249258],2018_Jul_09_0532,60.0369989341,go-nogo,001,21,
logos/4.jpg,properties4.xlsx,frogs/ab16.jpg,0,0,400,l,0,3,3,3,0,37,37,15,,,['l'],0,[0.11764488007611362],2018_Jul_09_0532,60.0369989341,go-nogo,001,21,
logos/4.jpg,properties4.xlsx,frogs/ab17.jpg,0,0,400,l,0,3,3,3,0,38,38,16,,,['l'],0,[0.21832920181623194],2018_Jul_09_0532,60.0369989341,go-nogo,001,21,
logos/4.jpg,properties4.xlsx,frogs/ab74.jpg,0,0,400,l,0,3,3,3,0,39,39,72,,,['l'],0,[0.18428938308352372],2018_Jul_09_0532,60.0369989341,go-nogo,001,21,
logos/4.jpg,properties4.xlsx,frogs/ab58.jpg,0,0,400,l,0,3,3,3,0,40,40,57,,,['l'],0,[0.0509994845779147],2018_Jul_09_0532,60.0369989341,go-nogo,001,21,
logos/4.jpg,properties4.xlsx,frogs/ab4.jpg,0,0,400,l,0,3,3,3,0,41,41,3,,,['l'],0,[0.1353734317162889],2018_Jul_09_0532,60.0369989341,go-nogo,001,21,
logos/4.jpg,properties4.xlsx,frogs/ab63.jpg,0,0,400,l,0,3,3,3,0,42,42,61,,,['l'],0,[0.10086549853440374],2018_Jul_09_0532,60.0369989341,go-nogo,001,21,
logos/4.jpg,properties4.xlsx,frogs/ab78.jpg,0,0,400,l,0,3,3,3,0,43,43,76,,,['l'],0,[0.18428625934757292],2018_Jul_09_0532,60.0369989341,go-nogo,001,21,
logos/4.jpg,properties4.xlsx,logos/4.jpg,0,0,400,a,0,3,3,3,0,44,44,80,,,['a'],0,[0.5009717056309455],2018_Jul_09_0532,60.0369989341,go-nogo,001,21,
logos/4.jpg,properties4.xlsx,frogs/ab26.jpg,0,0,400,l,0,3,3,3,0,45,45,25,,,['l'],0,[0.08462206117837923],2018_Jul_09_0532,60.0369989341,go-nogo,001,21,
logos/4.jpg,properties4.xlsx,frogs/ab38.jpg,0,0,400,l,0,3,3,3,0,46,46,37,,,['l'],0,[0.18424922073609196],2018_Jul_09_0532,60.0369989341,go-nogo,001,21,
logos/4.jpg,properties4.xlsx,frogs/ab56.jpg,0,0,400,l,0,3,3,3,0,47,47,55,,,['l'],0,[0.28959014327119803],2018_Jul_09_0532,60.0369989341,go-nogo,001,21,
logos/4.jpg,properties4.xlsx,frogs/ab21.jpg,0,0,400,l,0,3,3,3,0,48,48,20,,,['l'],0,[0.05101510327949654],2018_Jul_09_0532,60.0369989341,go-nogo,001,21,
logos/4.jpg,properties4.xlsx,frogs/ab64.jpg,0,0,400,l,0,3,3,3,0,49,49,62,,,['l'],0,[0.2175777197116986],2018_Jul_09_0532,60.0369989341,go-nogo,001,21,
logos/4.jpg,properties4.xlsx,frogs/ab49.jpg,0,0,400,l,0,3,3,3,0,50,50,48,,,['l'],0,[0.15100104644807288],2018_Jul_09_0532,60.0369989341,go-nogo,001,21,
logos/4.jpg,properties4.xlsx,frogs/ab12.jpg,0,0,400,l,0,3,3,3,0,51,51,11,,,['l'],0,[0.1676590484639746],2018_Jul_09_0532,60.0369989341,go-nogo,001,21,
logos/4.jpg,properties4.xlsx,frogs/ab65.jpg,0,0,400,l,0,3,3,3,0,52,52,63,,,['l'],0,[0.08439849079150008],2018_Jul_09_0532,60.0369989341,go-nogo,001,21,
logos/4.jpg,properties4.xlsx,frogs/ab20.jpg,0,0,400,l,0,3,3,3,0,53,53,19,,,['l'],0,[0.13426673598587513],2018_Jul_09_0532,60.0369989341,go-nogo,001,21,
logos/4.jpg,properties4.xlsx,frogs/ab27.jpg,0,0,400,l,0,3,3,3,0,54,54,26,,,['l'],0,[0.03422456552652875],2018_Jul_09_0532,60.0369989341,go-nogo,001,21,
logos/4.jpg,properties4.xlsx,frogs/ab43.jpg,0,0,400,l,0,3,3,3,0,55,55,42,,,['l'],0,[0.16694951369572664],2018_Jul_09_0532,60.0369989341,go-nogo,001,21,
logos/4.jpg,properties4.xlsx,frogs/ab57.jpg,0,0,400,l,0,3,3,3,0,56,56,56,,,['l'],0,[0.20199963853519876],2018_Jul_09_0532,60.0369989341,go-nogo,001,21,
logos/4.jpg,properties4.xlsx,frogs/ab55.jpg,0,0,400,l,0,3,3,3,0,57,57,54,,,['l'],0,[0.21792088464280823],2018_Jul_09_0532,60.0369989341,go-nogo,001,21,
logos/4.jpg,properties4.xlsx,frogs/ab52.jpg,0,0,400,l,0,3,3,3,0,58,58,51,,,['l'],0,[1.3995425955145038],2018_Jul_09_0532,60.0369989341,go-nogo,001,21,
logos/4.jpg,properties4.xlsx,frogs/ab8.jpg,0,0,400,l,0,3,3,3,0,59,59,7,,,['l'],0,[1.8005412991624326],2018_Jul_09_0532,60.0369989341,go-nogo,001,21,
logos/4.jpg,properties4.xlsx,frogs/ab32.jpg,0,0,400,l,0,3,3,3,0,60,60,31,,,['l'],0,[0.06775164498685626],2018_Jul_09_0532,60.0369989341,go-nogo,001,21,
logos/4.jpg,properties4.xlsx,frogs/ab50.jpg,0,0,400,l,0,3,3,3,0,61,61,49,,,['l'],0,[0.5176667462510522],2018_Jul_09_0532,60.0369989341,go-nogo,001,21,
logos/4.jpg,properties4.xlsx,frogs/ab81.jpg,0,0,400,l,0,3,3,3,0,62,62,79,,,['l'],0,[0.3508426283078734],2018_Jul_09_0532,60.0369989341,go-nogo,001,21,
logos/4.jpg,properties4.xlsx,frogs/ab19.jpg,0,0,400,l,0,3,3,3,0,63,63,18,,,['l'],0,[0.15110993103007786],2018_Jul_09_0532,60.0369989341,go-nogo,001,21,
logos/4.jpg,properties4.xlsx,frogs/ab6.jpg,0,0,400,l,0,3,3,3,0,64,64,5,,,['l'],0,[0.20102592479088344],2018_Jul_09_0532,60.0369989341,go-nogo,001,21,
logos/4.jpg,properties4.xlsx,frogs/ab46.jpg,0,0,400,l,0,3,3,3,0,65,65,45,,,['l'],0,[0.1842523444793187],2018_Jul_09_0532,60.0369989341,go-nogo,001,21,
logos/4.jpg,properties4.xlsx,frogs/ab62.jpg,0,0,400,l,0,3,3,3,0,66,66,60,,,['l'],0,[0.2677895760862157],2018_Jul_09_0532,60.0369989341,go-nogo,001,21,
logos/4.jpg,properties4.xlsx,frogs/ab72.jpg,0,0,400,l,0,3,3,3,0,67,67,70,,,['l'],0,[0.3176078414762742],2018_Jul_09_0532,60.0369989341,go-nogo,001,21,
logos/4.jpg,properties4.xlsx,frogs/ab41.jpg,0,0,400,l,0,3,3,3,0,68,68,40,,,['l'],0,[0.1342560260236496],2018_Jul_09_0532,60.0369989341,go-nogo,001,21,
logos/4.jpg,properties4.xlsx,frogs/ab39.jpg,0,0,400,l,0,3,3,3,0,69,69,38,,,['l'],0,[0.26768783148145303],2018_Jul_09_0532,60.0369989341,go-nogo,001,21,
logos/4.jpg,properties4.xlsx,logos/4.jpg,0,0,400,a,0,3,3,3,0,70,70,89,,,['a'],0,[0.18425412946817232],2018_Jul_09_0532,60.0369989341,go-nogo,001,21,
logos/4.jpg,properties4.xlsx,frogs/ab70.jpg,0,0,400,l,0,3,3,3,0,71,71,68,,,['l'],0,[0.10103462663391838],2018_Jul_09_0532,60.0369989341,go-nogo,001,21,
logos/4.jpg,properties4.xlsx,frogs/ab53.jpg,0,0,400,l,0,3,3,3,0,72,72,52,,,['l'],0,[0.06775030623975908],2018_Jul_09_0532,60.0369989341,go-nogo,001,21,
logos/4.jpg,properties4.xlsx,frogs/ab44.jpg,0,0,400,l,0,3,3,3,0,73,73,43,,,['l'],0,[0.13443898782134056],2018_Jul_09_0532,60.0369989341,go-nogo,001,21,
logos/4.jpg,properties4.xlsx,logos/4.jpg,0,0,400,a,0,3,3,3,0,74,74,88,,,['a'],0,[0.5674618067205301],2018_Jul_09_0532,60.0369989341,go-nogo,001,21,
logos/4.jpg,properties4.xlsx,frogs/ab36.jpg,0,0,400,l,0,3,3,3,0,75,75,35,,,['l'],0,[0.9673007110905019],2018_Jul_09_0532,60.0369989341,go-nogo,001,21,
logos/4.jpg,properties4.xlsx,frogs/ab77.jpg,0,0,400,l,0,3,3,3,0,76,76,75,,,['l'],0,[0.15099926145921927],2018_Jul_09_0532,60.0369989341,go-nogo,001,21,
logos/4.jpg,properties4.xlsx,frogs/ab3.jpg,0,0,400,l,0,3,3,3,0,77,77,2,,,['l'],0,[0.06766685780894477],2018_Jul_09_0532,60.0369989341,go-nogo,001,21,
logos/4.jpg,properties4.xlsx,logos/4.jpg,0,0,400,a,0,3,3,3,0,78,78,84,,,['l'],0,[1.7005285810882924],2018_Jul_09_0532,60.0369989341,go-nogo,001,21,
logos/4.jpg,properties4.xlsx,frogs/ab2.jpg,0,0,400,l,0,3,3,3,0,79,79,1,,,['l'],0,[0.045122394752979744],2018_Jul_09_0532,60.0369989341,go-nogo,001,21,
logos/4.jpg,properties4.xlsx,frogs/ab80.jpg,0,0,400,l,0,3,3,3,0,80,80,78,,,['l'],0,[0.06753298332478153],2018_Jul_09_0532,60.0369989341,go-nogo,001,21,
logos/4.jpg,properties4.xlsx,logos/4.jpg,0,0,400,a,0,3,3,3,0,81,81,83,,,['l'],0,[1.5179666250915034],2018_Jul_09_0532,60.0369989341,go-nogo,001,21,
logos/4.jpg,properties4.xlsx,frogs/ab35.jpg,0,0,400,l,0,3,3,3,0,82,82,34,,,['l'],0,[0.08418072162749013],2018_Jul_09_0532,60.0369989341,go-nogo,001,21,
logos/4.jpg,properties4.xlsx,frogs/ab9.jpg,0,0,400,l,0,3,3,3,0,83,83,8,,,['l'],0,[0.0010549309372436255],2018_Jul_09_0532,60.0369989341,go-nogo,001,21,
logos/4.jpg,properties4.xlsx,frogs/ab45.jpg,0,0,400,l,0,3,3,3,0,84,84,44,,,['l'],0,[0.11769485988770612],2018_Jul_09_0532,60.0369989341,go-nogo,001,21,
logos/4.jpg,properties4.xlsx,logos/4.jpg,0,0,400,a,0,3,3,3,0,85,85,81,,,['l'],0,[1.4505367251185817],2018_Jul_09_0532,60.0369989341,go-nogo,001,21,
logos/4.jpg,properties4.xlsx,frogs/ab66.jpg,0,0,400,l,0,3,3,3,0,86,86,64,,,['l'],0,[0.16769296333950479],2018_Jul_09_0532,60.0369989341,go-nogo,001,21,
logos/4.jpg,properties4.xlsx,frogs/ab30.jpg,0,0,400,l,0,3,3,3,0,87,87,29,,,['l'],0,[0.1509622228477383],2018_Jul_09_0532,60.0369989341,go-nogo,001,21,
logos/4.jpg,properties4.xlsx,frogs/ab25.jpg,0,0,400,l,0,3,3,3,0,88,88,24,,,['l'],0,[0.08441321698046522],2018_Jul_09_0532,60.0369989341,go-nogo,001,21,
logos/4.jpg,properties4.xlsx,frogs/ab14.jpg,0,0,400,l,0,3,3,3,0,89,89,13,,,['l'],0,[0.08430031616444467],2018_Jul_09_0532,60.0369989341,go-nogo,001,21,
logos/4.jpg,properties4.xlsx,,,,,,0,3,3,3,,,,,,,,,,2018_Jul_09_0532,60.0369989341,go-nogo,001,21,
