pix,source,image1,x,y,size,answer,trials_2.thisRepN,trials_2.thisTrialN,trials_2.thisN,trials_2.thisIndex,trials.thisRepN,trials.thisTrialN,trials.thisN,trials.thisIndex,key_resp_3.keys,key_resp_3.rt,key_resp_2.keys,key_resp_2.corr,key_resp_2.rt,date,frameRate,expName,session,participant,
logos/3.jpg,properties3.xlsx,frogs/ab48.jpg,0,0,400,l,0,0,0,2,0,0,0,47,space,9.89426337644,['l'],0,[2.5328286146805112],2018_Jul_09_1231,60.0183352171,go-nogo,001,22,
logos/3.jpg,properties3.xlsx,frogs/ab16.jpg,0,0,400,l,0,0,0,2,0,1,1,15,,,['l'],0,[0.3177611244891523],2018_Jul_09_1231,60.0183352171,go-nogo,001,22,
logos/3.jpg,properties3.xlsx,frogs/ab11.jpg,0,0,400,l,0,0,0,2,0,2,2,10,,,['a'],0,[0.2834804196809273],2018_Jul_09_1231,60.0183352171,go-nogo,001,22,
logos/3.jpg,properties3.xlsx,frogs/ab71.jpg,0,0,400,l,0,0,0,2,0,3,3,69,,,['l'],0,[0.6341028699898743],2018_Jul_09_1231,60.0183352171,go-nogo,001,22,
logos/3.jpg,properties3.xlsx,frogs/ab60.jpg,0,0,400,l,0,0,0,2,0,4,4,58,,,['l'],0,[1.017215161356944],2018_Jul_09_1231,60.0183352171,go-nogo,001,22,
logos/3.jpg,properties3.xlsx,frogs/ab69.jpg,0,0,400,l,0,0,0,2,0,5,5,67,,,['l'],0,[1.7501386667845509],2018_Jul_09_1231,60.0183352171,go-nogo,001,22,
logos/3.jpg,properties3.xlsx,logos/3.jpg,0,0,400,a,0,0,0,2,0,6,6,87,,,['a'],0,[0.10070650371380907],2018_Jul_09_1231,60.0183352171,go-nogo,001,22,
logos/3.jpg,properties3.xlsx,frogs/ab73.jpg,0,0,400,l,0,0,0,2,0,7,7,71,,,['l'],0,[1.1330575357642374],2018_Jul_09_1231,60.0183352171,go-nogo,001,22,
logos/3.jpg,properties3.xlsx,frogs/ab75.jpg,0,0,400,l,0,0,0,2,0,8,8,73,,,['l'],0,[0.5508544433960196],2018_Jul_09_1231,60.0183352171,go-nogo,001,22,
logos/3.jpg,properties3.xlsx,frogs/ab61.jpg,0,0,400,l,0,0,0,2,0,9,9,59,,,['l'],0,[0.550804381130547],2018_Jul_09_1231,60.0183352171,go-nogo,001,22,
logos/3.jpg,properties3.xlsx,frogs/ab52.jpg,0,0,400,l,0,0,0,2,0,10,10,51,,,['l'],0,[1.2838285799780351],2018_Jul_09_1231,60.0183352171,go-nogo,001,22,
logos/3.jpg,properties3.xlsx,logos/3.jpg,0,0,400,a,0,0,0,2,0,11,11,85,,,['a'],0,[0.13356839842253976],2018_Jul_09_1231,60.0183352171,go-nogo,001,22,
logos/3.jpg,properties3.xlsx,frogs/ab35.jpg,0,0,400,l,0,0,0,2,0,12,12,34,,,['l'],0,[1.0503472785185295],2018_Jul_09_1231,60.0183352171,go-nogo,001,22,
logos/3.jpg,properties3.xlsx,logos/3.jpg,0,0,400,a,0,0,0,2,0,13,13,89,,,['l'],0,[2.966222193397698],2018_Jul_09_1231,60.0183352171,go-nogo,001,22,
logos/3.jpg,properties3.xlsx,frogs/ab30.jpg,0,0,400,l,0,0,0,2,0,14,14,29,,,['l'],0,[0.2508130851383612],2018_Jul_09_1231,60.0183352171,go-nogo,001,22,
logos/3.jpg,properties3.xlsx,frogs/ab18.jpg,0,0,400,l,0,0,0,2,0,15,15,17,,,['l'],0,[0.2509302763492087],2018_Jul_09_1231,60.0183352171,go-nogo,001,22,
logos/3.jpg,properties3.xlsx,frogs/ab54.jpg,0,0,400,l,0,0,0,2,0,16,16,53,,,['l'],0,[0.36761119369475637],2018_Jul_09_1231,60.0183352171,go-nogo,001,22,
logos/3.jpg,properties3.xlsx,frogs/ab13.jpg,0,0,400,l,0,0,0,2,0,17,17,12,,,['l'],0,[0.7174059099634178],2018_Jul_09_1231,60.0183352171,go-nogo,001,22,
logos/3.jpg,properties3.xlsx,frogs/ab38.jpg,0,0,400,l,0,0,0,2,0,18,18,37,,,['l'],0,[0.8165473990093233],2018_Jul_09_1231,60.0183352171,go-nogo,001,22,
logos/3.jpg,properties3.xlsx,frogs/ab77.jpg,0,0,400,l,0,0,0,2,0,19,19,75,,,['l'],0,[0.802037875516362],2018_Jul_09_1231,60.0183352171,go-nogo,001,22,
logos/3.jpg,properties3.xlsx,logos/3.jpg,0,0,400,a,0,0,0,2,0,20,20,82,,,['a'],0,[0.16671360004056623],2018_Jul_09_1231,60.0183352171,go-nogo,001,22,
logos/3.jpg,properties3.xlsx,logos/3.jpg,0,0,400,a,0,0,0,2,0,21,21,80,,,['a'],0,[0.9672700876262752],2018_Jul_09_1231,60.0183352171,go-nogo,001,22,
logos/3.jpg,properties3.xlsx,frogs/ab67.jpg,0,0,400,l,0,0,0,2,0,22,22,65,,,['l'],0,[0.3342293340983815],2018_Jul_09_1231,60.0183352171,go-nogo,001,22,
logos/3.jpg,properties3.xlsx,frogs/ab49.jpg,0,0,400,l,0,0,0,2,0,23,23,48,,,['l'],0,[0.35062870809179003],2018_Jul_09_1231,60.0183352171,go-nogo,001,22,
logos/3.jpg,properties3.xlsx,frogs/ab9.jpg,0,0,400,l,0,0,0,2,0,24,24,8,,,['l'],0,[0.5339572911989308],2018_Jul_09_1231,60.0183352171,go-nogo,001,22,
logos/3.jpg,properties3.xlsx,frogs/ab76.jpg,0,0,400,l,0,0,0,2,0,25,25,74,,,['l'],0,[0.5008320007100338],2018_Jul_09_1231,60.0183352171,go-nogo,001,22,
logos/3.jpg,properties3.xlsx,logos/3.jpg,0,0,400,a,0,0,0,2,0,26,26,88,,,['a'],0,[0.0675624398754735],2018_Jul_09_1231,60.0183352171,go-nogo,001,22,
logos/3.jpg,properties3.xlsx,frogs/ab39.jpg,0,0,400,l,0,0,0,2,0,27,27,38,,,['l'],0,[0.3339255471719298],2018_Jul_09_1231,60.0183352171,go-nogo,001,22,
logos/3.jpg,properties3.xlsx,frogs/ab22.jpg,0,0,400,l,0,0,0,2,0,28,28,21,,,['l'],0,[0.7007863757826271],2018_Jul_09_1231,60.0183352171,go-nogo,001,22,
logos/3.jpg,properties3.xlsx,frogs/ab58.jpg,0,0,400,l,0,0,0,2,0,29,29,57,,,['l'],0,[0.5674421197727497],2018_Jul_09_1231,60.0183352171,go-nogo,001,22,
logos/3.jpg,properties3.xlsx,frogs/ab50.jpg,0,0,400,l,0,0,0,2,0,30,30,49,,,['l'],0,[0.4674069055208747],2018_Jul_09_1231,60.0183352171,go-nogo,001,22,
logos/3.jpg,properties3.xlsx,frogs/ab5.jpg,0,0,400,l,0,0,0,2,0,31,31,4,,,['l'],0,[0.7006458601063059],2018_Jul_09_1231,60.0183352171,go-nogo,001,22,
logos/3.jpg,properties3.xlsx,logos/3.jpg,0,0,400,a,0,0,0,2,0,32,32,86,,,['a'],0,[0.45124077617037983],2018_Jul_09_1231,60.0183352171,go-nogo,001,22,
logos/3.jpg,properties3.xlsx,frogs/ab80.jpg,0,0,400,l,0,0,0,2,0,33,33,78,,,['l'],0,[0.28442193159571616],2018_Jul_09_1231,60.0183352171,go-nogo,001,22,
logos/3.jpg,properties3.xlsx,frogs/ab33.jpg,0,0,400,l,0,0,0,2,0,34,34,32,,,['l'],0,[0.684147499361643],2018_Jul_09_1231,60.0183352171,go-nogo,001,22,
logos/3.jpg,properties3.xlsx,frogs/ab55.jpg,0,0,400,l,0,0,0,2,0,35,35,54,,,['l'],0,[0.4175744718859278],2018_Jul_09_1231,60.0183352171,go-nogo,001,22,
logos/3.jpg,properties3.xlsx,frogs/ab70.jpg,0,0,400,l,0,0,0,2,0,36,36,68,,,['l'],0,[0.8340219739202439],2018_Jul_09_1231,60.0183352171,go-nogo,001,22,
logos/3.jpg,properties3.xlsx,frogs/ab65.jpg,0,0,400,l,0,0,0,2,0,37,37,63,,,['l'],0,[0.4341502015859078],2018_Jul_09_1231,60.0183352171,go-nogo,001,22,
logos/3.jpg,properties3.xlsx,frogs/ab2.jpg,0,0,400,l,0,0,0,2,0,38,38,1,,,['l'],0,[0.43340552539484634],2018_Jul_09_1231,60.0183352171,go-nogo,001,22,
logos/3.jpg,properties3.xlsx,logos/3.jpg,0,0,400,a,0,0,0,2,0,39,39,83,,,['a'],0,[0.38508007971267944],2018_Jul_09_1231,60.0183352171,go-nogo,001,22,
logos/3.jpg,properties3.xlsx,frogs/ab66.jpg,0,0,400,l,0,0,0,2,0,40,40,64,,,['l'],0,[0.3008639722929729],2018_Jul_09_1231,60.0183352171,go-nogo,001,22,
logos/3.jpg,properties3.xlsx,frogs/ab8.jpg,0,0,400,l,0,0,0,2,0,41,41,7,,,['l'],0,[0.3841880611735178],2018_Jul_09_1231,60.0183352171,go-nogo,001,22,
logos/3.jpg,properties3.xlsx,frogs/ab27.jpg,0,0,400,l,0,0,0,2,0,42,42,26,,,['l'],0,[0.43398237922065164],2018_Jul_09_1231,60.0183352171,go-nogo,001,22,
logos/3.jpg,properties3.xlsx,frogs/ab53.jpg,0,0,400,l,0,0,0,2,0,43,43,52,,,['l'],0,[0.41765468528774363],2018_Jul_09_1231,60.0183352171,go-nogo,001,22,
logos/3.jpg,properties3.xlsx,frogs/ab36.jpg,0,0,400,l,0,0,0,2,0,44,44,35,,,['l'],0,[0.6841969927372702],2018_Jul_09_1231,60.0183352171,go-nogo,001,22,
logos/3.jpg,properties3.xlsx,frogs/ab56.jpg,0,0,400,l,0,0,0,2,0,45,45,55,,,['l'],0,[0.5339737889908065],2018_Jul_09_1231,60.0183352171,go-nogo,001,22,
logos/3.jpg,properties3.xlsx,logos/3.jpg,0,0,400,a,0,0,0,2,0,46,46,81,,,['a'],0,[0.3341411562441863],2018_Jul_09_1231,60.0183352171,go-nogo,001,22,
logos/3.jpg,properties3.xlsx,frogs/ab57.jpg,0,0,400,l,0,0,0,2,0,47,47,56,,,['l'],0,[0.40085424428434635],2018_Jul_09_1231,60.0183352171,go-nogo,001,22,
logos/3.jpg,properties3.xlsx,frogs/ab42.jpg,0,0,400,l,0,0,0,2,0,48,48,41,,,['l'],0,[0.4180113789261668],2018_Jul_09_1231,60.0183352171,go-nogo,001,22,
logos/3.jpg,properties3.xlsx,frogs/ab40.jpg,0,0,400,l,0,0,0,2,0,49,49,39,,,['l'],0,[1.0170746456815323],2018_Jul_09_1231,60.0183352171,go-nogo,001,22,
logos/3.jpg,properties3.xlsx,frogs/ab64.jpg,0,0,400,l,0,0,0,2,0,50,50,62,,,['l'],0,[0.6672850494169325],2018_Jul_09_1231,60.0183352171,go-nogo,001,22,
logos/3.jpg,properties3.xlsx,frogs/ab79.jpg,0,0,400,l,0,0,0,2,0,51,51,77,,,['l'],0,[0.8832109936738561],2018_Jul_09_1231,60.0183352171,go-nogo,001,22,
logos/3.jpg,properties3.xlsx,logos/3.jpg,0,0,400,a,0,0,0,2,0,52,52,84,,,['a'],0,[0.8339275382850246],2018_Jul_09_1231,60.0183352171,go-nogo,001,22,
logos/3.jpg,properties3.xlsx,frogs/ab10.jpg,0,0,400,l,0,0,0,2,0,53,53,9,,,['l'],0,[1.0003492980758892],2018_Jul_09_1231,60.0183352171,go-nogo,001,22,
logos/3.jpg,properties3.xlsx,frogs/ab26.jpg,0,0,400,l,0,0,0,2,0,54,54,25,,,['l'],0,[1.1004249034731401],2018_Jul_09_1231,60.0183352171,go-nogo,001,22,
logos/3.jpg,properties3.xlsx,frogs/ab29.jpg,0,0,400,l,0,0,0,2,0,55,55,28,,,['l'],0,[0.5675160753917226],2018_Jul_09_1231,60.0183352171,go-nogo,001,22,
logos/3.jpg,properties3.xlsx,frogs/ab72.jpg,0,0,400,l,0,0,0,2,0,56,56,70,,,['l'],0,[0.5500352426970494],2018_Jul_09_1231,60.0183352171,go-nogo,001,22,
logos/3.jpg,properties3.xlsx,frogs/ab7.jpg,0,0,400,l,0,0,0,2,0,57,57,6,,,['l'],0,[0.550849323391958],2018_Jul_09_1231,60.0183352171,go-nogo,001,22,
logos/3.jpg,properties3.xlsx,frogs/ab14.jpg,0,0,400,l,0,0,0,2,0,58,58,13,,,['l'],0,[0.40121036903292406],2018_Jul_09_1231,60.0183352171,go-nogo,001,22,
logos/3.jpg,properties3.xlsx,frogs/ab45.jpg,0,0,400,l,0,0,0,2,0,59,59,44,,,['l'],0,[0.38424324344305205],2018_Jul_09_1231,60.0183352171,go-nogo,001,22,
logos/3.jpg,properties3.xlsx,frogs/ab74.jpg,0,0,400,l,0,0,0,2,0,60,60,72,,,['l'],0,[0.40030071492401476],2018_Jul_09_1231,60.0183352171,go-nogo,001,22,
logos/3.jpg,properties3.xlsx,frogs/ab47.jpg,0,0,400,l,0,0,0,2,0,61,61,46,,,['l'],0,[0.48406171084388916],2018_Jul_09_1231,60.0183352171,go-nogo,001,22,
logos/3.jpg,properties3.xlsx,frogs/ab4.jpg,0,0,400,l,0,0,0,2,0,62,62,3,,,['l'],0,[0.5175015971572066],2018_Jul_09_1231,60.0183352171,go-nogo,001,22,
logos/3.jpg,properties3.xlsx,frogs/ab81.jpg,0,0,400,l,0,0,0,2,0,63,63,79,,,['l'],0,[0.4342008327403164],2018_Jul_09_1231,60.0183352171,go-nogo,001,22,
logos/3.jpg,properties3.xlsx,frogs/ab6.jpg,0,0,400,l,0,0,0,2,0,64,64,5,,,['l'],0,[0.4010271866545736],2018_Jul_09_1231,60.0183352171,go-nogo,001,22,
logos/3.jpg,properties3.xlsx,frogs/ab68.jpg,0,0,400,l,0,0,0,2,0,65,65,66,,,['l'],0,[0.43406031706490467],2018_Jul_09_1231,60.0183352171,go-nogo,001,22,
logos/3.jpg,properties3.xlsx,frogs/ab15.jpg,0,0,400,l,0,0,0,2,0,66,66,14,,,['l'],0,[0.46751328783375357],2018_Jul_09_1231,60.0183352171,go-nogo,001,22,
logos/3.jpg,properties3.xlsx,frogs/ab1.jpg,0,0,400,l,0,0,0,2,0,67,67,0,,,['l'],0,[0.43414906380712637],2018_Jul_09_1231,60.0183352171,go-nogo,001,22,
logos/3.jpg,properties3.xlsx,frogs/ab51.jpg,0,0,400,l,0,0,0,2,0,68,68,50,,,['l'],0,[0.467526941178221],2018_Jul_09_1231,60.0183352171,go-nogo,001,22,
logos/3.jpg,properties3.xlsx,frogs/ab20.jpg,0,0,400,l,0,0,0,2,0,69,69,19,,,['l'],0,[0.7173325232342904],2018_Jul_09_1231,60.0183352171,go-nogo,001,22,
logos/3.jpg,properties3.xlsx,frogs/ab17.jpg,0,0,400,l,0,0,0,2,0,70,70,16,,,['l'],0,[1.0488340327829064],2018_Jul_09_1231,60.0183352171,go-nogo,001,22,
logos/3.jpg,properties3.xlsx,frogs/ab32.jpg,0,0,400,l,0,0,0,2,0,71,71,31,,,['l'],0,[0.7507007294871073],2018_Jul_09_1231,60.0183352171,go-nogo,001,22,
logos/3.jpg,properties3.xlsx,frogs/ab21.jpg,0,0,400,l,0,0,0,2,0,72,72,20,,,['l'],0,[1.0174865215885802],2018_Jul_09_1231,60.0183352171,go-nogo,001,22,
logos/3.jpg,properties3.xlsx,frogs/ab23.jpg,0,0,400,l,0,0,0,2,0,73,73,22,,,['l'],0,[1.0501851450471804],2018_Jul_09_1231,60.0183352171,go-nogo,001,22,
logos/3.jpg,properties3.xlsx,frogs/ab62.jpg,0,0,400,l,0,0,0,2,0,74,74,60,,,['l'],0,[0.4668249316910078],2018_Jul_09_1231,60.0183352171,go-nogo,001,22,
logos/3.jpg,properties3.xlsx,frogs/ab43.jpg,0,0,400,l,0,0,0,2,0,75,75,42,,,['l'],0,[0.46759691457100416],2018_Jul_09_1231,60.0183352171,go-nogo,001,22,
logos/3.jpg,properties3.xlsx,frogs/ab28.jpg,0,0,400,l,0,0,0,2,0,76,76,27,,,['l'],0,[0.9170195203005278],2018_Jul_09_1231,60.0183352171,go-nogo,001,22,
logos/3.jpg,properties3.xlsx,frogs/ab25.jpg,0,0,400,l,0,0,0,2,0,77,77,24,,,['l'],0,[0.8173409996861665],2018_Jul_09_1231,60.0183352171,go-nogo,001,22,
logos/3.jpg,properties3.xlsx,frogs/ab34.jpg,0,0,400,l,0,0,0,2,0,78,78,33,,,['l'],0,[0.6173314423449483],2018_Jul_09_1231,60.0183352171,go-nogo,001,22,
logos/3.jpg,properties3.xlsx,frogs/ab37.jpg,0,0,400,l,0,0,0,2,0,79,79,36,,,['l'],0,[0.35084545494282793],2018_Jul_09_1231,60.0183352171,go-nogo,001,22,
logos/3.jpg,properties3.xlsx,frogs/ab31.jpg,0,0,400,l,0,0,0,2,0,80,80,30,,,['l'],0,[0.6007153214995924],2018_Jul_09_1231,60.0183352171,go-nogo,001,22,
logos/3.jpg,properties3.xlsx,frogs/ab46.jpg,0,0,400,l,0,0,0,2,0,81,81,45,,,['l'],0,[0.7839904290049162],2018_Jul_09_1231,60.0183352171,go-nogo,001,22,
logos/3.jpg,properties3.xlsx,frogs/ab63.jpg,0,0,400,l,0,0,0,2,0,82,82,61,,,['l'],0,[1.1004322990347646],2018_Jul_09_1231,60.0183352171,go-nogo,001,22,
logos/3.jpg,properties3.xlsx,frogs/ab41.jpg,0,0,400,l,0,0,0,2,0,83,83,40,,,['l'],0,[0.5664107233369577],2018_Jul_09_1231,60.0183352171,go-nogo,001,22,
logos/3.jpg,properties3.xlsx,frogs/ab12.jpg,0,0,400,l,0,0,0,2,0,84,84,11,,,['l'],0,[0.8025686493028843],2018_Jul_09_1231,60.0183352171,go-nogo,001,22,
logos/3.jpg,properties3.xlsx,frogs/ab3.jpg,0,0,400,l,0,0,0,2,0,85,85,2,,,['l'],0,[0.7005508555812412],2018_Jul_09_1231,60.0183352171,go-nogo,001,22,
logos/3.jpg,properties3.xlsx,frogs/ab24.jpg,0,0,400,l,0,0,0,2,0,86,86,23,,,['l'],0,[0.8172971952053558],2018_Jul_09_1231,60.0183352171,go-nogo,001,22,
logos/3.jpg,properties3.xlsx,frogs/ab78.jpg,0,0,400,l,0,0,0,2,0,87,87,76,,,['l'],0,[1.4168588090524281],2018_Jul_09_1231,60.0183352171,go-nogo,001,22,
logos/3.jpg,properties3.xlsx,frogs/ab44.jpg,0,0,400,l,0,0,0,2,0,88,88,43,,,['l'],0,[0.7008694336309418],2018_Jul_09_1231,60.0183352171,go-nogo,001,22,
logos/3.jpg,properties3.xlsx,frogs/ab19.jpg,0,0,400,l,0,0,0,2,0,89,89,18,,,['l'],0,[0.46676690497406526],2018_Jul_09_1231,60.0183352171,go-nogo,001,22,
logos/3.jpg,properties3.xlsx,,,,,,0,0,0,2,,,,,,,,,,2018_Jul_09_1231,60.0183352171,go-nogo,001,22,
logos/4.jpg,properties4.xlsx,frogs/ab9.jpg,0,0,400,l,0,1,1,3,0,0,0,8,space,21.0800996239,['l'],0,[0.36776251826904627],2018_Jul_09_1231,60.0183352171,go-nogo,001,22,
logos/4.jpg,properties4.xlsx,frogs/ab72.jpg,0,0,400,l,0,1,1,3,0,1,1,70,,,['l'],0,[0.0010057964136649389],2018_Jul_09_1231,60.0183352171,go-nogo,001,22,
logos/4.jpg,properties4.xlsx,frogs/ab61.jpg,0,0,400,l,0,1,1,3,0,2,2,59,,,['l'],0,[1.0671204128320824],2018_Jul_09_1231,60.0183352171,go-nogo,001,22,
logos/4.jpg,properties4.xlsx,frogs/ab47.jpg,0,0,400,l,0,1,1,3,0,3,3,46,,,['l'],0,[0.7007101446060915],2018_Jul_09_1231,60.0183352171,go-nogo,001,22,
logos/4.jpg,properties4.xlsx,frogs/ab35.jpg,0,0,400,l,0,1,1,3,0,4,4,34,,,['l'],0,[0.30090663899591163],2018_Jul_09_1231,60.0183352171,go-nogo,001,22,
logos/4.jpg,properties4.xlsx,frogs/ab45.jpg,0,0,400,l,0,1,1,3,0,5,5,44,,,['l'],0,[0.61685186860268],2018_Jul_09_1231,60.0183352171,go-nogo,001,22,
logos/4.jpg,properties4.xlsx,frogs/ab29.jpg,0,0,400,l,0,1,1,3,0,6,6,28,,,['l'],0,[0.6839626103146657],2018_Jul_09_1231,60.0183352171,go-nogo,001,22,
logos/4.jpg,properties4.xlsx,frogs/ab66.jpg,0,0,400,l,0,1,1,3,0,7,7,64,,,['l'],0,[0.5007506495294365],2018_Jul_09_1231,60.0183352171,go-nogo,001,22,
logos/4.jpg,properties4.xlsx,frogs/ab41.jpg,0,0,400,l,0,1,1,3,0,8,8,40,,,['l'],0,[0.5174270726483883],2018_Jul_09_1231,60.0183352171,go-nogo,001,22,
logos/4.jpg,properties4.xlsx,frogs/ab56.jpg,0,0,400,l,0,1,1,3,0,9,9,55,,,['l'],0,[0.4841510264759563],2018_Jul_09_1231,60.0183352171,go-nogo,001,22,
logos/4.jpg,properties4.xlsx,frogs/ab2.jpg,0,0,400,l,0,1,1,3,0,10,10,1,,,['l'],0,[0.418126294578542],2018_Jul_09_1231,60.0183352171,go-nogo,001,22,
logos/4.jpg,properties4.xlsx,frogs/ab18.jpg,0,0,400,l,0,1,1,3,0,11,11,17,,,['l'],0,[0.47238070532057463],2018_Jul_09_1231,60.0183352171,go-nogo,001,22,
logos/4.jpg,properties4.xlsx,frogs/ab23.jpg,0,0,400,l,0,1,1,3,0,12,12,22,,,['l'],0,[0.5007864895605962],2018_Jul_09_1231,60.0183352171,go-nogo,001,22,
logos/4.jpg,properties4.xlsx,frogs/ab80.jpg,0,0,400,l,0,1,1,3,0,13,13,78,,,['l'],0,[0.750449849272627],2018_Jul_09_1231,60.0183352171,go-nogo,001,22,
logos/4.jpg,properties4.xlsx,frogs/ab13.jpg,0,0,400,l,0,1,1,3,0,14,14,12,,,['l'],0,[0.8338501693297076],2018_Jul_09_1231,60.0183352171,go-nogo,001,22,
logos/4.jpg,properties4.xlsx,frogs/ab6.jpg,0,0,400,l,0,1,1,3,0,15,15,5,,,['l'],0,[0.8670994777030501],2018_Jul_09_1231,60.0183352171,go-nogo,001,22,
logos/4.jpg,properties4.xlsx,frogs/ab26.jpg,0,0,400,l,0,1,1,3,0,16,16,25,,,['l'],0,[1.0504417141546583],2018_Jul_09_1231,60.0183352171,go-nogo,001,22,
logos/4.jpg,properties4.xlsx,frogs/ab28.jpg,0,0,400,l,0,1,1,3,0,17,17,27,,,['l'],0,[0.7507724095476078],2018_Jul_09_1231,60.0183352171,go-nogo,001,22,
logos/4.jpg,properties4.xlsx,frogs/ab55.jpg,0,0,400,l,0,1,1,3,0,18,18,54,,,['l'],0,[0.9838549195565065],2018_Jul_09_1231,60.0183352171,go-nogo,001,22,
logos/4.jpg,properties4.xlsx,logos/4.jpg,0,0,400,a,0,1,1,3,0,19,19,84,,,['a'],0,[0.5944865517394646],2018_Jul_09_1231,60.0183352171,go-nogo,001,22,
logos/4.jpg,properties4.xlsx,frogs/ab27.jpg,0,0,400,l,0,1,1,3,0,20,20,26,,,['l'],0,[0.46748996336918935],2018_Jul_09_1231,60.0183352171,go-nogo,001,22,
logos/4.jpg,properties4.xlsx,logos/4.jpg,0,0,400,a,0,1,1,3,0,21,21,86,,,['a'],0,[0.7672514280548057],2018_Jul_09_1231,60.0183352171,go-nogo,001,22,
logos/4.jpg,properties4.xlsx,frogs/ab12.jpg,0,0,400,l,0,1,1,3,0,22,22,11,,,['l'],0,[0.7505448537986013],2018_Jul_09_1231,60.0183352171,go-nogo,001,22,
logos/4.jpg,properties4.xlsx,frogs/ab62.jpg,0,0,400,l,0,1,1,3,0,23,23,60,,,['l'],0,[0.717501483378328],2018_Jul_09_1231,60.0183352171,go-nogo,001,22,
logos/4.jpg,properties4.xlsx,logos/4.jpg,0,0,400,a,0,1,1,3,0,24,24,89,,,['a'],0,[0.5341615224851921],2018_Jul_09_1231,60.0183352171,go-nogo,001,22,
logos/4.jpg,properties4.xlsx,frogs/ab34.jpg,0,0,400,l,0,1,1,3,0,25,25,33,,,['l'],0,[0.7007044557121844],2018_Jul_09_1231,60.0183352171,go-nogo,001,22,
logos/4.jpg,properties4.xlsx,frogs/ab10.jpg,0,0,400,l,0,1,1,3,0,26,26,9,,,['l'],0,[0.41742485398117424],2018_Jul_09_1231,60.0183352171,go-nogo,001,22,
logos/4.jpg,properties4.xlsx,frogs/ab21.jpg,0,0,400,l,0,1,1,3,0,27,27,20,,,['l'],0,[0.46736366992809053],2018_Jul_09_1231,60.0183352171,go-nogo,001,22,
logos/4.jpg,properties4.xlsx,frogs/ab4.jpg,0,0,400,l,0,1,1,3,0,28,28,3,,,['l'],0,[0.5173314992343876],2018_Jul_09_1231,60.0183352171,go-nogo,001,22,
logos/4.jpg,properties4.xlsx,frogs/ab30.jpg,0,0,400,l,0,1,1,3,0,29,29,29,,,['l'],0,[0.5341012202106867],2018_Jul_09_1231,60.0183352171,go-nogo,001,22,
logos/4.jpg,properties4.xlsx,frogs/ab49.jpg,0,0,400,l,0,1,1,3,0,30,30,48,,,['l'],0,[0.8675722247726299],2018_Jul_09_1231,60.0183352171,go-nogo,001,22,
logos/4.jpg,properties4.xlsx,frogs/ab70.jpg,0,0,400,l,0,1,1,3,0,31,31,68,,,['l'],0,[0.5340761890784052],2018_Jul_09_1231,60.0183352171,go-nogo,001,22,
logos/4.jpg,properties4.xlsx,frogs/ab11.jpg,0,0,400,l,0,1,1,3,0,32,32,10,,,['l'],0,[0.5008439473867838],2018_Jul_09_1231,60.0183352171,go-nogo,001,22,
logos/4.jpg,properties4.xlsx,frogs/ab37.jpg,0,0,400,l,0,1,1,3,0,33,33,36,,,['l'],0,[0.5839785961061352],2018_Jul_09_1231,60.0183352171,go-nogo,001,22,
logos/4.jpg,properties4.xlsx,frogs/ab31.jpg,0,0,400,l,0,1,1,3,0,34,34,30,,,['l'],0,[0.4334009742797207],2018_Jul_09_1231,60.0183352171,go-nogo,001,22,
logos/4.jpg,properties4.xlsx,frogs/ab17.jpg,0,0,400,l,0,1,1,3,0,35,35,16,,,['l'],0,[0.5507412344104523],2018_Jul_09_1231,60.0183352171,go-nogo,001,22,
logos/4.jpg,properties4.xlsx,frogs/ab44.jpg,0,0,400,l,0,1,1,3,0,36,36,43,,,['l'],0,[0.7672986458719606],2018_Jul_09_1231,60.0183352171,go-nogo,001,22,
logos/4.jpg,properties4.xlsx,frogs/ab48.jpg,0,0,400,l,0,1,1,3,0,37,37,47,,,['l'],0,[0.584060516176578],2018_Jul_09_1231,60.0183352171,go-nogo,001,22,
logos/4.jpg,properties4.xlsx,frogs/ab77.jpg,0,0,400,l,0,1,1,3,0,38,38,75,,,['l'],0,[1.2835799753220272],2018_Jul_09_1231,60.0183352171,go-nogo,001,22,
logos/4.jpg,properties4.xlsx,frogs/ab42.jpg,0,0,400,l,0,1,1,3,0,39,39,41,,,['l'],0,[0.9685813776341092],2018_Jul_09_1231,60.0183352171,go-nogo,001,22,
logos/4.jpg,properties4.xlsx,frogs/ab3.jpg,0,0,400,l,0,1,1,3,0,40,40,2,,,['l'],0,[0.3339369249588344],2018_Jul_09_1231,60.0183352171,go-nogo,001,22,
logos/4.jpg,properties4.xlsx,frogs/ab39.jpg,0,0,400,l,0,1,1,3,0,41,41,38,,,['l'],0,[0.40075923975837213],2018_Jul_09_1231,60.0183352171,go-nogo,001,22,
logos/4.jpg,properties4.xlsx,frogs/ab67.jpg,0,0,400,l,0,1,1,3,0,42,42,65,,,['l'],0,[0.817255097391353],2018_Jul_09_1231,60.0183352171,go-nogo,001,22,
logos/4.jpg,properties4.xlsx,frogs/ab38.jpg,0,0,400,l,0,1,1,3,0,43,43,37,,,['l'],0,[0.40097314216382074],2018_Jul_09_1231,60.0183352171,go-nogo,001,22,
logos/4.jpg,properties4.xlsx,frogs/ab60.jpg,0,0,400,l,0,1,1,3,0,44,44,58,,,['l'],0,[0.46928594712426275],2018_Jul_09_1231,60.0183352171,go-nogo,001,22,
logos/4.jpg,properties4.xlsx,frogs/ab15.jpg,0,0,400,l,0,1,1,3,0,45,45,14,,,['l'],0,[0.5003723380959855],2018_Jul_09_1231,60.0183352171,go-nogo,001,22,
logos/4.jpg,properties4.xlsx,frogs/ab63.jpg,0,0,400,l,0,1,1,3,0,46,46,61,,,['l'],0,[0.3509074638850507],2018_Jul_09_1231,60.0183352171,go-nogo,001,22,
logos/4.jpg,properties4.xlsx,frogs/ab54.jpg,0,0,400,l,0,1,1,3,0,47,47,53,,,['l'],0,[0.46760601680125546],2018_Jul_09_1231,60.0183352171,go-nogo,001,22,
logos/4.jpg,properties4.xlsx,frogs/ab7.jpg,0,0,400,l,0,1,1,3,0,48,48,6,,,['l'],0,[0.3676043670229774],2018_Jul_09_1231,60.0183352171,go-nogo,001,22,
logos/4.jpg,properties4.xlsx,frogs/ab20.jpg,0,0,400,l,0,1,1,3,0,49,49,19,,,['l'],0,[0.501187556568766],2018_Jul_09_1231,60.0183352171,go-nogo,001,22,
logos/4.jpg,properties4.xlsx,logos/4.jpg,0,0,400,a,0,1,1,3,0,50,50,81,,,['a'],0,[0.7007215223939056],2018_Jul_09_1231,60.0183352171,go-nogo,001,22,
logos/4.jpg,properties4.xlsx,frogs/ab58.jpg,0,0,400,l,0,1,1,3,0,51,51,57,,,['l'],0,[0.3343249075132917],2018_Jul_09_1231,60.0183352171,go-nogo,001,22,
logos/4.jpg,properties4.xlsx,frogs/ab46.jpg,0,0,400,l,0,1,1,3,0,52,52,45,,,['l'],0,[0.4010078444152896],2018_Jul_09_1231,60.0183352171,go-nogo,001,22,
logos/4.jpg,properties4.xlsx,frogs/ab51.jpg,0,0,400,l,0,1,1,3,0,53,53,50,,,['l'],0,[0.6008336504892213],2018_Jul_09_1231,60.0183352171,go-nogo,001,22,
logos/4.jpg,properties4.xlsx,logos/4.jpg,0,0,400,a,0,1,1,3,0,54,54,87,,,['a'],0,[0.7173126121060704],2018_Jul_09_1231,60.0183352171,go-nogo,001,22,
logos/4.jpg,properties4.xlsx,frogs/ab14.jpg,0,0,400,l,0,1,1,3,0,55,55,13,,,['l'],0,[0.20094310480453714],2018_Jul_09_1231,60.0183352171,go-nogo,001,22,
logos/4.jpg,properties4.xlsx,frogs/ab40.jpg,0,0,400,l,0,1,1,3,0,56,56,39,,,['l'],0,[0.75065920056295],2018_Jul_09_1231,60.0183352171,go-nogo,001,22,
logos/4.jpg,properties4.xlsx,frogs/ab68.jpg,0,0,400,l,0,1,1,3,0,57,57,66,,,['l'],0,[0.4175374940759866],2018_Jul_09_1231,60.0183352171,go-nogo,001,22,
logos/4.jpg,properties4.xlsx,frogs/ab79.jpg,0,0,400,l,0,1,1,3,0,58,58,77,,,['l'],0,[0.4508459669441436],2018_Jul_09_1231,60.0183352171,go-nogo,001,22,
logos/4.jpg,properties4.xlsx,frogs/ab19.jpg,0,0,400,l,0,1,1,3,0,59,59,18,,,['l'],0,[1.0177994107443737],2018_Jul_09_1231,60.0183352171,go-nogo,001,22,
logos/4.jpg,properties4.xlsx,frogs/ab75.jpg,0,0,400,l,0,1,1,3,0,60,60,73,,,['l'],0,[1.2004015221200461],2018_Jul_09_1231,60.0183352171,go-nogo,001,22,
logos/4.jpg,properties4.xlsx,frogs/ab69.jpg,0,0,400,l,0,1,1,3,0,61,61,67,,,['l'],0,[1.299589091204325],2018_Jul_09_1231,60.0183352171,go-nogo,001,22,
logos/4.jpg,properties4.xlsx,frogs/ab64.jpg,0,0,400,l,0,1,1,3,0,62,62,62,,,['l'],0,[0.7664174362316771],2018_Jul_09_1231,60.0183352171,go-nogo,001,22,
logos/4.jpg,properties4.xlsx,logos/4.jpg,0,0,400,a,0,1,1,3,0,63,63,85,,,['a'],0,[0.4836253726934956],2018_Jul_09_1231,60.0183352171,go-nogo,001,22,
logos/4.jpg,properties4.xlsx,logos/4.jpg,0,0,400,a,0,1,1,3,0,64,64,83,,,['a'],0,[0.6841304326808313],2018_Jul_09_1231,60.0183352171,go-nogo,001,22,
logos/4.jpg,properties4.xlsx,frogs/ab57.jpg,0,0,400,l,0,1,1,3,0,65,65,56,,,['l'],0,[0.41763591193830507],2018_Jul_09_1231,60.0183352171,go-nogo,001,22,
logos/4.jpg,properties4.xlsx,frogs/ab24.jpg,0,0,400,l,0,1,1,3,0,66,66,23,,,['l'],0,[0.25048085374328366],2018_Jul_09_1231,60.0183352171,go-nogo,001,22,
logos/4.jpg,properties4.xlsx,frogs/ab22.jpg,0,0,400,l,0,1,1,3,0,67,67,21,,,['l'],0,[0.6669784180430725],2018_Jul_09_1231,60.0183352171,go-nogo,001,22,
logos/4.jpg,properties4.xlsx,frogs/ab36.jpg,0,0,400,l,0,1,1,3,0,68,68,35,,,['l'],0,[0.517593188345927],2018_Jul_09_1231,60.0183352171,go-nogo,001,22,
logos/4.jpg,properties4.xlsx,frogs/ab25.jpg,0,0,400,l,0,1,1,3,0,69,69,24,,,['l'],0,[0.6340789766363741],2018_Jul_09_1231,60.0183352171,go-nogo,001,22,
logos/4.jpg,properties4.xlsx,frogs/ab76.jpg,0,0,400,l,0,1,1,3,0,70,70,74,,,['l'],0,[0.5008035562414079],2018_Jul_09_1231,60.0183352171,go-nogo,001,22,
logos/4.jpg,properties4.xlsx,frogs/ab16.jpg,0,0,400,l,0,1,1,3,0,71,71,15,,,['l'],0,[0.6007426281894368],2018_Jul_09_1231,60.0183352171,go-nogo,001,22,
logos/4.jpg,properties4.xlsx,frogs/ab5.jpg,0,0,400,l,0,1,1,3,0,72,72,4,,,['l'],0,[1.033759033251954],2018_Jul_09_1231,60.0183352171,go-nogo,001,22,
logos/4.jpg,properties4.xlsx,frogs/ab71.jpg,0,0,400,l,0,1,1,3,0,73,73,69,,,['l'],0,[0.4500563484925806],2018_Jul_09_1231,60.0183352171,go-nogo,001,22,
logos/4.jpg,properties4.xlsx,frogs/ab65.jpg,0,0,400,l,0,1,1,3,0,74,74,63,,,['l'],0,[0.4667100160368136],2018_Jul_09_1231,60.0183352171,go-nogo,001,22,
logos/4.jpg,properties4.xlsx,logos/4.jpg,0,0,400,a,0,1,1,3,0,75,75,82,,,['a'],0,[0.5174407259937652],2018_Jul_09_1231,60.0183352171,go-nogo,001,22,
logos/4.jpg,properties4.xlsx,frogs/ab81.jpg,0,0,400,l,0,1,1,3,0,76,76,79,,,['l'],0,[0.3175898887875519],2018_Jul_09_1231,60.0183352171,go-nogo,001,22,
logos/4.jpg,properties4.xlsx,frogs/ab50.jpg,0,0,400,l,0,1,1,3,0,77,77,49,,,['l'],0,[0.35089494831936463],2018_Jul_09_1231,60.0183352171,go-nogo,001,22,
logos/4.jpg,properties4.xlsx,logos/4.jpg,0,0,400,a,0,1,1,3,0,78,78,88,,,['a'],0,[0.35012865433236584],2018_Jul_09_1231,60.0183352171,go-nogo,001,22,
logos/4.jpg,properties4.xlsx,frogs/ab32.jpg,0,0,400,l,0,1,1,3,0,79,79,31,,,['l'],0,[0.2844907672097179],2018_Jul_09_1231,60.0183352171,go-nogo,001,22,
logos/4.jpg,properties4.xlsx,frogs/ab43.jpg,0,0,400,l,0,1,1,3,0,80,80,42,,,['l'],0,[0.35093363279702317],2018_Jul_09_1231,60.0183352171,go-nogo,001,22,
logos/4.jpg,properties4.xlsx,frogs/ab78.jpg,0,0,400,l,0,1,1,3,0,81,81,76,,,['l'],0,[0.4001641814729737],2018_Jul_09_1231,60.0183352171,go-nogo,001,22,
logos/4.jpg,properties4.xlsx,frogs/ab8.jpg,0,0,400,l,0,1,1,3,0,82,82,7,,,['l'],0,[0.38422731454102177],2018_Jul_09_1231,60.0183352171,go-nogo,001,22,
logos/4.jpg,properties4.xlsx,frogs/ab53.jpg,0,0,400,l,0,1,1,3,0,83,83,52,,,['l'],0,[0.4008616398468803],2018_Jul_09_1231,60.0183352171,go-nogo,001,22,
logos/4.jpg,properties4.xlsx,frogs/ab1.jpg,0,0,400,l,0,1,1,3,0,84,84,0,,,['l'],0,[0.4175625252091777],2018_Jul_09_1231,60.0183352171,go-nogo,001,22,
logos/4.jpg,properties4.xlsx,logos/4.jpg,0,0,400,a,0,1,1,3,0,85,85,80,,,['a'],0,[0.46736480770687194],2018_Jul_09_1231,60.0183352171,go-nogo,001,22,
logos/4.jpg,properties4.xlsx,frogs/ab74.jpg,0,0,400,l,0,1,1,3,0,86,86,72,,,['l'],0,[0.25095360081377294],2018_Jul_09_1231,60.0183352171,go-nogo,001,22,
logos/4.jpg,properties4.xlsx,frogs/ab52.jpg,0,0,400,l,0,1,1,3,0,87,87,51,,,['l'],0,[0.5666348657505296],2018_Jul_09_1231,60.0183352171,go-nogo,001,22,
logos/4.jpg,properties4.xlsx,frogs/ab73.jpg,0,0,400,l,0,1,1,3,0,88,88,71,,,['l'],0,[0.6338406119884894],2018_Jul_09_1231,60.0183352171,go-nogo,001,22,
logos/4.jpg,properties4.xlsx,frogs/ab33.jpg,0,0,400,l,0,1,1,3,0,89,89,32,,,['l'],0,[0.3675105002757846],2018_Jul_09_1231,60.0183352171,go-nogo,001,22,
logos/4.jpg,properties4.xlsx,,,,,,0,1,1,3,,,,,,,,,,2018_Jul_09_1231,60.0183352171,go-nogo,001,22,
logos/1.jpg,properties1.xlsx,frogs/ab70.jpg,0,0,400,l,0,2,2,0,0,0,0,68,space,7.65675661377,['l'],0,[0.9838253373090993],2018_Jul_09_1231,60.0183352171,go-nogo,001,22,
logos/1.jpg,properties1.xlsx,frogs/ab66.jpg,0,0,400,l,0,2,2,0,0,1,1,64,,,['l'],0,[0.2508785074160187],2018_Jul_09_1231,60.0183352171,go-nogo,001,22,
logos/1.jpg,properties1.xlsx,frogs/ab45.jpg,0,0,400,l,0,2,2,0,0,2,2,44,,,['l'],0,[0.38430070127014915],2018_Jul_09_1231,60.0183352171,go-nogo,001,22,
logos/1.jpg,properties1.xlsx,frogs/ab34.jpg,0,0,400,l,0,2,2,0,0,3,3,33,,,['l'],0,[0.3335000179204144],2018_Jul_09_1231,60.0183352171,go-nogo,001,22,
logos/1.jpg,properties1.xlsx,frogs/ab58.jpg,0,0,400,l,0,2,2,0,0,4,4,57,,,['l'],0,[0.6174088112993559],2018_Jul_09_1231,60.0183352171,go-nogo,001,22,
logos/1.jpg,properties1.xlsx,frogs/ab14.jpg,0,0,400,l,0,2,2,0,0,5,5,13,,,['l'],0,[1.0003931025576094],2018_Jul_09_1231,60.0183352171,go-nogo,001,22,
logos/1.jpg,properties1.xlsx,frogs/ab65.jpg,0,0,400,l,0,2,2,0,0,6,6,63,,,['l'],0,[0.48403838637932495],2018_Jul_09_1231,60.0183352171,go-nogo,001,22,
logos/1.jpg,properties1.xlsx,frogs/ab26.jpg,0,0,400,l,0,2,2,0,0,7,7,25,,,['l'],0,[0.7673003525405875],2018_Jul_09_1231,60.0183352171,go-nogo,001,22,
logos/1.jpg,properties1.xlsx,frogs/ab19.jpg,0,0,400,l,0,2,2,0,0,8,8,18,,,['l'],0,[0.9671233141680204],2018_Jul_09_1231,60.0183352171,go-nogo,001,22,
logos/1.jpg,properties1.xlsx,frogs/ab72.jpg,0,0,400,l,0,2,2,0,0,9,9,70,,,['l'],0,[1.5334686152264112],2018_Jul_09_1231,60.0183352171,go-nogo,001,22,
logos/1.jpg,properties1.xlsx,frogs/ab81.jpg,0,0,400,l,0,2,2,0,0,10,10,79,,,['l'],0,[0.667368676154183],2018_Jul_09_1231,60.0183352171,go-nogo,001,22,
logos/1.jpg,properties1.xlsx,frogs/ab55.jpg,0,0,400,l,0,2,2,0,0,11,11,54,,,['l'],0,[0.4174908451477677],2018_Jul_09_1231,60.0183352171,go-nogo,001,22,
logos/1.jpg,properties1.xlsx,frogs/ab12.jpg,0,0,400,l,0,2,2,0,0,12,12,11,,,['l'],0,[0.35082554381551745],2018_Jul_09_1231,60.0183352171,go-nogo,001,22,
logos/1.jpg,properties1.xlsx,frogs/ab31.jpg,0,0,400,l,0,2,2,0,0,13,13,30,,,['l'],0,[0.36780063385594985],2018_Jul_09_1231,60.0183352171,go-nogo,001,22,
logos/1.jpg,properties1.xlsx,frogs/ab52.jpg,0,0,400,l,0,2,2,0,0,14,14,51,,,['l'],0,[0.8505021302062232],2018_Jul_09_1231,60.0183352171,go-nogo,001,22,
logos/1.jpg,properties1.xlsx,frogs/ab18.jpg,0,0,400,l,0,2,2,0,0,15,15,17,,,['l'],0,[0.500738133962841],2018_Jul_09_1231,60.0183352171,go-nogo,001,22,
logos/1.jpg,properties1.xlsx,frogs/ab20.jpg,0,0,400,l,0,2,2,0,0,16,16,19,,,['l'],0,[0.7831740727533543],2018_Jul_09_1231,60.0183352171,go-nogo,001,22,
logos/1.jpg,properties1.xlsx,frogs/ab71.jpg,0,0,400,l,0,2,2,0,0,17,17,69,,,['l'],0,[0.48408674197617074],2018_Jul_09_1231,60.0183352171,go-nogo,001,22,
logos/1.jpg,properties1.xlsx,logos/1.jpg,0,0,400,a,0,2,2,0,0,18,18,89,,,['a'],0,[0.6505232928902842],2018_Jul_09_1231,60.0183352171,go-nogo,001,22,
logos/1.jpg,properties1.xlsx,logos/1.jpg,0,0,400,a,0,2,2,0,0,19,19,84,,,['a'],0,[0.467227136477959],2018_Jul_09_1231,60.0183352171,go-nogo,001,22,
logos/1.jpg,properties1.xlsx,frogs/ab36.jpg,0,0,400,l,0,2,2,0,0,20,20,35,,,['l'],0,[0.2509097963320528],2018_Jul_09_1231,60.0183352171,go-nogo,001,22,
logos/1.jpg,properties1.xlsx,frogs/ab28.jpg,0,0,400,l,0,2,2,0,0,21,21,27,,,['l'],0,[0.16768696976032516],2018_Jul_09_1231,60.0183352171,go-nogo,001,22,
logos/1.jpg,properties1.xlsx,frogs/ab80.jpg,0,0,400,l,0,2,2,0,0,22,22,78,,,['l'],0,[0.30087250563337875],2018_Jul_09_1231,60.0183352171,go-nogo,001,22,
logos/1.jpg,properties1.xlsx,frogs/ab37.jpg,0,0,400,l,0,2,2,0,0,23,23,36,,,['l'],0,[0.134380772449731],2018_Jul_09_1231,60.0183352171,go-nogo,001,22,
logos/1.jpg,properties1.xlsx,frogs/ab24.jpg,0,0,400,l,0,2,2,0,0,24,24,23,,,['l'],0,[0.3507345215157329],2018_Jul_09_1231,60.0183352171,go-nogo,001,22,
logos/1.jpg,properties1.xlsx,frogs/ab27.jpg,0,0,400,l,0,2,2,0,0,25,25,26,,,['l'],0,[0.3180495514016002],2018_Jul_09_1231,60.0183352171,go-nogo,001,22,
logos/1.jpg,properties1.xlsx,logos/1.jpg,0,0,400,a,0,2,2,0,0,26,26,80,,,['a'],0,[0.417454436227672],2018_Jul_09_1231,60.0183352171,go-nogo,001,22,
logos/1.jpg,properties1.xlsx,frogs/ab60.jpg,0,0,400,l,0,2,2,0,0,27,27,58,,,['l'],0,[0.18427976614020736],2018_Jul_09_1231,60.0183352171,go-nogo,001,22,
logos/1.jpg,properties1.xlsx,logos/1.jpg,0,0,400,a,0,2,2,0,0,28,28,85,,,['a'],0,[0.21685949172024266],2018_Jul_09_1231,60.0183352171,go-nogo,001,22,
logos/1.jpg,properties1.xlsx,frogs/ab30.jpg,0,0,400,l,0,2,2,0,0,29,29,29,,,['l'],0,[0.08362560024943377],2018_Jul_09_1231,60.0183352171,go-nogo,001,22,
logos/1.jpg,properties1.xlsx,frogs/ab42.jpg,0,0,400,l,0,2,2,0,0,30,30,41,,,['l'],0,[0.4506565267829501],2018_Jul_09_1231,60.0183352171,go-nogo,001,22,
logos/1.jpg,properties1.xlsx,frogs/ab9.jpg,0,0,400,l,0,2,2,0,0,31,31,8,,,['l'],0,[0.40082295536922175],2018_Jul_09_1231,60.0183352171,go-nogo,001,22,
logos/1.jpg,properties1.xlsx,logos/1.jpg,0,0,400,a,0,2,2,0,0,32,32,81,,,['a'],0,[0.2510190230914304],2018_Jul_09_1231,60.0183352171,go-nogo,001,22,
logos/1.jpg,properties1.xlsx,frogs/ab35.jpg,0,0,400,l,0,2,2,0,0,33,33,34,,,['l'],0,[0.16765226750703732],2018_Jul_09_1231,60.0183352171,go-nogo,001,22,
logos/1.jpg,properties1.xlsx,frogs/ab25.jpg,0,0,400,l,0,2,2,0,0,34,34,24,,,['l'],0,[0.00113095207598235],2018_Jul_09_1231,60.0183352171,go-nogo,001,22,
logos/1.jpg,properties1.xlsx,frogs/ab77.jpg,0,0,400,l,0,2,2,0,0,35,35,75,,,['l'],0,[0.21777597250184044],2018_Jul_09_1231,60.0183352171,go-nogo,001,22,
logos/1.jpg,properties1.xlsx,frogs/ab4.jpg,0,0,400,l,0,2,2,0,0,36,36,3,,,['l'],0,[0.45084881139064237],2018_Jul_09_1231,60.0183352171,go-nogo,001,22,
logos/1.jpg,properties1.xlsx,frogs/ab63.jpg,0,0,400,l,0,2,2,0,0,37,37,61,,,['l'],0,[0.33425379634081764],2018_Jul_09_1231,60.0183352171,go-nogo,001,22,
logos/1.jpg,properties1.xlsx,frogs/ab54.jpg,0,0,400,l,0,2,2,0,0,38,38,53,,,['l'],0,[0.6332768426182156],2018_Jul_09_1231,60.0183352171,go-nogo,001,22,
logos/1.jpg,properties1.xlsx,frogs/ab64.jpg,0,0,400,l,0,2,2,0,0,39,39,62,,,['l'],0,[1.083792853725754],2018_Jul_09_1231,60.0183352171,go-nogo,001,22,
logos/1.jpg,properties1.xlsx,frogs/ab29.jpg,0,0,400,l,0,2,2,0,0,40,40,28,,,['l'],0,[0.350889828315303],2018_Jul_09_1231,60.0183352171,go-nogo,001,22,
logos/1.jpg,properties1.xlsx,frogs/ab1.jpg,0,0,400,l,0,2,2,0,0,41,41,0,,,['l'],0,[0.6168990864207444],2018_Jul_09_1231,60.0183352171,go-nogo,001,22,
logos/1.jpg,properties1.xlsx,logos/1.jpg,0,0,400,a,0,2,2,0,0,42,42,82,,,['a'],0,[0.4504972377571903],2018_Jul_09_1231,60.0183352171,go-nogo,001,22,
logos/1.jpg,properties1.xlsx,logos/1.jpg,0,0,400,a,0,2,2,0,0,43,43,83,,,['a'],0,[0.21763147460023902],2018_Jul_09_1231,60.0183352171,go-nogo,001,22,
logos/1.jpg,properties1.xlsx,frogs/ab10.jpg,0,0,400,l,0,2,2,0,0,44,44,9,,,['l'],0,[0.10154561554190877],2018_Jul_09_1231,60.0183352171,go-nogo,001,22,
logos/1.jpg,properties1.xlsx,frogs/ab8.jpg,0,0,400,l,0,2,2,0,0,45,45,7,,,['l'],0,[0.35026291222402506],2018_Jul_09_1231,60.0183352171,go-nogo,001,22,
logos/1.jpg,properties1.xlsx,frogs/ab56.jpg,0,0,400,l,0,2,2,0,0,46,46,55,,,['l'],0,[0.08424284522061498],2018_Jul_09_1231,60.0183352171,go-nogo,001,22,
logos/1.jpg,properties1.xlsx,frogs/ab47.jpg,0,0,400,l,0,2,2,0,0,47,47,46,,,['l'],0,[0.4037771978892124],2018_Jul_09_1231,60.0183352171,go-nogo,001,22,
logos/1.jpg,properties1.xlsx,frogs/ab41.jpg,0,0,400,l,0,2,2,0,0,48,48,40,,,['l'],0,[0.4175335118507064],2018_Jul_09_1231,60.0183352171,go-nogo,001,22,
logos/1.jpg,properties1.xlsx,frogs/ab23.jpg,0,0,400,l,0,2,2,0,0,49,49,22,,,['l'],0,[0.4176541163978982],2018_Jul_09_1231,60.0183352171,go-nogo,001,22,
logos/1.jpg,properties1.xlsx,frogs/ab51.jpg,0,0,400,l,0,2,2,0,0,50,50,50,,,['l'],0,[0.30068078991462244],2018_Jul_09_1231,60.0183352171,go-nogo,001,22,
logos/1.jpg,properties1.xlsx,frogs/ab53.jpg,0,0,400,l,0,2,2,0,0,51,51,52,,,['l'],0,[0.3508716238548004],2018_Jul_09_1231,60.0183352171,go-nogo,001,22,
logos/1.jpg,properties1.xlsx,frogs/ab11.jpg,0,0,400,l,0,2,2,0,0,52,52,10,,,['l'],0,[0.4008656220721605],2018_Jul_09_1231,60.0183352171,go-nogo,001,22,
logos/1.jpg,properties1.xlsx,logos/1.jpg,0,0,400,a,0,2,2,0,0,53,53,88,,,['a'],0,[0.23426409323928965],2018_Jul_09_1231,60.0183352171,go-nogo,001,22,
logos/1.jpg,properties1.xlsx,frogs/ab74.jpg,0,0,400,l,0,2,2,0,0,54,54,72,,,['l'],0,[0.0011320898547637626],2018_Jul_09_1231,60.0183352171,go-nogo,001,22,
logos/1.jpg,properties1.xlsx,logos/1.jpg,0,0,400,a,0,2,2,0,0,55,55,87,,,['a'],0,[0.32413211659240915],2018_Jul_09_1231,60.0183352171,go-nogo,001,22,
logos/1.jpg,properties1.xlsx,frogs/ab48.jpg,0,0,400,l,0,2,2,0,0,56,56,47,,,['l'],0,[0.9839857641118215],2018_Jul_09_1231,60.0183352171,go-nogo,001,22,
logos/1.jpg,properties1.xlsx,frogs/ab22.jpg,0,0,400,l,0,2,2,0,0,57,57,21,,,['l'],0,[0.13428747459238366],2018_Jul_09_1231,60.0183352171,go-nogo,001,22,
logos/1.jpg,properties1.xlsx,frogs/ab3.jpg,0,0,400,l,0,2,2,0,0,58,58,2,,,['l'],0,[0.3842295900976751],2018_Jul_09_1231,60.0183352171,go-nogo,001,22,
logos/1.jpg,properties1.xlsx,frogs/ab7.jpg,0,0,400,l,0,2,2,0,0,59,59,6,,,['l'],0,[0.3175830621148634],2018_Jul_09_1231,60.0183352171,go-nogo,001,22,
logos/1.jpg,properties1.xlsx,frogs/ab21.jpg,0,0,400,l,0,2,2,0,0,60,60,20,,,['l'],0,[0.5166539519896105],2018_Jul_09_1231,60.0183352171,go-nogo,001,22,
logos/1.jpg,properties1.xlsx,frogs/ab79.jpg,0,0,400,l,0,2,2,0,0,61,61,77,,,['l'],0,[0.33426403634985036],2018_Jul_09_1231,60.0183352171,go-nogo,001,22,
logos/1.jpg,properties1.xlsx,frogs/ab76.jpg,0,0,400,l,0,2,2,0,0,62,62,74,,,['l'],0,[0.30093622124331887],2018_Jul_09_1231,60.0183352171,go-nogo,001,22,
logos/1.jpg,properties1.xlsx,frogs/ab44.jpg,0,0,400,l,0,2,2,0,0,63,63,43,,,['l'],0,[0.5008576007321608],2018_Jul_09_1231,60.0183352171,go-nogo,001,22,
logos/1.jpg,properties1.xlsx,frogs/ab16.jpg,0,0,400,l,0,2,2,0,0,64,64,15,,,['l'],0,[0.7998226202926162],2018_Jul_09_1231,60.0183352171,go-nogo,001,22,
logos/1.jpg,properties1.xlsx,frogs/ab75.jpg,0,0,400,l,0,2,2,0,0,65,65,73,,,['l'],0,[0.35078401489136013],2018_Jul_09_1231,60.0183352171,go-nogo,001,22,
logos/1.jpg,properties1.xlsx,frogs/ab33.jpg,0,0,400,l,0,2,2,0,0,66,66,32,,,['l'],0,[0.9005882885021492],2018_Jul_09_1231,60.0183352171,go-nogo,001,22,
logos/1.jpg,properties1.xlsx,frogs/ab73.jpg,0,0,400,l,0,2,2,0,0,67,67,71,,,['l'],0,[0.30090095010291407],2018_Jul_09_1231,60.0183352171,go-nogo,001,22,
logos/1.jpg,properties1.xlsx,frogs/ab46.jpg,0,0,400,l,0,2,2,0,0,68,68,45,,,['l'],0,[0.284450376064342],2018_Jul_09_1231,60.0183352171,go-nogo,001,22,
logos/1.jpg,properties1.xlsx,frogs/ab13.jpg,0,0,400,l,0,2,2,0,0,69,69,12,,,['l'],0,[0.31729577298119693],2018_Jul_09_1231,60.0183352171,go-nogo,001,22,
logos/1.jpg,properties1.xlsx,frogs/ab67.jpg,0,0,400,l,0,2,2,0,0,70,70,65,,,['l'],0,[0.2841551224792056],2018_Jul_09_1231,60.0183352171,go-nogo,001,22,
logos/1.jpg,properties1.xlsx,frogs/ab57.jpg,0,0,400,l,0,2,2,0,0,71,71,56,,,['l'],0,[0.9504781799641933],2018_Jul_09_1231,60.0183352171,go-nogo,001,22,
logos/1.jpg,properties1.xlsx,frogs/ab32.jpg,0,0,400,l,0,2,2,0,0,72,72,31,,,['l'],0,[0.2844759760855595],2018_Jul_09_1231,60.0183352171,go-nogo,001,22,
logos/1.jpg,properties1.xlsx,frogs/ab43.jpg,0,0,400,l,0,2,2,0,0,73,73,42,,,['l'],0,[0.20056194892458734],2018_Jul_09_1231,60.0183352171,go-nogo,001,22,
logos/1.jpg,properties1.xlsx,frogs/ab62.jpg,0,0,400,l,0,2,2,0,0,74,74,60,,,['l'],0,[0.10098696617569658],2018_Jul_09_1231,60.0183352171,go-nogo,001,22,
logos/1.jpg,properties1.xlsx,frogs/ab39.jpg,0,0,400,l,0,2,2,0,0,75,75,38,,,['l'],0,[0.267456512674471],2018_Jul_09_1231,60.0183352171,go-nogo,001,22,
logos/1.jpg,properties1.xlsx,frogs/ab17.jpg,0,0,400,l,0,2,2,0,0,76,76,16,,,['l'],0,[0.4510547493446211],2018_Jul_09_1231,60.0183352171,go-nogo,001,22,
logos/1.jpg,properties1.xlsx,frogs/ab61.jpg,0,0,400,l,0,2,2,0,0,77,77,59,,,['l'],0,[1.316739968062393],2018_Jul_09_1231,60.0183352171,go-nogo,001,22,
logos/1.jpg,properties1.xlsx,frogs/ab68.jpg,0,0,400,l,0,2,2,0,0,78,78,66,,,['l'],0,[0.4508038691310503],2018_Jul_09_1231,60.0183352171,go-nogo,001,22,
logos/1.jpg,properties1.xlsx,frogs/ab2.jpg,0,0,400,l,0,2,2,0,0,79,79,1,,,['l'],0,[0.5500574293819227],2018_Jul_09_1231,60.0183352171,go-nogo,001,22,
logos/1.jpg,properties1.xlsx,frogs/ab50.jpg,0,0,400,l,0,2,2,0,0,80,80,49,,,['l'],0,[0.25069361836995085],2018_Jul_09_1231,60.0183352171,go-nogo,001,22,
logos/1.jpg,properties1.xlsx,frogs/ab40.jpg,0,0,400,l,0,2,2,0,0,81,81,39,,,['l'],0,[0.30086055895662867],2018_Jul_09_1231,60.0183352171,go-nogo,001,22,
logos/1.jpg,properties1.xlsx,logos/1.jpg,0,0,400,a,0,2,2,0,0,82,82,86,,,['a'],0,[0.500045795594815],2018_Jul_09_1231,60.0183352171,go-nogo,001,22,
logos/1.jpg,properties1.xlsx,frogs/ab49.jpg,0,0,400,l,0,2,2,0,0,83,83,48,,,['l'],0,[0.9839425285199468],2018_Jul_09_1231,60.0183352171,go-nogo,001,22,
logos/1.jpg,properties1.xlsx,frogs/ab69.jpg,0,0,400,l,0,2,2,0,0,84,84,67,,,['l'],0,[0.16692124466226232],2018_Jul_09_1231,60.0183352171,go-nogo,001,22,
logos/1.jpg,properties1.xlsx,frogs/ab15.jpg,0,0,400,l,0,2,2,0,0,85,85,14,,,['l'],0,[0.30084519894353434],2018_Jul_09_1231,60.0183352171,go-nogo,001,22,
logos/1.jpg,properties1.xlsx,frogs/ab6.jpg,0,0,400,l,0,2,2,0,0,86,86,5,,,['l'],0,[0.11769581598855439],2018_Jul_09_1231,60.0183352171,go-nogo,001,22,
logos/1.jpg,properties1.xlsx,frogs/ab38.jpg,0,0,400,l,0,2,2,0,0,87,87,37,,,['l'],0,[0.30094020346859907],2018_Jul_09_1231,60.0183352171,go-nogo,001,22,
logos/1.jpg,properties1.xlsx,frogs/ab78.jpg,0,0,400,l,0,2,2,0,0,88,88,76,,,['l'],0,[0.10126856641545601],2018_Jul_09_1231,60.0183352171,go-nogo,001,22,
logos/1.jpg,properties1.xlsx,frogs/ab5.jpg,0,0,400,l,0,2,2,0,0,89,89,4,,,['l'],0,[0.617347940136824],2018_Jul_09_1231,60.0183352171,go-nogo,001,22,
logos/1.jpg,properties1.xlsx,,,,,,0,2,2,0,,,,,,,,,,2018_Jul_09_1231,60.0183352171,go-nogo,001,22,
logos/2.jpg,properties2.xlsx,frogs/ab73.jpg,0,0,400,l,0,3,3,1,0,0,0,71,space,5.66725262272,['l'],0,[0.45115714943131024],2018_Jul_09_1231,60.0183352171,go-nogo,001,22,
logos/2.jpg,properties2.xlsx,frogs/ab58.jpg,0,0,400,l,0,3,3,1,0,1,1,57,,,['l'],0,[0.00114289875364193],2018_Jul_09_1231,60.0183352171,go-nogo,001,22,
logos/2.jpg,properties2.xlsx,frogs/ab13.jpg,0,0,400,l,0,3,3,1,0,2,2,12,,,['l'],0,[0.20099885596300737],2018_Jul_09_1231,60.0183352171,go-nogo,001,22,
logos/2.jpg,properties2.xlsx,logos/2.jpg,0,0,400,a,0,3,3,1,0,3,3,82,,,['a'],0,[0.6507974975693287],2018_Jul_09_1231,60.0183352171,go-nogo,001,22,
logos/2.jpg,properties2.xlsx,frogs/ab10.jpg,0,0,400,l,0,3,3,1,0,4,4,9,,,['l'],0,[0.15094171102555265],2018_Jul_09_1231,60.0183352171,go-nogo,001,22,
logos/2.jpg,properties2.xlsx,frogs/ab65.jpg,0,0,400,l,0,3,3,1,0,5,5,63,,,['l'],0,[0.2668409743700977],2018_Jul_09_1231,60.0183352171,go-nogo,001,22,
logos/2.jpg,properties2.xlsx,frogs/ab61.jpg,0,0,400,l,0,3,3,1,0,6,6,59,,,['l'],0,[0.0011315209658278036],2018_Jul_09_1231,60.0183352171,go-nogo,001,22,
logos/2.jpg,properties2.xlsx,frogs/ab28.jpg,0,0,400,l,0,3,3,1,0,7,7,27,,,['l'],0,[0.3511879263469382],2018_Jul_09_1231,60.0183352171,go-nogo,001,22,
logos/2.jpg,properties2.xlsx,logos/2.jpg,0,0,400,a,0,3,3,1,0,8,8,80,,,['a'],0,[0.5842533696741157],2018_Jul_09_1231,60.0183352171,go-nogo,001,22,
logos/2.jpg,properties2.xlsx,logos/2.jpg,0,0,400,a,0,3,3,1,0,9,9,81,,,['a'],0,[0.18421491275148583],2018_Jul_09_1231,60.0183352171,go-nogo,001,22,
logos/2.jpg,properties2.xlsx,frogs/ab27.jpg,0,0,400,l,0,3,3,1,0,10,10,26,,,['l'],0,[0.1009044772163179],2018_Jul_09_1231,60.0183352171,go-nogo,001,22,
logos/2.jpg,properties2.xlsx,frogs/ab32.jpg,0,0,400,l,0,3,3,1,0,11,11,31,,,['l'],0,[0.4500170951250766],2018_Jul_09_1231,60.0183352171,go-nogo,001,22,
logos/2.jpg,properties2.xlsx,logos/2.jpg,0,0,400,a,0,3,3,1,0,12,12,86,,,['a'],0,[0.20091579811469273],2018_Jul_09_1231,60.0183352171,go-nogo,001,22,
logos/2.jpg,properties2.xlsx,frogs/ab42.jpg,0,0,400,l,0,3,3,1,0,13,13,41,,,['l'],0,[0.18424506388873851],2018_Jul_09_1231,60.0183352171,go-nogo,001,22,
logos/2.jpg,properties2.xlsx,frogs/ab2.jpg,0,0,400,l,0,3,3,1,0,14,14,1,,,['l'],0,[0.4173861695035157],2018_Jul_09_1231,60.0183352171,go-nogo,001,22,
logos/2.jpg,properties2.xlsx,frogs/ab43.jpg,0,0,400,l,0,3,3,1,0,15,15,42,,,['l'],0,[0.351235713054848],2018_Jul_09_1231,60.0183352171,go-nogo,001,22,
logos/2.jpg,properties2.xlsx,frogs/ab75.jpg,0,0,400,l,0,3,3,1,0,16,16,73,,,['l'],0,[0.08431736972852377],2018_Jul_09_1231,60.0183352171,go-nogo,001,22,
logos/2.jpg,properties2.xlsx,frogs/ab50.jpg,0,0,400,l,0,3,3,1,0,17,17,49,,,['l'],0,[0.2509479119198659],2018_Jul_09_1231,60.0183352171,go-nogo,001,22,
logos/2.jpg,properties2.xlsx,frogs/ab48.jpg,0,0,400,l,0,3,3,1,0,18,18,47,,,['l'],0,[1.3171791506592854],2018_Jul_09_1231,60.0183352171,go-nogo,001,22,
logos/2.jpg,properties2.xlsx,frogs/ab12.jpg,0,0,400,l,0,3,3,1,0,19,19,11,,,['l'],0,[0.9009432754719455],2018_Jul_09_1231,60.0183352171,go-nogo,001,22,
logos/2.jpg,properties2.xlsx,frogs/ab56.jpg,0,0,400,l,0,3,3,1,0,20,20,55,,,['l'],0,[0.1345338036899193],2018_Jul_09_1231,60.0183352171,go-nogo,001,22,
logos/2.jpg,properties2.xlsx,logos/2.jpg,0,0,400,a,0,3,3,1,0,21,21,88,,,['a'],0,[0.5008251740382548],2018_Jul_09_1231,60.0183352171,go-nogo,001,22,
logos/2.jpg,properties2.xlsx,frogs/ab34.jpg,0,0,400,l,0,3,3,1,0,22,22,33,,,['l'],0,[0.15021467040605785],2018_Jul_09_1231,60.0183352171,go-nogo,001,22,
logos/2.jpg,properties2.xlsx,frogs/ab44.jpg,0,0,400,l,0,3,3,1,0,23,23,43,,,['l'],0,[0.5674011597366189],2018_Jul_09_1231,60.0183352171,go-nogo,001,22,
logos/2.jpg,properties2.xlsx,frogs/ab68.jpg,0,0,400,l,0,3,3,1,0,24,24,66,,,['l'],0,[0.23451440456301498],2018_Jul_09_1231,60.0183352171,go-nogo,001,22,
logos/2.jpg,properties2.xlsx,frogs/ab1.jpg,0,0,400,l,0,3,3,1,0,25,25,0,,,['l'],0,[0.23420037762844004],2018_Jul_09_1231,60.0183352171,go-nogo,001,22,
logos/2.jpg,properties2.xlsx,frogs/ab29.jpg,0,0,400,l,0,3,3,1,0,26,26,28,,,['l'],0,[0.2738286425574188],2018_Jul_09_1231,60.0183352171,go-nogo,001,22,
logos/2.jpg,properties2.xlsx,frogs/ab38.jpg,0,0,400,l,0,3,3,1,0,27,27,37,,,['l'],0,[0.2834792819012364],2018_Jul_09_1231,60.0183352171,go-nogo,001,22,
logos/2.jpg,properties2.xlsx,frogs/ab31.jpg,0,0,400,l,0,3,3,1,0,28,28,30,,,['l'],0,[0.1842763528056821],2018_Jul_09_1231,60.0183352171,go-nogo,001,22,
logos/2.jpg,properties2.xlsx,frogs/ab22.jpg,0,0,400,l,0,3,3,1,0,29,29,21,,,['l'],0,[0.30104374133406964],2018_Jul_09_1231,60.0183352171,go-nogo,001,22,
logos/2.jpg,properties2.xlsx,frogs/ab19.jpg,0,0,400,l,0,3,3,1,0,30,30,18,,,['l'],0,[0.23420947985869134],2018_Jul_09_1231,60.0183352171,go-nogo,001,22,
logos/2.jpg,properties2.xlsx,frogs/ab35.jpg,0,0,400,l,0,3,3,1,0,31,31,34,,,['l'],0,[0.1676187030334404],2018_Jul_09_1231,60.0183352171,go-nogo,001,22,
logos/2.jpg,properties2.xlsx,frogs/ab54.jpg,0,0,400,l,0,3,3,1,0,32,32,53,,,['l'],0,[0.2674622015674686],2018_Jul_09_1231,60.0183352171,go-nogo,001,22,
logos/2.jpg,properties2.xlsx,frogs/ab77.jpg,0,0,400,l,0,3,3,1,0,33,33,75,,,['l'],0,[0.21749835448645172],2018_Jul_09_1231,60.0183352171,go-nogo,001,22,
logos/2.jpg,properties2.xlsx,frogs/ab47.jpg,0,0,400,l,0,3,3,1,0,34,34,46,,,['l'],0,[0.1840937393153581],2018_Jul_09_1231,60.0183352171,go-nogo,001,22,
logos/2.jpg,properties2.xlsx,logos/2.jpg,0,0,400,a,0,3,3,1,0,35,35,89,,,['a'],0,[0.48417150649220275],2018_Jul_09_1231,60.0183352171,go-nogo,001,22,
logos/2.jpg,properties2.xlsx,frogs/ab14.jpg,0,0,400,l,0,3,3,1,0,36,36,13,,,['l'],0,[0.2173942477311357],2018_Jul_09_1231,60.0183352171,go-nogo,001,22,
logos/2.jpg,properties2.xlsx,frogs/ab46.jpg,0,0,400,l,0,3,3,1,0,37,37,45,,,['l'],0,[0.31691177265383885],2018_Jul_09_1231,60.0183352171,go-nogo,001,22,
logos/2.jpg,properties2.xlsx,frogs/ab51.jpg,0,0,400,l,0,3,3,1,0,38,38,50,,,['l'],0,[0.28340646406286396],2018_Jul_09_1231,60.0183352171,go-nogo,001,22,
logos/2.jpg,properties2.xlsx,frogs/ab3.jpg,0,0,400,l,0,3,3,1,0,39,39,2,,,['l'],0,[0.334229334099291],2018_Jul_09_1231,60.0183352171,go-nogo,001,22,
logos/2.jpg,properties2.xlsx,frogs/ab74.jpg,0,0,400,l,0,3,3,1,0,40,40,72,,,['l'],0,[0.2841306602349505],2018_Jul_09_1231,60.0183352171,go-nogo,001,22,
logos/2.jpg,properties2.xlsx,frogs/ab24.jpg,0,0,400,l,0,3,3,1,0,41,41,23,,,['l'],0,[0.38417782116630406],2018_Jul_09_1231,60.0183352171,go-nogo,001,22,
logos/2.jpg,properties2.xlsx,frogs/ab57.jpg,0,0,400,l,0,3,3,1,0,42,42,56,,,['l'],0,[0.26761637058916676],2018_Jul_09_1231,60.0183352171,go-nogo,001,22,
logos/2.jpg,properties2.xlsx,frogs/ab76.jpg,0,0,400,l,0,3,3,1,0,43,43,74,,,['l'],0,[0.33345507565900334],2018_Jul_09_1231,60.0183352171,go-nogo,001,22,
logos/2.jpg,properties2.xlsx,frogs/ab81.jpg,0,0,400,l,0,3,3,1,0,44,44,79,,,['l'],0,[0.28442989604627655],2018_Jul_09_1231,60.0183352171,go-nogo,001,22,
logos/2.jpg,properties2.xlsx,frogs/ab26.jpg,0,0,400,l,0,3,3,1,0,45,45,25,,,['l'],0,[0.36758673145232024],2018_Jul_09_1231,60.0183352171,go-nogo,001,22,
logos/2.jpg,properties2.xlsx,frogs/ab7.jpg,0,0,400,l,0,3,3,1,0,46,46,6,,,['l'],0,[1.0670919683616376],2018_Jul_09_1231,60.0183352171,go-nogo,001,22,
logos/2.jpg,properties2.xlsx,frogs/ab37.jpg,0,0,400,l,0,3,3,1,0,47,47,36,,,['l'],0,[0.1842922817068029],2018_Jul_09_1231,60.0183352171,go-nogo,001,22,
logos/2.jpg,properties2.xlsx,frogs/ab23.jpg,0,0,400,l,0,3,3,1,0,48,48,22,,,['l'],0,[0.25092743190180045],2018_Jul_09_1231,60.0183352171,go-nogo,001,22,
logos/2.jpg,properties2.xlsx,frogs/ab71.jpg,0,0,400,l,0,3,3,1,0,49,49,69,,,['l'],0,[0.3331905421000556],2018_Jul_09_1231,60.0183352171,go-nogo,001,22,
logos/2.jpg,properties2.xlsx,frogs/ab80.jpg,0,0,400,l,0,3,3,1,0,50,50,78,,,['l'],0,[0.3714671258749149],2018_Jul_09_1231,60.0183352171,go-nogo,001,22,
logos/2.jpg,properties2.xlsx,logos/2.jpg,0,0,400,a,0,3,3,1,0,51,51,85,,,['a'],0,[0.334242418552094],2018_Jul_09_1231,60.0183352171,go-nogo,001,22,
logos/2.jpg,properties2.xlsx,frogs/ab55.jpg,0,0,400,l,0,3,3,1,0,52,52,54,,,['l'],0,[0.03434100708182086],2018_Jul_09_1231,60.0183352171,go-nogo,001,22,
logos/2.jpg,properties2.xlsx,frogs/ab72.jpg,0,0,400,l,0,3,3,1,0,53,53,70,,,['l'],0,[0.15070448415644933],2018_Jul_09_1231,60.0183352171,go-nogo,001,22,
logos/2.jpg,properties2.xlsx,logos/2.jpg,0,0,400,a,0,3,3,1,0,54,54,83,,,['a'],0,[0.6832162274567963],2018_Jul_09_1231,60.0183352171,go-nogo,001,22,
logos/2.jpg,properties2.xlsx,frogs/ab52.jpg,0,0,400,l,0,3,3,1,0,55,55,51,,,['l'],0,[0.03438993156669312],2018_Jul_09_1231,60.0183352171,go-nogo,001,22,
logos/2.jpg,properties2.xlsx,logos/2.jpg,0,0,400,a,0,3,3,1,0,56,56,87,,,['a'],0,[0.0876465103483497],2018_Jul_09_1231,60.0183352171,go-nogo,001,22,
logos/2.jpg,properties2.xlsx,frogs/ab18.jpg,0,0,400,l,0,3,3,1,0,57,57,17,,,['l'],0,[0.9339126902723365],2018_Jul_09_1231,60.0183352171,go-nogo,001,22,
logos/2.jpg,properties2.xlsx,frogs/ab67.jpg,0,0,400,l,0,3,3,1,0,58,58,65,,,['l'],0,[0.18440492180343426],2018_Jul_09_1231,60.0183352171,go-nogo,001,22,
logos/2.jpg,properties2.xlsx,frogs/ab41.jpg,0,0,400,l,0,3,3,1,0,59,59,40,,,['l'],0,[0.5840189872506016],2018_Jul_09_1231,60.0183352171,go-nogo,001,22,
logos/2.jpg,properties2.xlsx,frogs/ab45.jpg,0,0,400,l,0,3,3,1,0,60,60,44,,,['l'],0,[0.30082528781531437],2018_Jul_09_1231,60.0183352171,go-nogo,001,22,
logos/2.jpg,properties2.xlsx,frogs/ab40.jpg,0,0,400,l,0,3,3,1,0,61,61,39,,,['l'],0,[0.2174801500277681],2018_Jul_09_1231,60.0183352171,go-nogo,001,22,
logos/2.jpg,properties2.xlsx,frogs/ab70.jpg,0,0,400,l,0,3,3,1,0,62,62,68,,,['l'],0,[0.16842425038885267],2018_Jul_09_1231,60.0183352171,go-nogo,001,22,
logos/2.jpg,properties2.xlsx,frogs/ab6.jpg,0,0,400,l,0,3,3,1,0,63,63,5,,,['l'],0,[0.36812831413590175],2018_Jul_09_1231,60.0183352171,go-nogo,001,22,
logos/2.jpg,properties2.xlsx,frogs/ab21.jpg,0,0,400,l,0,3,3,1,0,64,64,20,,,['l'],0,[0.25104974311943806],2018_Jul_09_1231,60.0183352171,go-nogo,001,22,
logos/2.jpg,properties2.xlsx,frogs/ab4.jpg,0,0,400,l,0,3,3,1,0,65,65,3,,,['l'],0,[0.23404962194581458],2018_Jul_09_1231,60.0183352171,go-nogo,001,22,
logos/2.jpg,properties2.xlsx,frogs/ab33.jpg,0,0,400,l,0,3,3,1,0,66,66,32,,,['l'],0,[0.20082932693003386],2018_Jul_09_1231,60.0183352171,go-nogo,001,22,
logos/2.jpg,properties2.xlsx,frogs/ab11.jpg,0,0,400,l,0,3,3,1,0,67,67,10,,,['l'],0,[0.26794177530973684],2018_Jul_09_1231,60.0183352171,go-nogo,001,22,
logos/2.jpg,properties2.xlsx,frogs/ab20.jpg,0,0,400,l,0,3,3,1,0,68,68,19,,,['l'],0,[0.2842137180850841],2018_Jul_09_1231,60.0183352171,go-nogo,001,22,
logos/2.jpg,properties2.xlsx,frogs/ab9.jpg,0,0,400,l,0,3,3,1,0,69,69,8,,,['l'],0,[0.21765423017495777],2018_Jul_09_1231,60.0183352171,go-nogo,001,22,
logos/2.jpg,properties2.xlsx,frogs/ab30.jpg,0,0,400,l,0,3,3,1,0,70,70,29,,,['l'],0,[0.550693447703452],2018_Jul_09_1231,60.0183352171,go-nogo,001,22,
logos/2.jpg,properties2.xlsx,frogs/ab79.jpg,0,0,400,l,0,3,3,1,0,71,71,77,,,['l'],0,[0.3674968469313171],2018_Jul_09_1231,60.0183352171,go-nogo,001,22,
logos/2.jpg,properties2.xlsx,frogs/ab64.jpg,0,0,400,l,0,3,3,1,0,72,72,62,,,['l'],0,[0.2842216825356445],2018_Jul_09_1231,60.0183352171,go-nogo,001,22,
logos/2.jpg,properties2.xlsx,frogs/ab49.jpg,0,0,400,l,0,3,3,1,0,73,73,48,,,['l'],0,[0.2843235137333977],2018_Jul_09_1231,60.0183352171,go-nogo,001,22,
logos/2.jpg,properties2.xlsx,frogs/ab15.jpg,0,0,400,l,0,3,3,1,0,74,74,14,,,['l'],0,[0.3834098205097689],2018_Jul_09_1231,60.0183352171,go-nogo,001,22,
logos/2.jpg,properties2.xlsx,frogs/ab60.jpg,0,0,400,l,0,3,3,1,0,75,75,58,,,['l'],0,[0.35090803277489613],2018_Jul_09_1231,60.0183352171,go-nogo,001,22,
logos/2.jpg,properties2.xlsx,frogs/ab8.jpg,0,0,400,l,0,3,3,1,0,76,76,7,,,['l'],0,[0.43485903774671897],2018_Jul_09_1231,60.0183352171,go-nogo,001,22,
logos/2.jpg,properties2.xlsx,frogs/ab53.jpg,0,0,400,l,0,3,3,1,0,77,77,52,,,['l'],0,[0.36754349586044555],2018_Jul_09_1231,60.0183352171,go-nogo,001,22,
logos/2.jpg,properties2.xlsx,frogs/ab17.jpg,0,0,400,l,0,3,3,1,0,78,78,16,,,['l'],0,[0.350087125407299],2018_Jul_09_1231,60.0183352171,go-nogo,001,22,
logos/2.jpg,properties2.xlsx,frogs/ab66.jpg,0,0,400,l,0,3,3,1,0,79,79,64,,,['l'],0,[0.31751251983223483],2018_Jul_09_1231,60.0183352171,go-nogo,001,22,
logos/2.jpg,properties2.xlsx,frogs/ab16.jpg,0,0,400,l,0,3,3,1,0,80,80,15,,,['l'],0,[0.6840354281557666],2018_Jul_09_1231,60.0183352171,go-nogo,001,22,
logos/2.jpg,properties2.xlsx,frogs/ab63.jpg,0,0,400,l,0,3,3,1,0,81,81,61,,,['l'],0,[1.0672597907287127],2018_Jul_09_1231,60.0183352171,go-nogo,001,22,
logos/2.jpg,properties2.xlsx,frogs/ab39.jpg,0,0,400,l,0,3,3,1,0,82,82,38,,,['l'],0,[0.1517438450428017],2018_Jul_09_1231,60.0183352171,go-nogo,001,22,
logos/2.jpg,properties2.xlsx,frogs/ab5.jpg,0,0,400,l,0,3,3,1,0,83,83,4,,,['l'],0,[0.38412719001098594],2018_Jul_09_1231,60.0183352171,go-nogo,001,22,
logos/2.jpg,properties2.xlsx,frogs/ab36.jpg,0,0,400,l,0,3,3,1,0,84,84,35,,,['l'],0,[0.384296150154114],2018_Jul_09_1231,60.0183352171,go-nogo,001,22,
logos/2.jpg,properties2.xlsx,logos/2.jpg,0,0,400,a,0,3,3,1,0,85,85,84,,,['a'],0,[0.5999137563703698],2018_Jul_09_1231,60.0183352171,go-nogo,001,22,
logos/2.jpg,properties2.xlsx,frogs/ab78.jpg,0,0,400,l,0,3,3,1,0,86,86,76,,,['l'],0,[1.0670822972442693],2018_Jul_09_1231,60.0183352171,go-nogo,001,22,
logos/2.jpg,properties2.xlsx,frogs/ab25.jpg,0,0,400,l,0,3,3,1,0,87,87,24,,,['l'],0,[0.20099999374360777],2018_Jul_09_1231,60.0183352171,go-nogo,001,22,
logos/2.jpg,properties2.xlsx,frogs/ab62.jpg,0,0,400,l,0,3,3,1,0,88,88,60,,,['l'],0,[0.4176802853089612],2018_Jul_09_1231,60.0183352171,go-nogo,001,22,
logos/2.jpg,properties2.xlsx,frogs/ab69.jpg,0,0,400,l,0,3,3,1,0,89,89,67,,,['l'],0,[0.6173138067733817],2018_Jul_09_1231,60.0183352171,go-nogo,001,22,
logos/2.jpg,properties2.xlsx,,,,,,0,3,3,1,,,,,,,,,,2018_Jul_09_1231,60.0183352171,go-nogo,001,22,
