pix,source,image1,x,y,size,answer,trials_2.thisRepN,trials_2.thisTrialN,trials_2.thisN,trials_2.thisIndex,trials.thisRepN,trials.thisTrialN,trials.thisN,trials.thisIndex,key_resp_3.keys,key_resp_3.rt,key_resp_2.keys,key_resp_2.corr,key_resp_2.rt,date,frameRate,expName,session,participant,
logos/1.jpg,properties1.xlsx,frogs/ab8.jpg,0,0,400,l,0,0,0,0,0,0,0,7,space,5.0836927292,['l'],0,[3.9488858586064453],2018_Jul_09_1239,59.9738993368,go-nogo,001,23,
logos/1.jpg,properties1.xlsx,frogs/ab29.jpg,0,0,400,l,0,0,0,0,0,1,1,28,,,['l'],0,[0.23432268884425866],2018_Jul_09_1239,59.9738993368,go-nogo,001,23,
logos/1.jpg,properties1.xlsx,frogs/ab41.jpg,0,0,400,l,0,0,0,0,0,2,2,40,,,['l'],0,[0.25094563636230305],2018_Jul_09_1239,59.9738993368,go-nogo,001,23,
logos/1.jpg,properties1.xlsx,frogs/ab70.jpg,0,0,400,l,0,0,0,0,0,3,3,68,,,['l'],0,[0.28425354034152406],2018_Jul_09_1239,59.9738993368,go-nogo,001,23,
logos/1.jpg,properties1.xlsx,frogs/ab3.jpg,0,0,400,l,0,0,0,0,0,4,4,2,,,['l'],0,[1.0338011310650472],2018_Jul_09_1239,59.9738993368,go-nogo,001,23,
logos/1.jpg,properties1.xlsx,frogs/ab47.jpg,0,0,400,l,0,0,0,0,0,5,5,46,,,['l'],0,[0.26763628171647724],2018_Jul_09_1239,59.9738993368,go-nogo,001,23,
logos/1.jpg,properties1.xlsx,frogs/ab12.jpg,0,0,400,l,0,0,0,0,0,6,6,11,,,['l'],0,[0.1673900095065619],2018_Jul_09_1239,59.9738993368,go-nogo,001,23,
logos/1.jpg,properties1.xlsx,frogs/ab31.jpg,0,0,400,l,0,0,0,0,0,7,7,30,,,['l'],0,[0.13409063886865624],2018_Jul_09_1239,59.9738993368,go-nogo,001,23,
logos/1.jpg,properties1.xlsx,logos/1.jpg,0,0,400,a,0,0,0,0,0,8,8,89,,,['a'],0,[0.06750327538065903],2018_Jul_09_1239,59.9738993368,go-nogo,001,23,
logos/1.jpg,properties1.xlsx,frogs/ab23.jpg,0,0,400,l,0,0,0,0,0,9,9,22,,,['l'],0,[0.08429916526984016],2018_Jul_09_1239,59.9738993368,go-nogo,001,23,
logos/1.jpg,properties1.xlsx,frogs/ab7.jpg,0,0,400,l,0,0,0,0,0,10,10,6,,,['l'],0,[0.13432957240547694],2018_Jul_09_1239,59.9738993368,go-nogo,001,23,
logos/1.jpg,properties1.xlsx,frogs/ab4.jpg,0,0,400,l,0,0,0,0,0,11,11,3,,,['l'],0,[0.251768819287463],2018_Jul_09_1239,59.9738993368,go-nogo,001,23,
logos/1.jpg,properties1.xlsx,frogs/ab10.jpg,0,0,400,l,0,0,0,0,0,12,12,9,,,['l'],0,[2.782857201371371],2018_Jul_09_1239,59.9738993368,go-nogo,001,23,
logos/1.jpg,properties1.xlsx,frogs/ab34.jpg,0,0,400,l,0,0,0,0,0,13,13,33,,,['l'],0,[0.2010819138122315],2018_Jul_09_1239,59.9738993368,go-nogo,001,23,
logos/1.jpg,properties1.xlsx,frogs/ab72.jpg,0,0,400,l,0,0,0,0,0,14,14,70,,,['l'],0,[0.1678013165237644],2018_Jul_09_1239,59.9738993368,go-nogo,001,23,
logos/1.jpg,properties1.xlsx,frogs/ab26.jpg,0,0,400,l,0,0,0,0,0,15,15,25,,,['l'],0,[0.1510651600201527],2018_Jul_09_1239,59.9738993368,go-nogo,001,23,
logos/1.jpg,properties1.xlsx,frogs/ab61.jpg,0,0,400,l,0,0,0,0,0,16,16,59,,,['l'],0,[0.250802845128419],2018_Jul_09_1239,59.9738993368,go-nogo,001,23,
logos/1.jpg,properties1.xlsx,frogs/ab35.jpg,0,0,400,l,0,0,0,0,0,17,17,34,,,['l'],0,[1.182763675958995],2018_Jul_09_1239,59.9738993368,go-nogo,001,23,
logos/1.jpg,properties1.xlsx,frogs/ab40.jpg,0,0,400,l,0,0,0,0,0,18,18,39,,,['l'],0,[0.0011958054656133754],2018_Jul_09_1239,59.9738993368,go-nogo,001,23,
logos/1.jpg,properties1.xlsx,frogs/ab46.jpg,0,0,400,l,0,0,0,0,0,19,19,45,,,['l'],0,[0.06762786215404049],2018_Jul_09_1239,59.9738993368,go-nogo,001,23,
logos/1.jpg,properties1.xlsx,frogs/ab32.jpg,0,0,400,l,0,0,0,0,0,20,20,31,,,['l'],0,[1.1170933621415315],2018_Jul_09_1239,59.9738993368,go-nogo,001,23,
logos/1.jpg,properties1.xlsx,frogs/ab56.jpg,0,0,400,l,0,0,0,0,0,21,21,55,,,['l'],0,[0.21748071891670406],2018_Jul_09_1239,59.9738993368,go-nogo,001,23,
logos/1.jpg,properties1.xlsx,frogs/ab48.jpg,0,0,400,l,0,0,0,0,0,22,22,47,,,['l'],0,[0.6839233569480712],2018_Jul_09_1239,59.9738993368,go-nogo,001,23,
logos/1.jpg,properties1.xlsx,frogs/ab52.jpg,0,0,400,l,0,0,0,0,0,23,23,51,,,['l'],0,[0.7506785428013245],2018_Jul_09_1239,59.9738993368,go-nogo,001,23,
logos/1.jpg,properties1.xlsx,frogs/ab50.jpg,0,0,400,l,0,0,0,0,0,24,24,49,,,['l'],0,[0.3675326869597484],2018_Jul_09_1239,59.9738993368,go-nogo,001,23,
logos/1.jpg,properties1.xlsx,frogs/ab67.jpg,0,0,400,l,0,0,0,0,0,25,25,65,,,['l'],0,[0.4505797267174785],2018_Jul_09_1239,59.9738993368,go-nogo,001,23,
logos/1.jpg,properties1.xlsx,frogs/ab63.jpg,0,0,400,l,0,0,0,0,0,26,26,61,,,['l'],0,[0.3508522816173354],2018_Jul_09_1239,59.9738993368,go-nogo,001,23,
logos/1.jpg,properties1.xlsx,frogs/ab37.jpg,0,0,400,l,0,0,0,0,0,27,27,36,,,['l'],0,[0.31745733756361005],2018_Jul_09_1239,59.9738993368,go-nogo,001,23,
logos/1.jpg,properties1.xlsx,logos/1.jpg,0,0,400,a,0,0,0,0,0,28,28,84,,,['l'],0,[0.9507188201696408],2018_Jul_09_1239,59.9738993368,go-nogo,001,23,
logos/1.jpg,properties1.xlsx,frogs/ab74.jpg,0,0,400,l,0,0,0,0,0,29,29,72,,,['l'],0,[0.13435858576303872],2018_Jul_09_1239,59.9738993368,go-nogo,001,23,
logos/1.jpg,properties1.xlsx,frogs/ab18.jpg,0,0,400,l,0,0,0,0,0,30,30,17,,,['l'],0,[0.13423001676346757],2018_Jul_09_1239,59.9738993368,go-nogo,001,23,
logos/1.jpg,properties1.xlsx,frogs/ab25.jpg,0,0,400,l,0,0,0,0,0,31,31,24,,,['l'],0,[0.10106035290482396],2018_Jul_09_1239,59.9738993368,go-nogo,001,23,
logos/1.jpg,properties1.xlsx,frogs/ab38.jpg,0,0,400,l,0,0,0,0,0,32,32,37,,,['l'],0,[0.017815908535339986],2018_Jul_09_1239,59.9738993368,go-nogo,001,23,
logos/1.jpg,properties1.xlsx,logos/1.jpg,0,0,400,a,0,0,0,0,0,33,33,88,,,['a'],0,[0.43425999723513087],2018_Jul_09_1239,59.9738993368,go-nogo,001,23,
logos/1.jpg,properties1.xlsx,frogs/ab80.jpg,0,0,400,l,0,0,0,0,0,34,34,78,,,['a'],0,[0.11746143356685934],2018_Jul_09_1239,59.9738993368,go-nogo,001,23,
logos/1.jpg,properties1.xlsx,frogs/ab73.jpg,0,0,400,l,0,0,0,0,0,35,35,71,,,['l'],0,[0.034494607212764095],2018_Jul_09_1239,59.9738993368,go-nogo,001,23,
logos/1.jpg,properties1.xlsx,frogs/ab77.jpg,0,0,400,l,0,0,0,0,0,36,36,75,,,['l'],0,[0.05109707471456204],2018_Jul_09_1239,59.9738993368,go-nogo,001,23,
logos/1.jpg,properties1.xlsx,frogs/ab55.jpg,0,0,400,l,0,0,0,0,0,37,37,54,,,['l'],0,[0.8340424539401283],2018_Jul_09_1239,59.9738993368,go-nogo,001,23,
logos/1.jpg,properties1.xlsx,frogs/ab71.jpg,0,0,400,l,0,0,0,0,0,38,38,69,,,['l'],0,[0.001105920942791272],2018_Jul_09_1239,59.9738993368,go-nogo,001,23,
logos/1.jpg,properties1.xlsx,frogs/ab53.jpg,0,0,400,l,0,0,0,0,0,39,39,52,,,['l'],0,[0.017743659585903515],2018_Jul_09_1239,59.9738993368,go-nogo,001,23,
logos/1.jpg,properties1.xlsx,frogs/ab58.jpg,0,0,400,l,0,0,0,0,0,40,40,57,,,['l'],0,[0.08427697858314787],2018_Jul_09_1239,59.9738993368,go-nogo,001,23,
logos/1.jpg,properties1.xlsx,frogs/ab65.jpg,0,0,400,l,0,0,0,0,0,41,41,63,,,['l'],0,[0.41734748502676666],2018_Jul_09_1239,59.9738993368,go-nogo,001,23,
logos/1.jpg,properties1.xlsx,frogs/ab49.jpg,0,0,400,l,0,0,0,0,0,42,42,48,,,['l'],0,[0.3342520896712813],2018_Jul_09_1239,59.9738993368,go-nogo,001,23,
logos/1.jpg,properties1.xlsx,frogs/ab64.jpg,0,0,400,l,0,0,0,0,0,43,43,62,,,['l'],0,[0.3173902086164162],2018_Jul_09_1239,59.9738993368,go-nogo,001,23,
logos/1.jpg,properties1.xlsx,frogs/ab42.jpg,0,0,400,l,0,0,0,0,0,44,44,41,,,['l'],0,[0.3008941234293161],2018_Jul_09_1239,59.9738993368,go-nogo,001,23,
logos/1.jpg,properties1.xlsx,frogs/ab66.jpg,0,0,400,l,0,0,0,0,0,45,45,64,,,['l'],0,[0.3007228877268062],2018_Jul_09_1239,59.9738993368,go-nogo,001,23,
logos/1.jpg,properties1.xlsx,frogs/ab44.jpg,0,0,400,l,0,0,0,0,0,46,46,43,,,['l'],0,[0.31745449311711127],2018_Jul_09_1239,59.9738993368,go-nogo,001,23,
logos/1.jpg,properties1.xlsx,frogs/ab14.jpg,0,0,400,l,0,0,0,0,0,47,47,13,,,['l'],0,[0.2841164380006376],2018_Jul_09_1239,59.9738993368,go-nogo,001,23,
logos/1.jpg,properties1.xlsx,frogs/ab2.jpg,0,0,400,l,0,0,0,0,0,48,48,1,,,['l'],0,[0.3340091739100899],2018_Jul_09_1239,59.9738993368,go-nogo,001,23,
logos/1.jpg,properties1.xlsx,frogs/ab39.jpg,0,0,400,l,0,0,0,0,0,49,49,38,,,['l'],0,[0.2676066994681605],2018_Jul_09_1239,59.9738993368,go-nogo,001,23,
logos/1.jpg,properties1.xlsx,frogs/ab54.jpg,0,0,400,l,0,0,0,0,0,50,50,53,,,['l'],0,[0.2675452594157832],2018_Jul_09_1239,59.9738993368,go-nogo,001,23,
logos/1.jpg,properties1.xlsx,frogs/ab16.jpg,0,0,400,l,0,0,0,0,0,51,51,15,,,['l'],0,[0.28437642044627864],2018_Jul_09_1239,59.9738993368,go-nogo,001,23,
logos/1.jpg,properties1.xlsx,logos/1.jpg,0,0,400,a,0,0,0,0,0,52,52,83,,,['a'],0,[0.10097957061407214],2018_Jul_09_1239,59.9738993368,go-nogo,001,23,
logos/1.jpg,properties1.xlsx,logos/1.jpg,0,0,400,a,0,0,0,0,0,53,53,87,,,['a'],0,[0.6003324589510157],2018_Jul_09_1239,59.9738993368,go-nogo,001,23,
logos/1.jpg,properties1.xlsx,frogs/ab5.jpg,0,0,400,l,0,0,0,0,0,54,54,4,,,['l'],0,[0.18441573070231243],2018_Jul_09_1239,59.9738993368,go-nogo,001,23,
logos/1.jpg,properties1.xlsx,logos/1.jpg,0,0,400,a,0,0,0,0,0,55,55,85,,,['a'],0,[0.36744450910919113],2018_Jul_09_1239,59.9738993368,go-nogo,001,23,
logos/1.jpg,properties1.xlsx,frogs/ab19.jpg,0,0,400,l,0,0,0,0,0,56,56,18,,,['l'],0,[0.10088399719825247],2018_Jul_09_1239,59.9738993368,go-nogo,001,23,
logos/1.jpg,properties1.xlsx,frogs/ab75.jpg,0,0,400,l,0,0,0,0,0,57,57,73,,,['l'],0,[0.13448431031611108],2018_Jul_09_1239,59.9738993368,go-nogo,001,23,
logos/1.jpg,properties1.xlsx,frogs/ab17.jpg,0,0,400,l,0,0,0,0,0,58,58,16,,,['l'],0,[0.5186883003916591],2018_Jul_09_1239,59.9738993368,go-nogo,001,23,
logos/1.jpg,properties1.xlsx,frogs/ab27.jpg,0,0,400,l,0,0,0,0,0,59,59,26,,,['l'],0,[0.017733988466716255],2018_Jul_09_1239,59.9738993368,go-nogo,001,23,
logos/1.jpg,properties1.xlsx,frogs/ab79.jpg,0,0,400,l,0,0,0,0,0,60,60,77,,,['l'],0,[0.5509124701129622],2018_Jul_09_1239,59.9738993368,go-nogo,001,23,
logos/1.jpg,properties1.xlsx,frogs/ab33.jpg,0,0,400,l,0,0,0,0,0,61,61,32,,,['l'],0,[0.001106489831727231],2018_Jul_09_1239,59.9738993368,go-nogo,001,23,
logos/1.jpg,properties1.xlsx,frogs/ab51.jpg,0,0,400,l,0,0,0,0,0,62,62,50,,,['l'],0,[0.5174845304754854],2018_Jul_09_1239,59.9738993368,go-nogo,001,23,
logos/1.jpg,properties1.xlsx,frogs/ab45.jpg,0,0,400,l,0,0,0,0,0,63,63,44,,,['l'],0,[0.36736770904099103],2018_Jul_09_1239,59.9738993368,go-nogo,001,23,
logos/1.jpg,properties1.xlsx,frogs/ab28.jpg,0,0,400,l,0,0,0,0,0,64,64,27,,,['l'],0,[0.3168093725653307],2018_Jul_09_1239,59.9738993368,go-nogo,001,23,
logos/1.jpg,properties1.xlsx,frogs/ab57.jpg,0,0,400,l,0,0,0,0,0,65,65,56,,,['l'],0,[0.28356859753330355],2018_Jul_09_1239,59.9738993368,go-nogo,001,23,
logos/1.jpg,properties1.xlsx,frogs/ab76.jpg,0,0,400,l,0,0,0,0,0,66,66,74,,,['l'],0,[0.05092868345855095],2018_Jul_09_1239,59.9738993368,go-nogo,001,23,
logos/1.jpg,properties1.xlsx,frogs/ab62.jpg,0,0,400,l,0,0,0,0,0,67,67,60,,,['l'],0,[0.4341809216130059],2018_Jul_09_1239,59.9738993368,go-nogo,001,23,
logos/1.jpg,properties1.xlsx,frogs/ab43.jpg,0,0,400,l,0,0,0,0,0,68,68,42,,,['l'],0,[0.3340427383827773],2018_Jul_09_1239,59.9738993368,go-nogo,001,23,
logos/1.jpg,properties1.xlsx,logos/1.jpg,0,0,400,a,0,0,0,0,0,69,69,82,,,['a'],0,[0.26683585436694557],2018_Jul_09_1239,59.9738993368,go-nogo,001,23,
logos/1.jpg,properties1.xlsx,frogs/ab1.jpg,0,0,400,l,0,0,0,0,0,70,70,0,,,['l'],0,[0.15094000435783528],2018_Jul_09_1239,59.9738993368,go-nogo,001,23,
logos/1.jpg,properties1.xlsx,logos/1.jpg,0,0,400,a,0,0,0,0,0,71,71,80,,,['a'],0,[0.11768671375830309],2018_Jul_09_1239,59.9738993368,go-nogo,001,23,
logos/1.jpg,properties1.xlsx,frogs/ab69.jpg,0,0,400,l,0,0,0,0,0,72,72,67,,,['l'],0,[0.5176187883680541],2018_Jul_09_1239,59.9738993368,go-nogo,001,23,
logos/1.jpg,properties1.xlsx,frogs/ab30.jpg,0,0,400,l,0,0,0,0,0,73,73,29,,,['l'],0,[0.43423439721300383],2018_Jul_09_1239,59.9738993368,go-nogo,001,23,
logos/1.jpg,properties1.xlsx,frogs/ab24.jpg,0,0,400,l,0,0,0,0,0,74,74,23,,,['l'],0,[0.3829336601047544],2018_Jul_09_1239,59.9738993368,go-nogo,001,23,
logos/1.jpg,properties1.xlsx,frogs/ab20.jpg,0,0,400,l,0,0,0,0,0,75,75,19,,,['l'],0,[0.10092495723438333],2018_Jul_09_1239,59.9738993368,go-nogo,001,23,
logos/1.jpg,properties1.xlsx,frogs/ab21.jpg,0,0,400,l,0,0,0,0,0,76,76,20,,,['l'],0,[0.0184564779719949],2018_Jul_09_1239,59.9738993368,go-nogo,001,23,
logos/1.jpg,properties1.xlsx,frogs/ab68.jpg,0,0,400,l,0,0,0,0,0,77,77,66,,,['l'],0,[0.08426446301564283],2018_Jul_09_1239,59.9738993368,go-nogo,001,23,
logos/1.jpg,properties1.xlsx,frogs/ab81.jpg,0,0,400,l,0,0,0,0,0,78,78,79,,,['l'],0,[0.1343181946176628],2018_Jul_09_1239,59.9738993368,go-nogo,001,23,
logos/1.jpg,properties1.xlsx,frogs/ab36.jpg,0,0,400,l,0,0,0,0,0,79,79,35,,,['l'],0,[0.7173558476988546],2018_Jul_09_1239,59.9738993368,go-nogo,001,23,
logos/1.jpg,properties1.xlsx,frogs/ab9.jpg,0,0,400,l,0,0,0,0,0,80,80,8,,,['l'],0,[0.017602006131710368],2018_Jul_09_1239,59.9738993368,go-nogo,001,23,
logos/1.jpg,properties1.xlsx,frogs/ab6.jpg,0,0,400,l,0,0,0,0,0,81,81,5,,,['l'],0,[0.15095763992758293],2018_Jul_09_1239,59.9738993368,go-nogo,001,23,
logos/1.jpg,properties1.xlsx,logos/1.jpg,0,0,400,a,0,0,0,0,0,82,82,81,,,['a'],0,[0.1175558692029881],2018_Jul_09_1239,59.9738993368,go-nogo,001,23,
logos/1.jpg,properties1.xlsx,logos/1.jpg,0,0,400,a,0,0,0,0,0,83,83,86,,,['a'],0,[0.06761193325110071],2018_Jul_09_1239,59.9738993368,go-nogo,001,23,
logos/1.jpg,properties1.xlsx,frogs/ab13.jpg,0,0,400,l,0,0,0,0,0,84,84,12,,,['l'],0,[0.0009864541752904188],2018_Jul_09_1239,59.9738993368,go-nogo,001,23,
logos/1.jpg,properties1.xlsx,frogs/ab11.jpg,0,0,400,l,0,0,0,0,0,85,85,10,,,['l'],0,[0.08438563645358954],2018_Jul_09_1239,59.9738993368,go-nogo,001,23,
logos/1.jpg,properties1.xlsx,frogs/ab78.jpg,0,0,400,l,0,0,0,0,0,86,86,76,,,['l'],0,[0.017594610568266944],2018_Jul_09_1239,59.9738993368,go-nogo,001,23,
logos/1.jpg,properties1.xlsx,frogs/ab22.jpg,0,0,400,l,0,0,0,0,0,87,87,21,,,['l'],0,[0.883918123165131],2018_Jul_09_1239,59.9738993368,go-nogo,001,23,
logos/1.jpg,properties1.xlsx,frogs/ab60.jpg,0,0,400,l,0,0,0,0,0,88,88,58,,,['l'],0,[0.6341819456119993],2018_Jul_09_1239,59.9738993368,go-nogo,001,23,
logos/1.jpg,properties1.xlsx,frogs/ab15.jpg,0,0,400,l,0,0,0,0,0,89,89,14,,,['l'],0,[0.3006358476541209],2018_Jul_09_1239,59.9738993368,go-nogo,001,23,
logos/1.jpg,properties1.xlsx,,,,,,0,0,0,0,,,,,,,,,,2018_Jul_09_1239,59.9738993368,go-nogo,001,23,
logos/3.jpg,properties3.xlsx,frogs/ab15.jpg,0,0,400,l,0,1,1,2,0,0,0,14,space,9.62170620163,['l'],0,[0.18435941065217776],2018_Jul_09_1239,59.9738993368,go-nogo,001,23,
logos/3.jpg,properties3.xlsx,frogs/ab50.jpg,0,0,400,l,0,1,1,2,0,1,1,49,,,['l'],0,[0.0011224187364859972],2018_Jul_09_1239,59.9738993368,go-nogo,001,23,
logos/3.jpg,properties3.xlsx,frogs/ab46.jpg,0,0,400,l,0,1,1,2,0,2,2,45,,,['l'],0,[0.0010331031044188421],2018_Jul_09_1239,59.9738993368,go-nogo,001,23,
logos/3.jpg,properties3.xlsx,frogs/ab69.jpg,0,0,400,l,0,1,1,2,0,3,3,67,,,['l'],0,[1.7502729246771196],2018_Jul_09_1239,59.9738993368,go-nogo,001,23,
logos/3.jpg,properties3.xlsx,frogs/ab1.jpg,0,0,400,l,0,1,1,2,0,4,4,0,,,['l'],0,[0.31767806664174714],2018_Jul_09_1239,59.9738993368,go-nogo,001,23,
logos/3.jpg,properties3.xlsx,frogs/ab72.jpg,0,0,400,l,0,1,1,2,0,5,5,70,,,['l'],0,[0.35085967717895983],2018_Jul_09_1239,59.9738993368,go-nogo,001,23,
logos/3.jpg,properties3.xlsx,frogs/ab22.jpg,0,0,400,l,0,1,1,2,0,6,6,21,,,['l'],0,[0.017623623927647714],2018_Jul_09_1239,59.9738993368,go-nogo,001,23,
logos/3.jpg,properties3.xlsx,frogs/ab52.jpg,0,0,400,l,0,1,1,2,0,7,7,51,,,['l'],0,[0.051351368265386554],2018_Jul_09_1239,59.9738993368,go-nogo,001,23,
logos/3.jpg,properties3.xlsx,frogs/ab4.jpg,0,0,400,l,0,1,1,2,0,8,8,3,,,['l'],0,[0.051027670211624354],2018_Jul_09_1239,59.9738993368,go-nogo,001,23,
logos/3.jpg,properties3.xlsx,frogs/ab40.jpg,0,0,400,l,0,1,1,2,0,9,9,39,,,['l'],0,[0.01773228179808939],2018_Jul_09_1239,59.9738993368,go-nogo,001,23,
logos/3.jpg,properties3.xlsx,frogs/ab62.jpg,0,0,400,l,0,1,1,2,0,10,10,60,,,['l'],0,[0.0011696365545503795],2018_Jul_09_1239,59.9738993368,go-nogo,001,23,
logos/3.jpg,properties3.xlsx,frogs/ab43.jpg,0,0,400,l,0,1,1,2,0,11,11,42,,,['l'],0,[0.5175084238289855],2018_Jul_09_1239,59.9738993368,go-nogo,001,23,
logos/3.jpg,properties3.xlsx,frogs/ab28.jpg,0,0,400,l,0,1,1,2,0,12,12,27,,,['l'],0,[0.46741145663690986],2018_Jul_09_1239,59.9738993368,go-nogo,001,23,
logos/3.jpg,properties3.xlsx,frogs/ab17.jpg,0,0,400,l,0,1,1,2,0,13,13,16,,,['l'],0,[0.3341798407236638],2018_Jul_09_1239,59.9738993368,go-nogo,001,23,
logos/3.jpg,properties3.xlsx,frogs/ab16.jpg,0,0,400,l,0,1,1,2,0,14,14,15,,,['l'],0,[0.3009396345805726],2018_Jul_09_1239,59.9738993368,go-nogo,001,23,
logos/3.jpg,properties3.xlsx,frogs/ab63.jpg,0,0,400,l,0,1,1,2,0,15,15,61,,,['l'],0,[0.2842899492607103],2018_Jul_09_1239,59.9738993368,go-nogo,001,23,
logos/3.jpg,properties3.xlsx,frogs/ab48.jpg,0,0,400,l,0,1,1,2,0,16,16,47,,,['l'],0,[0.33410247176652774],2018_Jul_09_1239,59.9738993368,go-nogo,001,23,
logos/3.jpg,properties3.xlsx,logos/3.jpg,0,0,400,a,0,1,1,2,0,17,17,88,,,['a'],0,[0.36744450910737214],2018_Jul_09_1239,59.9738993368,go-nogo,001,23,
logos/3.jpg,properties3.xlsx,frogs/ab51.jpg,0,0,400,l,0,1,1,2,0,18,18,50,,,['l'],0,[0.3508795883062703],2018_Jul_09_1239,59.9738993368,go-nogo,001,23,
logos/3.jpg,properties3.xlsx,frogs/ab60.jpg,0,0,400,l,0,1,1,2,0,19,19,58,,,['l'],0,[0.3006944432599994],2018_Jul_09_1239,59.9738993368,go-nogo,001,23,
logos/3.jpg,properties3.xlsx,frogs/ab70.jpg,0,0,400,l,0,1,1,2,0,20,20,68,,,['l'],0,[0.3510678906895919],2018_Jul_09_1239,59.9738993368,go-nogo,001,23,
logos/3.jpg,properties3.xlsx,frogs/ab74.jpg,0,0,400,l,0,1,1,2,0,21,21,72,,,['l'],0,[0.31755803098349134],2018_Jul_09_1239,59.9738993368,go-nogo,001,23,
logos/3.jpg,properties3.xlsx,frogs/ab76.jpg,0,0,400,l,0,1,1,2,0,22,22,74,,,['l'],0,[0.3176786355306831],2018_Jul_09_1239,59.9738993368,go-nogo,001,23,
logos/3.jpg,properties3.xlsx,frogs/ab33.jpg,0,0,400,l,0,1,1,2,0,23,23,32,,,['l'],0,[0.3176092310259264],2018_Jul_09_1239,59.9738993368,go-nogo,001,23,
logos/3.jpg,properties3.xlsx,frogs/ab32.jpg,0,0,400,l,0,1,1,2,0,24,24,31,,,['l'],0,[0.31675817252107663],2018_Jul_09_1239,59.9738993368,go-nogo,001,23,
logos/3.jpg,properties3.xlsx,frogs/ab24.jpg,0,0,400,l,0,1,1,2,0,25,25,23,,,['l'],0,[0.30018187393397966],2018_Jul_09_1239,59.9738993368,go-nogo,001,23,
logos/3.jpg,properties3.xlsx,frogs/ab54.jpg,0,0,400,l,0,1,1,2,0,26,26,53,,,['l'],0,[0.3001357938937872],2018_Jul_09_1239,59.9738993368,go-nogo,001,23,
logos/3.jpg,properties3.xlsx,frogs/ab14.jpg,0,0,400,l,0,1,1,2,0,27,27,13,,,['l'],0,[0.3342048718550359],2018_Jul_09_1239,59.9738993368,go-nogo,001,23,
logos/3.jpg,properties3.xlsx,frogs/ab80.jpg,0,0,400,l,0,1,1,2,0,28,28,78,,,['l'],0,[0.3345661166076752],2018_Jul_09_1239,59.9738993368,go-nogo,001,23,
logos/3.jpg,properties3.xlsx,logos/3.jpg,0,0,400,a,0,1,1,2,0,29,29,83,,,['a'],0,[0.06779625340823259],2018_Jul_09_1239,59.9738993368,go-nogo,001,23,
logos/3.jpg,properties3.xlsx,frogs/ab39.jpg,0,0,400,l,0,1,1,2,0,30,30,38,,,['l'],0,[0.101033615104825],2018_Jul_09_1239,59.9738993368,go-nogo,001,23,
logos/3.jpg,properties3.xlsx,frogs/ab41.jpg,0,0,400,l,0,1,1,2,0,31,31,40,,,['l'],0,[0.1174802069162979],2018_Jul_09_1239,59.9738993368,go-nogo,001,23,
logos/3.jpg,properties3.xlsx,frogs/ab25.jpg,0,0,400,l,0,1,1,2,0,32,32,24,,,['l'],0,[0.05075915442648693],2018_Jul_09_1239,59.9738993368,go-nogo,001,23,
logos/3.jpg,properties3.xlsx,frogs/ab21.jpg,0,0,400,l,0,1,1,2,0,33,33,20,,,['l'],0,[0.017609970582270762],2018_Jul_09_1239,59.9738993368,go-nogo,001,23,
logos/3.jpg,properties3.xlsx,logos/3.jpg,0,0,400,a,0,1,1,2,0,34,34,81,,,['a'],0,[0.10097160616169276],2018_Jul_09_1239,59.9738993368,go-nogo,001,23,
logos/3.jpg,properties3.xlsx,frogs/ab6.jpg,0,0,400,l,0,1,1,2,0,35,35,5,,,['l'],0,[0.001103645387047436],2018_Jul_09_1239,59.9738993368,go-nogo,001,23,
logos/3.jpg,properties3.xlsx,frogs/ab18.jpg,0,0,400,l,0,1,1,2,0,36,36,17,,,['l'],0,[0.11776294493392925],2018_Jul_09_1239,59.9738993368,go-nogo,001,23,
logos/3.jpg,properties3.xlsx,frogs/ab38.jpg,0,0,400,l,0,1,1,2,0,37,37,37,,,['l'],0,[0.0509867101754935],2018_Jul_09_1239,59.9738993368,go-nogo,001,23,
logos/3.jpg,properties3.xlsx,frogs/ab27.jpg,0,0,400,l,0,1,1,2,0,38,38,26,,,['l'],0,[0.06768475109129213],2018_Jul_09_1239,59.9738993368,go-nogo,001,23,
logos/3.jpg,properties3.xlsx,frogs/ab12.jpg,0,0,400,l,0,1,1,2,0,39,39,11,,,['l'],0,[0.034170909159001894],2018_Jul_09_1239,59.9738993368,go-nogo,001,23,
logos/3.jpg,properties3.xlsx,frogs/ab10.jpg,0,0,400,l,0,1,1,2,0,40,40,9,,,['l'],0,[0.4504898421946564],2018_Jul_09_1239,59.9738993368,go-nogo,001,23,
logos/3.jpg,properties3.xlsx,frogs/ab13.jpg,0,0,400,l,0,1,1,2,0,41,41,12,,,['l'],0,[0.06777577339016716],2018_Jul_09_1239,59.9738993368,go-nogo,001,23,
logos/3.jpg,properties3.xlsx,frogs/ab56.jpg,0,0,400,l,0,1,1,2,0,42,42,55,,,['l'],0,[0.11802804738363193],2018_Jul_09_1239,59.9738993368,go-nogo,001,23,
logos/3.jpg,properties3.xlsx,logos/3.jpg,0,0,400,a,0,1,1,2,0,43,43,89,,,['l'],0,[1.067073195014018],2018_Jul_09_1239,59.9738993368,go-nogo,001,23,
logos/3.jpg,properties3.xlsx,frogs/ab77.jpg,0,0,400,l,0,1,1,2,0,44,44,75,,,['l'],0,[0.46733465657052875],2018_Jul_09_1239,59.9738993368,go-nogo,001,23,
logos/3.jpg,properties3.xlsx,frogs/ab61.jpg,0,0,400,l,0,1,1,2,0,45,45,59,,,['l'],0,[0.16764657861313026],2018_Jul_09_1239,59.9738993368,go-nogo,001,23,
logos/3.jpg,properties3.xlsx,logos/3.jpg,0,0,400,a,0,1,1,2,0,46,46,86,,,['a'],0,[0.7173854299471714],2018_Jul_09_1239,59.9738993368,go-nogo,001,23,
logos/3.jpg,properties3.xlsx,frogs/ab68.jpg,0,0,400,l,0,1,1,2,0,47,47,66,,,['l'],0,[0.0011207120660401415],2018_Jul_09_1239,59.9738993368,go-nogo,001,23,
logos/3.jpg,properties3.xlsx,frogs/ab79.jpg,0,0,400,l,0,1,1,2,0,48,48,77,,,['l'],0,[0.08517753046362486],2018_Jul_09_1239,59.9738993368,go-nogo,001,23,
logos/3.jpg,properties3.xlsx,frogs/ab81.jpg,0,0,400,l,0,1,1,2,0,49,49,79,,,['l'],0,[0.13408381219596777],2018_Jul_09_1239,59.9738993368,go-nogo,001,23,
logos/3.jpg,properties3.xlsx,frogs/ab45.jpg,0,0,400,l,0,1,1,2,0,50,50,44,,,['l'],0,[0.1842399438846769],2018_Jul_09_1239,59.9738993368,go-nogo,001,23,
logos/3.jpg,properties3.xlsx,frogs/ab64.jpg,0,0,400,l,0,1,1,2,0,51,51,62,,,['l'],0,[0.01760655724683602],2018_Jul_09_1239,59.9738993368,go-nogo,001,23,
logos/3.jpg,properties3.xlsx,frogs/ab58.jpg,0,0,400,l,0,1,1,2,0,52,52,57,,,['l'],0,[0.06770579999647452],2018_Jul_09_1239,59.9738993368,go-nogo,001,23,
logos/3.jpg,properties3.xlsx,logos/3.jpg,0,0,400,a,0,1,1,2,0,53,53,87,,,['a'],0,[0.40080702646628197],2018_Jul_09_1239,59.9738993368,go-nogo,001,23,
logos/3.jpg,properties3.xlsx,frogs/ab23.jpg,0,0,400,l,0,1,1,2,0,54,54,22,,,['l'],0,[0.033576419762539444],2018_Jul_09_1239,59.9738993368,go-nogo,001,23,
logos/3.jpg,properties3.xlsx,frogs/ab75.jpg,0,0,400,l,0,1,1,2,0,55,55,73,,,['l'],0,[0.5007375650729955],2018_Jul_09_1239,59.9738993368,go-nogo,001,23,
logos/3.jpg,properties3.xlsx,frogs/ab20.jpg,0,0,400,l,0,1,1,2,0,56,56,19,,,['l'],0,[0.051104470276186476],2018_Jul_09_1239,59.9738993368,go-nogo,001,23,
logos/3.jpg,properties3.xlsx,frogs/ab42.jpg,0,0,400,l,0,1,1,2,0,57,57,41,,,['l'],0,[0.38427055013198697],2018_Jul_09_1239,59.9738993368,go-nogo,001,23,
logos/3.jpg,properties3.xlsx,frogs/ab65.jpg,0,0,400,l,0,1,1,2,0,58,58,63,,,['l'],0,[0.30104886133995024],2018_Jul_09_1239,59.9738993368,go-nogo,001,23,
logos/3.jpg,properties3.xlsx,frogs/ab66.jpg,0,0,400,l,0,1,1,2,0,59,59,64,,,['l'],0,[0.3334306134147482],2018_Jul_09_1239,59.9738993368,go-nogo,001,23,
logos/3.jpg,properties3.xlsx,frogs/ab35.jpg,0,0,400,l,0,1,1,2,0,60,60,34,,,['l'],0,[0.41745500511569844],2018_Jul_09_1239,59.9738993368,go-nogo,001,23,
logos/3.jpg,properties3.xlsx,frogs/ab9.jpg,0,0,400,l,0,1,1,2,0,61,61,8,,,['l'],0,[0.28439860713115195],2018_Jul_09_1239,59.9738993368,go-nogo,001,23,
logos/3.jpg,properties3.xlsx,frogs/ab49.jpg,0,0,400,l,0,1,1,2,0,62,62,48,,,['l'],0,[0.3019147109680489],2018_Jul_09_1239,59.9738993368,go-nogo,001,23,
logos/3.jpg,properties3.xlsx,frogs/ab36.jpg,0,0,400,l,0,1,1,2,0,63,63,35,,,['l'],0,[0.36755771809293947],2018_Jul_09_1239,59.9738993368,go-nogo,001,23,
logos/3.jpg,properties3.xlsx,frogs/ab26.jpg,0,0,400,l,0,1,1,2,0,64,64,25,,,['l'],0,[0.3004191008021735],2018_Jul_09_1239,59.9738993368,go-nogo,001,23,
logos/3.jpg,properties3.xlsx,frogs/ab57.jpg,0,0,400,l,0,1,1,2,0,65,65,56,,,['l'],0,[0.3008850211990648],2018_Jul_09_1239,59.9738993368,go-nogo,001,23,
logos/3.jpg,properties3.xlsx,frogs/ab47.jpg,0,0,400,l,0,1,1,2,0,66,66,46,,,['l'],0,[0.3355099040800269],2018_Jul_09_1239,59.9738993368,go-nogo,001,23,
logos/3.jpg,properties3.xlsx,frogs/ab30.jpg,0,0,400,l,0,1,1,2,0,67,67,29,,,['l'],0,[0.28359874867055623],2018_Jul_09_1239,59.9738993368,go-nogo,001,23,
logos/3.jpg,properties3.xlsx,frogs/ab44.jpg,0,0,400,l,0,1,1,2,0,68,68,43,,,['l'],0,[0.3007450744134985],2018_Jul_09_1239,59.9738993368,go-nogo,001,23,
logos/3.jpg,properties3.xlsx,logos/3.jpg,0,0,400,a,0,1,1,2,0,69,69,85,,,['a'],0,[0.116904490871093],2018_Jul_09_1239,59.9738993368,go-nogo,001,23,
logos/3.jpg,properties3.xlsx,frogs/ab73.jpg,0,0,400,l,0,1,1,2,0,70,70,71,,,['l'],0,[0.16674375117690943],2018_Jul_09_1239,59.9738993368,go-nogo,001,23,
logos/3.jpg,properties3.xlsx,logos/3.jpg,0,0,400,a,0,1,1,2,0,71,71,82,,,['a'],0,[0.0011064898335462203],2018_Jul_09_1239,59.9738993368,go-nogo,001,23,
logos/3.jpg,properties3.xlsx,frogs/ab8.jpg,0,0,400,l,0,1,1,2,0,72,72,7,,,['l'],0,[0.4009998799647292],2018_Jul_09_1239,59.9738993368,go-nogo,001,23,
logos/3.jpg,properties3.xlsx,frogs/ab78.jpg,0,0,400,l,0,1,1,2,0,73,73,76,,,['l'],0,[0.11770093599443499],2018_Jul_09_1239,59.9738993368,go-nogo,001,23,
logos/3.jpg,properties3.xlsx,frogs/ab3.jpg,0,0,400,l,0,1,1,2,0,74,74,2,,,['l'],0,[0.1342869057025382],2018_Jul_09_1239,59.9738993368,go-nogo,001,23,
logos/3.jpg,properties3.xlsx,frogs/ab31.jpg,0,0,400,l,0,1,1,2,0,75,75,30,,,['l'],0,[0.10090732166281668],2018_Jul_09_1239,59.9738993368,go-nogo,001,23,
logos/3.jpg,properties3.xlsx,frogs/ab53.jpg,0,0,400,l,0,1,1,2,0,76,76,52,,,['l'],0,[0.3009254123444407],2018_Jul_09_1239,59.9738993368,go-nogo,001,23,
logos/3.jpg,properties3.xlsx,frogs/ab2.jpg,0,0,400,l,0,1,1,2,0,77,77,1,,,['l'],0,[0.45067416235178825],2018_Jul_09_1239,59.9738993368,go-nogo,001,23,
logos/3.jpg,properties3.xlsx,frogs/ab37.jpg,0,0,400,l,0,1,1,2,0,78,78,36,,,['l'],0,[0.03438424267551454],2018_Jul_09_1239,59.9738993368,go-nogo,001,23,
logos/3.jpg,properties3.xlsx,logos/3.jpg,0,0,400,a,0,1,1,2,0,79,79,80,,,['a'],0,[0.05091332344636612],2018_Jul_09_1239,59.9738993368,go-nogo,001,23,
logos/3.jpg,properties3.xlsx,frogs/ab34.jpg,0,0,400,l,0,1,1,2,0,80,80,33,,,['l'],0,[0.08435207198090211],2018_Jul_09_1239,59.9738993368,go-nogo,001,23,
logos/3.jpg,properties3.xlsx,frogs/ab67.jpg,0,0,400,l,0,1,1,2,0,81,81,65,,,['l'],0,[0.10106205957345082],2018_Jul_09_1239,59.9738993368,go-nogo,001,23,
logos/3.jpg,properties3.xlsx,logos/3.jpg,0,0,400,a,0,1,1,2,0,82,82,84,,,['a'],0,[0.5509608257088985],2018_Jul_09_1239,59.9738993368,go-nogo,001,23,
logos/3.jpg,properties3.xlsx,frogs/ab7.jpg,0,0,400,l,0,1,1,2,0,83,83,6,,,['l'],0,[0.35086707274058426],2018_Jul_09_1239,59.9738993368,go-nogo,001,23,
logos/3.jpg,properties3.xlsx,frogs/ab11.jpg,0,0,400,l,0,1,1,2,0,84,84,10,,,['l'],0,[0.31745733756361005],2018_Jul_09_1239,59.9738993368,go-nogo,001,23,
logos/3.jpg,properties3.xlsx,frogs/ab5.jpg,0,0,400,l,0,1,1,2,0,85,85,4,,,['l'],0,[0.03412141578337469],2018_Jul_09_1239,59.9738993368,go-nogo,001,23,
logos/3.jpg,properties3.xlsx,frogs/ab71.jpg,0,0,400,l,0,1,1,2,0,86,86,69,,,['l'],0,[0.06740827085377532],2018_Jul_09_1239,59.9738993368,go-nogo,001,23,
logos/3.jpg,properties3.xlsx,frogs/ab29.jpg,0,0,400,l,0,1,1,2,0,87,87,28,,,['l'],0,[0.38413231001504755],2018_Jul_09_1239,59.9738993368,go-nogo,001,23,
logos/3.jpg,properties3.xlsx,frogs/ab55.jpg,0,0,400,l,0,1,1,2,0,88,88,54,,,['l'],0,[0.3009982301846321],2018_Jul_09_1239,59.9738993368,go-nogo,001,23,
logos/3.jpg,properties3.xlsx,frogs/ab19.jpg,0,0,400,l,0,1,1,2,0,89,89,18,,,['l'],0,[0.101033615104825],2018_Jul_09_1239,59.9738993368,go-nogo,001,23,
logos/3.jpg,properties3.xlsx,,,,,,0,1,1,2,,,,,,,,,,2018_Jul_09_1239,59.9738993368,go-nogo,001,23,
logos/4.jpg,properties4.xlsx,frogs/ab12.jpg,0,0,400,l,0,2,2,3,0,0,0,11,space,4.67727702239,['l'],0,[0.2835811131008086],2018_Jul_09_1239,59.9738993368,go-nogo,001,23,
logos/4.jpg,properties4.xlsx,frogs/ab15.jpg,0,0,400,l,0,2,2,3,0,1,1,14,,,['l'],0,[0.2842006336286431],2018_Jul_09_1239,59.9738993368,go-nogo,001,23,
logos/4.jpg,properties4.xlsx,frogs/ab45.jpg,0,0,400,l,0,2,2,3,0,2,2,44,,,['l'],0,[0.25050417820784787],2018_Jul_09_1239,59.9738993368,go-nogo,001,23,
logos/4.jpg,properties4.xlsx,frogs/ab35.jpg,0,0,400,l,0,2,2,3,0,3,3,34,,,['l'],0,[0.23436876888445113],2018_Jul_09_1239,59.9738993368,go-nogo,001,23,
logos/4.jpg,properties4.xlsx,frogs/ab39.jpg,0,0,400,l,0,2,2,3,0,4,4,38,,,['l'],0,[0.26747301046634675],2018_Jul_09_1239,59.9738993368,go-nogo,001,23,
logos/4.jpg,properties4.xlsx,frogs/ab34.jpg,0,0,400,l,0,2,2,3,0,5,5,33,,,['l'],0,[0.2509382408006786],2018_Jul_09_1239,59.9738993368,go-nogo,001,23,
logos/4.jpg,properties4.xlsx,frogs/ab67.jpg,0,0,400,l,0,2,2,3,0,6,6,65,,,['l'],0,[0.2674986104884738],2018_Jul_09_1239,59.9738993368,go-nogo,001,23,
logos/4.jpg,properties4.xlsx,logos/4.jpg,0,0,400,a,0,2,2,3,0,7,7,85,,,['a'],0,[0.334660552241985],2018_Jul_09_1239,59.9738993368,go-nogo,001,23,
logos/4.jpg,properties4.xlsx,frogs/ab27.jpg,0,0,400,l,0,2,2,3,0,8,8,26,,,['a'],0,[0.4339812414418702],2018_Jul_09_1239,59.9738993368,go-nogo,001,23,
logos/4.jpg,properties4.xlsx,frogs/ab75.jpg,0,0,400,l,0,2,2,3,0,9,9,73,,,['l'],0,[0.30097433683113195],2018_Jul_09_1239,59.9738993368,go-nogo,001,23,
logos/4.jpg,properties4.xlsx,frogs/ab17.jpg,0,0,400,l,0,2,2,3,0,10,10,16,,,['l'],0,[0.28423533588102146],2018_Jul_09_1239,59.9738993368,go-nogo,001,23,
logos/4.jpg,properties4.xlsx,frogs/ab28.jpg,0,0,400,l,0,2,2,3,0,11,11,27,,,['l'],0,[0.26761011280541425],2018_Jul_09_1239,59.9738993368,go-nogo,001,23,
logos/4.jpg,properties4.xlsx,frogs/ab20.jpg,0,0,400,l,0,2,2,3,0,12,12,19,,,['l'],0,[0.30203019550936006],2018_Jul_09_1239,59.9738993368,go-nogo,001,23,
logos/4.jpg,properties4.xlsx,frogs/ab40.jpg,0,0,400,l,0,2,2,3,0,13,13,39,,,['l'],0,[0.30057099426448985],2018_Jul_09_1239,59.9738993368,go-nogo,001,23,
logos/4.jpg,properties4.xlsx,frogs/ab11.jpg,0,0,400,l,0,2,2,3,0,14,14,10,,,['l'],0,[0.3674081001881859],2018_Jul_09_1239,59.9738993368,go-nogo,001,23,
logos/4.jpg,properties4.xlsx,frogs/ab66.jpg,0,0,400,l,0,2,2,3,0,15,15,64,,,['l'],0,[0.3181337470305152],2018_Jul_09_1239,59.9738993368,go-nogo,001,23,
logos/4.jpg,properties4.xlsx,frogs/ab26.jpg,0,0,400,l,0,2,2,3,0,16,16,25,,,['l'],0,[0.33424810744872957],2018_Jul_09_1239,59.9738993368,go-nogo,001,23,
logos/4.jpg,properties4.xlsx,logos/4.jpg,0,0,400,a,0,2,2,3,0,17,17,86,,,['a'],0,[0.35006095649623603],2018_Jul_09_1239,59.9738993368,go-nogo,001,23,
logos/4.jpg,properties4.xlsx,frogs/ab10.jpg,0,0,400,l,0,2,2,3,0,18,18,9,,,['l'],0,[0.30082699448394123],2018_Jul_09_1239,59.9738993368,go-nogo,001,23,
logos/4.jpg,properties4.xlsx,frogs/ab81.jpg,0,0,400,l,0,2,2,3,0,19,19,79,,,['l'],0,[0.100824832703438],2018_Jul_09_1239,59.9738993368,go-nogo,001,23,
logos/4.jpg,properties4.xlsx,frogs/ab9.jpg,0,0,400,l,0,2,2,3,0,20,20,8,,,['l'],0,[0.1511578889876546],2018_Jul_09_1239,59.9738993368,go-nogo,001,23,
logos/4.jpg,properties4.xlsx,frogs/ab3.jpg,0,0,400,l,0,2,2,3,0,21,21,2,,,['l'],0,[0.31741296419204446],2018_Jul_09_1239,59.9738993368,go-nogo,001,23,
logos/4.jpg,properties4.xlsx,frogs/ab64.jpg,0,0,400,l,0,2,2,3,0,22,22,62,,,['l'],0,[0.2841135935559578],2018_Jul_09_1239,59.9738993368,go-nogo,001,23,
logos/4.jpg,properties4.xlsx,logos/4.jpg,0,0,400,a,0,2,2,3,0,23,23,87,,,['a'],0,[0.11681631301507878],2018_Jul_09_1239,59.9738993368,go-nogo,001,23,
logos/4.jpg,properties4.xlsx,frogs/ab65.jpg,0,0,400,l,0,2,2,3,0,24,24,63,,,['l'],0,[0.20120536280592205],2018_Jul_09_1239,59.9738993368,go-nogo,001,23,
logos/4.jpg,properties4.xlsx,frogs/ab19.jpg,0,0,400,l,0,2,2,3,0,25,25,18,,,['l'],0,[0.30061536763605545],2018_Jul_09_1239,59.9738993368,go-nogo,001,23,
logos/4.jpg,properties4.xlsx,frogs/ab22.jpg,0,0,400,l,0,2,2,3,0,26,26,21,,,['l'],0,[0.33358307576781954],2018_Jul_09_1239,59.9738993368,go-nogo,001,23,
logos/4.jpg,properties4.xlsx,frogs/ab46.jpg,0,0,400,l,0,2,2,3,0,27,27,45,,,['l'],0,[0.3176422266096779],2018_Jul_09_1239,59.9738993368,go-nogo,001,23,
logos/4.jpg,properties4.xlsx,logos/4.jpg,0,0,400,a,0,2,2,3,0,28,28,83,,,['l'],0,[0.033677682071356685],2018_Jul_09_1239,59.9738993368,go-nogo,001,23,
logos/4.jpg,properties4.xlsx,frogs/ab51.jpg,0,0,400,l,0,2,2,3,0,29,29,50,,,['a'],0,[0.6174349802113284],2018_Jul_09_1239,59.9738993368,go-nogo,001,23,
logos/4.jpg,properties4.xlsx,frogs/ab2.jpg,0,0,400,l,0,2,2,3,0,30,30,1,,,['l'],0,[0.43406600595881173],2018_Jul_09_1239,59.9738993368,go-nogo,001,23,
logos/4.jpg,properties4.xlsx,frogs/ab16.jpg,0,0,400,l,0,2,2,3,0,31,31,15,,,['l'],0,[0.2675623260984139],2018_Jul_09_1239,59.9738993368,go-nogo,001,23,
logos/4.jpg,properties4.xlsx,frogs/ab60.jpg,0,0,400,l,0,2,2,3,0,32,32,58,,,['l'],0,[0.26754639719547413],2018_Jul_09_1239,59.9738993368,go-nogo,001,23,
logos/4.jpg,properties4.xlsx,frogs/ab52.jpg,0,0,400,l,0,2,2,3,0,33,33,51,,,['l'],0,[0.28437243822008895],2018_Jul_09_1239,59.9738993368,go-nogo,001,23,
logos/4.jpg,properties4.xlsx,frogs/ab5.jpg,0,0,400,l,0,2,2,3,0,34,34,4,,,['l'],0,[0.25093368968555296],2018_Jul_09_1239,59.9738993368,go-nogo,001,23,
logos/4.jpg,properties4.xlsx,frogs/ab31.jpg,0,0,400,l,0,2,2,3,0,35,35,30,,,['l'],0,[0.3008406478293182],2018_Jul_09_1239,59.9738993368,go-nogo,001,23,
logos/4.jpg,properties4.xlsx,frogs/ab58.jpg,0,0,400,l,0,2,2,3,0,36,36,57,,,['l'],0,[0.40007145250456233],2018_Jul_09_1239,59.9738993368,go-nogo,001,23,
logos/4.jpg,properties4.xlsx,frogs/ab62.jpg,0,0,400,l,0,2,2,3,0,37,37,60,,,['l'],0,[0.1176525803966797],2018_Jul_09_1239,59.9738993368,go-nogo,001,23,
logos/4.jpg,properties4.xlsx,frogs/ab79.jpg,0,0,400,l,0,2,2,3,0,38,38,77,,,['l'],0,[0.33393009828614595],2018_Jul_09_1239,59.9738993368,go-nogo,001,23,
logos/4.jpg,properties4.xlsx,frogs/ab23.jpg,0,0,400,l,0,2,2,3,0,39,39,22,,,['l'],0,[0.35058035249494424],2018_Jul_09_1239,59.9738993368,go-nogo,001,23,
logos/4.jpg,properties4.xlsx,frogs/ab38.jpg,0,0,400,l,0,2,2,3,0,40,40,37,,,['l'],0,[0.38415449670173984],2018_Jul_09_1239,59.9738993368,go-nogo,001,23,
logos/4.jpg,properties4.xlsx,frogs/ab33.jpg,0,0,400,l,0,2,2,3,0,41,41,32,,,['l'],0,[0.3009709234956972],2018_Jul_09_1239,59.9738993368,go-nogo,001,23,
logos/4.jpg,properties4.xlsx,frogs/ab43.jpg,0,0,400,l,0,2,2,3,0,42,42,42,,,['l'],0,[0.2843303404060862],2018_Jul_09_1239,59.9738993368,go-nogo,001,23,
logos/4.jpg,properties4.xlsx,frogs/ab77.jpg,0,0,400,l,0,2,2,3,0,43,43,75,,,['l'],0,[0.28431611817177327],2018_Jul_09_1239,59.9738993368,go-nogo,001,23,
logos/4.jpg,properties4.xlsx,frogs/ab44.jpg,0,0,400,l,0,2,2,3,0,44,44,43,,,['l'],0,[0.30103179465731955],2018_Jul_09_1239,59.9738993368,go-nogo,001,23,
logos/4.jpg,properties4.xlsx,frogs/ab78.jpg,0,0,400,l,0,2,2,3,0,45,45,76,,,['l'],0,[0.38413743001910916],2018_Jul_09_1239,59.9738993368,go-nogo,001,23,
logos/4.jpg,properties4.xlsx,frogs/ab32.jpg,0,0,400,l,0,2,2,3,0,46,46,31,,,['l'],0,[0.5174708771301084],2018_Jul_09_1239,59.9738993368,go-nogo,001,23,
logos/4.jpg,properties4.xlsx,frogs/ab63.jpg,0,0,400,l,0,2,2,3,0,47,47,61,,,['l'],0,[0.38387005201366264],2018_Jul_09_1239,59.9738993368,go-nogo,001,23,
logos/4.jpg,properties4.xlsx,frogs/ab1.jpg,0,0,400,l,0,2,2,3,0,48,48,0,,,['l'],0,[0.5674244842011831],2018_Jul_09_1239,59.9738993368,go-nogo,001,23,
logos/4.jpg,properties4.xlsx,frogs/ab72.jpg,0,0,400,l,0,2,2,3,0,49,49,70,,,['l'],0,[0.3161739231363754],2018_Jul_09_1239,59.9738993368,go-nogo,001,23,
logos/4.jpg,properties4.xlsx,frogs/ab25.jpg,0,0,400,l,0,2,2,3,0,50,50,24,,,['l'],0,[0.45077599355136044],2018_Jul_09_1239,59.9738993368,go-nogo,001,23,
logos/4.jpg,properties4.xlsx,frogs/ab50.jpg,0,0,400,l,0,2,2,3,0,51,51,49,,,['l'],0,[0.3674570246730582],2018_Jul_09_1239,59.9738993368,go-nogo,001,23,
logos/4.jpg,properties4.xlsx,frogs/ab54.jpg,0,0,400,l,0,2,2,3,0,52,52,53,,,['l'],0,[0.30234763578118873],2018_Jul_09_1239,59.9738993368,go-nogo,001,23,
logos/4.jpg,properties4.xlsx,frogs/ab29.jpg,0,0,400,l,0,2,2,3,0,53,53,28,,,['l'],0,[0.33427712080447236],2018_Jul_09_1239,59.9738993368,go-nogo,001,23,
logos/4.jpg,properties4.xlsx,frogs/ab47.jpg,0,0,400,l,0,2,2,3,0,54,54,46,,,['l'],0,[0.38430695905299217],2018_Jul_09_1239,59.9738993368,go-nogo,001,23,
logos/4.jpg,properties4.xlsx,frogs/ab13.jpg,0,0,400,l,0,2,2,3,0,55,55,12,,,['l'],0,[0.3508903972051485],2018_Jul_09_1239,59.9738993368,go-nogo,001,23,
logos/4.jpg,properties4.xlsx,logos/4.jpg,0,0,400,a,0,2,2,3,0,56,56,82,,,['a'],0,[0.31679685699964466],2018_Jul_09_1239,59.9738993368,go-nogo,001,23,
logos/4.jpg,properties4.xlsx,frogs/ab80.jpg,0,0,400,l,0,2,2,3,0,57,57,78,,,['l'],0,[0.43423269054437696],2018_Jul_09_1239,59.9738993368,go-nogo,001,23,
logos/4.jpg,properties4.xlsx,frogs/ab48.jpg,0,0,400,l,0,2,2,3,0,58,58,47,,,['l'],0,[0.4008650531832245],2018_Jul_09_1239,59.9738993368,go-nogo,001,23,
logos/4.jpg,properties4.xlsx,logos/4.jpg,0,0,400,a,0,2,2,3,0,59,59,84,,,['a'],0,[0.16751345850025245],2018_Jul_09_1239,59.9738993368,go-nogo,001,23,
logos/4.jpg,properties4.xlsx,frogs/ab73.jpg,0,0,400,l,0,2,2,3,0,60,60,71,,,['a'],0,[0.4672481853849604],2018_Jul_09_1239,59.9738993368,go-nogo,001,23,
logos/4.jpg,properties4.xlsx,logos/4.jpg,0,0,400,a,0,2,2,3,0,61,61,88,,,['l'],0,[0.5010094941953867],2018_Jul_09_1239,59.9738993368,go-nogo,001,23,
logos/4.jpg,properties4.xlsx,frogs/ab69.jpg,0,0,400,l,0,2,2,3,0,62,62,67,,,['a'],0,[0.4177019031048985],2018_Jul_09_1239,59.9738993368,go-nogo,001,23,
logos/4.jpg,properties4.xlsx,frogs/ab68.jpg,0,0,400,l,0,2,2,3,0,63,63,66,,,['l'],0,[0.45101094486381044],2018_Jul_09_1239,59.9738993368,go-nogo,001,23,
logos/4.jpg,properties4.xlsx,frogs/ab7.jpg,0,0,400,l,0,2,2,3,0,64,64,6,,,['l'],0,[0.20024564643244958],2018_Jul_09_1239,59.9738993368,go-nogo,001,23,
logos/4.jpg,properties4.xlsx,logos/4.jpg,0,0,400,a,0,2,2,3,0,65,65,81,,,['a'],0,[0.1841682638223574],2018_Jul_09_1239,59.9738993368,go-nogo,001,23,
logos/4.jpg,properties4.xlsx,frogs/ab4.jpg,0,0,400,l,0,2,2,3,0,66,66,3,,,['l'],0,[0.10112691296308185],2018_Jul_09_1239,59.9738993368,go-nogo,001,23,
logos/4.jpg,properties4.xlsx,frogs/ab8.jpg,0,0,400,l,0,2,2,3,0,67,67,7,,,['l'],0,[0.051042461334873224],2018_Jul_09_1239,59.9738993368,go-nogo,001,23,
logos/4.jpg,properties4.xlsx,frogs/ab36.jpg,0,0,400,l,0,2,2,3,0,68,68,35,,,['l'],0,[0.051206870362875634],2018_Jul_09_1239,59.9738993368,go-nogo,001,23,
logos/4.jpg,properties4.xlsx,logos/4.jpg,0,0,400,a,0,2,2,3,0,69,69,89,,,['a'],0,[0.03423234921137919],2018_Jul_09_1239,59.9738993368,go-nogo,001,23,
logos/4.jpg,properties4.xlsx,frogs/ab53.jpg,0,0,400,l,0,2,2,3,0,70,70,52,,,['l'],0,[0.7839710867665417],2018_Jul_09_1239,59.9738993368,go-nogo,001,23,
logos/4.jpg,properties4.xlsx,frogs/ab21.jpg,0,0,400,l,0,2,2,3,0,71,71,20,,,['l'],0,[0.35080335713064414],2018_Jul_09_1239,59.9738993368,go-nogo,001,23,
logos/4.jpg,properties4.xlsx,frogs/ab74.jpg,0,0,400,l,0,2,2,3,0,72,72,72,,,['l'],0,[0.01742735709376575],2018_Jul_09_1239,59.9738993368,go-nogo,001,23,
logos/4.jpg,properties4.xlsx,frogs/ab42.jpg,0,0,400,l,0,2,2,3,0,73,73,41,,,['l'],0,[0.000989298621789203],2018_Jul_09_1239,59.9738993368,go-nogo,001,23,
logos/4.jpg,properties4.xlsx,frogs/ab55.jpg,0,0,400,l,0,2,2,3,0,74,74,54,,,['l'],0,[0.4009958977385395],2018_Jul_09_1239,59.9738993368,go-nogo,001,23,
logos/4.jpg,properties4.xlsx,frogs/ab57.jpg,0,0,400,l,0,2,2,3,0,75,75,56,,,['l'],0,[0.01767425508114684],2018_Jul_09_1239,59.9738993368,go-nogo,001,23,
logos/4.jpg,properties4.xlsx,frogs/ab41.jpg,0,0,400,l,0,2,2,3,0,76,76,40,,,['l'],0,[0.36755373586856876],2018_Jul_09_1239,59.9738993368,go-nogo,001,23,
logos/4.jpg,properties4.xlsx,frogs/ab37.jpg,0,0,400,l,0,2,2,3,0,77,77,36,,,['l'],0,[0.2841448824710824],2018_Jul_09_1239,59.9738993368,go-nogo,001,23,
logos/4.jpg,properties4.xlsx,logos/4.jpg,0,0,400,a,0,2,2,3,0,78,78,80,,,['a'],0,[0.10098525950706971],2018_Jul_09_1239,59.9738993368,go-nogo,001,23,
logos/4.jpg,properties4.xlsx,frogs/ab49.jpg,0,0,400,l,0,2,2,3,0,79,79,48,,,['l'],0,[0.18412445934154675],2018_Jul_09_1239,59.9738993368,go-nogo,001,23,
logos/4.jpg,properties4.xlsx,frogs/ab30.jpg,0,0,400,l,0,2,2,3,0,80,80,29,,,['l'],0,[0.10030771226229263],2018_Jul_09_1239,59.9738993368,go-nogo,001,23,
logos/4.jpg,properties4.xlsx,frogs/ab76.jpg,0,0,400,l,0,2,2,3,0,81,81,74,,,['l'],0,[0.4673733410472778],2018_Jul_09_1239,59.9738993368,go-nogo,001,23,
logos/4.jpg,properties4.xlsx,frogs/ab61.jpg,0,0,400,l,0,2,2,3,0,82,82,59,,,['l'],0,[0.45050292665109737],2018_Jul_09_1239,59.9738993368,go-nogo,001,23,
logos/4.jpg,properties4.xlsx,frogs/ab71.jpg,0,0,400,l,0,2,2,3,0,83,83,69,,,['l'],0,[0.28422623365077015],2018_Jul_09_1239,59.9738993368,go-nogo,001,23,
logos/4.jpg,properties4.xlsx,frogs/ab18.jpg,0,0,400,l,0,2,2,3,0,84,84,17,,,['l'],0,[0.26757882389028964],2018_Jul_09_1239,59.9738993368,go-nogo,001,23,
logos/4.jpg,properties4.xlsx,frogs/ab56.jpg,0,0,400,l,0,2,2,3,0,85,85,55,,,['l'],0,[0.034474696083634626],2018_Jul_09_1239,59.9738993368,go-nogo,001,23,
logos/4.jpg,properties4.xlsx,frogs/ab24.jpg,0,0,400,l,0,2,2,3,0,86,86,23,,,['l'],0,[0.43423041498863313],2018_Jul_09_1239,59.9738993368,go-nogo,001,23,
logos/4.jpg,properties4.xlsx,frogs/ab70.jpg,0,0,400,l,0,2,2,3,0,87,87,68,,,['l'],0,[0.3008770567485044],2018_Jul_09_1239,59.9738993368,go-nogo,001,23,
logos/4.jpg,properties4.xlsx,frogs/ab6.jpg,0,0,400,l,0,2,2,3,0,88,88,5,,,['l'],0,[0.3341969074044755],2018_Jul_09_1239,59.9738993368,go-nogo,001,23,
logos/4.jpg,properties4.xlsx,frogs/ab14.jpg,0,0,400,l,0,2,2,3,0,89,89,13,,,['l'],0,[0.3341019028775918],2018_Jul_09_1239,59.9738993368,go-nogo,001,23,
logos/4.jpg,properties4.xlsx,,,,,,0,2,2,3,,,,,,,,,,2018_Jul_09_1239,59.9738993368,go-nogo,001,23,
logos/2.jpg,properties2.xlsx,logos/2.jpg,0,0,400,a,0,3,3,1,0,0,0,82,space,1.35907614641,['a'],0,[0.8174934620383283],2018_Jul_09_1239,59.9738993368,go-nogo,001,23,
logos/2.jpg,properties2.xlsx,frogs/ab1.jpg,0,0,400,l,0,3,3,1,0,1,1,0,,,['l'],0,[0.01771237066895992],2018_Jul_09_1239,59.9738993368,go-nogo,001,23,
logos/2.jpg,properties2.xlsx,frogs/ab64.jpg,0,0,400,l,0,3,3,1,0,2,2,62,,,['l'],0,[0.41826681025304424],2018_Jul_09_1239,59.9738993368,go-nogo,001,23,
logos/2.jpg,properties2.xlsx,frogs/ab77.jpg,0,0,400,l,0,3,3,1,0,3,3,75,,,['l'],0,[0.21730208765256975],2018_Jul_09_1239,59.9738993368,go-nogo,001,23,
logos/2.jpg,properties2.xlsx,frogs/ab25.jpg,0,0,400,l,0,3,3,1,0,4,4,24,,,['l'],0,[0.31685317704796034],2018_Jul_09_1239,59.9738993368,go-nogo,001,23,
logos/2.jpg,properties2.xlsx,logos/2.jpg,0,0,400,a,0,3,3,1,0,5,5,81,,,['a'],0,[0.4340739704093721],2018_Jul_09_1239,59.9738993368,go-nogo,001,23,
logos/2.jpg,properties2.xlsx,frogs/ab47.jpg,0,0,400,l,0,3,3,1,0,6,6,46,,,['l'],0,[0.1501930526101205],2018_Jul_09_1239,59.9738993368,go-nogo,001,23,
logos/2.jpg,properties2.xlsx,frogs/ab79.jpg,0,0,400,l,0,3,3,1,0,7,7,77,,,['l'],0,[0.16926620666345116],2018_Jul_09_1239,59.9738993368,go-nogo,001,23,
logos/2.jpg,properties2.xlsx,frogs/ab24.jpg,0,0,400,l,0,3,3,1,0,8,8,23,,,['l'],0,[0.05101060352899367],2018_Jul_09_1239,59.9738993368,go-nogo,001,23,
logos/2.jpg,properties2.xlsx,frogs/ab78.jpg,0,0,400,l,0,3,3,1,0,9,9,76,,,['l'],0,[0.05213757338060532],2018_Jul_09_1239,59.9738993368,go-nogo,001,23,
logos/2.jpg,properties2.xlsx,frogs/ab33.jpg,0,0,400,l,0,3,3,1,0,10,10,32,,,['l'],0,[0.03364070426141552],2018_Jul_09_1239,59.9738993368,go-nogo,001,23,
logos/2.jpg,properties2.xlsx,logos/2.jpg,0,0,400,a,0,3,3,1,0,11,11,85,,,['a'],0,[0.08428778748202603],2018_Jul_09_1239,59.9738993368,go-nogo,001,23,
logos/2.jpg,properties2.xlsx,frogs/ab54.jpg,0,0,400,l,0,3,3,1,0,12,12,53,,,['l'],0,[0.03434726486557338],2018_Jul_09_1239,59.9738993368,go-nogo,001,23,
logos/2.jpg,properties2.xlsx,frogs/ab27.jpg,0,0,400,l,0,3,3,1,0,13,13,26,,,['l'],0,[0.9172789338554139],2018_Jul_09_1239,59.9738993368,go-nogo,001,23,
logos/2.jpg,properties2.xlsx,frogs/ab37.jpg,0,0,400,l,0,3,3,1,0,14,14,36,,,['l'],0,[0.2344762889752019],2018_Jul_09_1239,59.9738993368,go-nogo,001,23,
logos/2.jpg,properties2.xlsx,frogs/ab60.jpg,0,0,400,l,0,3,3,1,0,15,15,58,,,['l'],0,[0.30089753676656983],2018_Jul_09_1239,59.9738993368,go-nogo,001,23,
logos/2.jpg,properties2.xlsx,frogs/ab7.jpg,0,0,400,l,0,3,3,1,0,16,16,6,,,['l'],0,[0.3001869939362223],2018_Jul_09_1239,59.9738993368,go-nogo,001,23,
logos/2.jpg,properties2.xlsx,frogs/ab74.jpg,0,0,400,l,0,3,3,1,0,17,17,72,,,['l'],0,[0.2711833069643035],2018_Jul_09_1239,59.9738993368,go-nogo,001,23,
logos/2.jpg,properties2.xlsx,frogs/ab15.jpg,0,0,400,l,0,3,3,1,0,18,18,14,,,['l'],0,[0.30088331453043793],2018_Jul_09_1239,59.9738993368,go-nogo,001,23,
logos/2.jpg,properties2.xlsx,frogs/ab36.jpg,0,0,400,l,0,3,3,1,0,19,19,35,,,['l'],0,[0.48424716878071195],2018_Jul_09_1239,59.9738993368,go-nogo,001,23,
logos/2.jpg,properties2.xlsx,frogs/ab76.jpg,0,0,400,l,0,3,3,1,0,20,20,74,,,['l'],0,[0.2675418460803485],2018_Jul_09_1239,59.9738993368,go-nogo,001,23,
logos/2.jpg,properties2.xlsx,frogs/ab13.jpg,0,0,400,l,0,3,3,1,0,21,21,12,,,['l'],0,[0.28350203747686464],2018_Jul_09_1239,59.9738993368,go-nogo,001,23,
logos/2.jpg,properties2.xlsx,frogs/ab41.jpg,0,0,400,l,0,3,3,1,0,22,22,40,,,['l'],0,[0.26750828160584206],2018_Jul_09_1239,59.9738993368,go-nogo,001,23,
logos/2.jpg,properties2.xlsx,frogs/ab35.jpg,0,0,400,l,0,3,3,1,0,23,23,34,,,['l'],0,[0.26735411258596287],2018_Jul_09_1239,59.9738993368,go-nogo,001,23,
logos/2.jpg,properties2.xlsx,frogs/ab56.jpg,0,0,400,l,0,3,3,1,0,24,24,55,,,['l'],0,[0.0009813341694098199],2018_Jul_09_1239,59.9738993368,go-nogo,001,23,
logos/2.jpg,properties2.xlsx,frogs/ab81.jpg,0,0,400,l,0,3,3,1,0,25,25,79,,,['l'],0,[0.36744450910737214],2018_Jul_09_1239,59.9738993368,go-nogo,001,23,
logos/2.jpg,properties2.xlsx,frogs/ab30.jpg,0,0,400,l,0,3,3,1,0,26,26,29,,,['l'],0,[0.26688591663150874],2018_Jul_09_1239,59.9738993368,go-nogo,001,23,
logos/2.jpg,properties2.xlsx,frogs/ab20.jpg,0,0,400,l,0,3,3,1,0,27,27,19,,,['l'],0,[0.28551704364144825],2018_Jul_09_1239,59.9738993368,go-nogo,001,23,
logos/2.jpg,properties2.xlsx,frogs/ab63.jpg,0,0,400,l,0,3,3,1,0,28,28,61,,,['l'],0,[0.3173577819234197],2018_Jul_09_1239,59.9738993368,go-nogo,001,23,
logos/2.jpg,properties2.xlsx,frogs/ab68.jpg,0,0,400,l,0,3,3,1,0,29,29,66,,,['l'],0,[0.3175910265654238],2018_Jul_09_1239,59.9738993368,go-nogo,001,23,
logos/2.jpg,properties2.xlsx,logos/2.jpg,0,0,400,a,0,3,3,1,0,30,30,89,,,['a'],0,[0.21661202484210662],2018_Jul_09_1239,59.9738993368,go-nogo,001,23,
logos/2.jpg,properties2.xlsx,frogs/ab26.jpg,0,0,400,l,0,3,3,1,0,31,31,25,,,['l'],0,[0.5341996380720957],2018_Jul_09_1239,59.9738993368,go-nogo,001,23,
logos/2.jpg,properties2.xlsx,frogs/ab3.jpg,0,0,400,l,0,3,3,1,0,32,32,2,,,['l'],0,[0.38418066561098385],2018_Jul_09_1239,59.9738993368,go-nogo,001,23,
logos/2.jpg,properties2.xlsx,frogs/ab9.jpg,0,0,400,l,0,3,3,1,0,33,33,8,,,['l'],0,[0.3842102478593006],2018_Jul_09_1239,59.9738993368,go-nogo,001,23,
logos/2.jpg,properties2.xlsx,frogs/ab29.jpg,0,0,400,l,0,3,3,1,0,34,34,28,,,['l'],0,[0.2843144115049654],2018_Jul_09_1239,59.9738993368,go-nogo,001,23,
logos/2.jpg,properties2.xlsx,frogs/ab65.jpg,0,0,400,l,0,3,3,1,0,35,35,63,,,['l'],0,[0.33411669400084065],2018_Jul_09_1239,59.9738993368,go-nogo,001,23,
logos/2.jpg,properties2.xlsx,frogs/ab75.jpg,0,0,400,l,0,3,3,1,0,36,36,73,,,['l'],0,[0.3175796487794287],2018_Jul_09_1239,59.9738993368,go-nogo,001,23,
logos/2.jpg,properties2.xlsx,frogs/ab16.jpg,0,0,400,l,0,3,3,1,0,37,37,15,,,['l'],0,[0.29997991820528114],2018_Jul_09_1239,59.9738993368,go-nogo,001,23,
logos/2.jpg,properties2.xlsx,frogs/ab42.jpg,0,0,400,l,0,3,3,1,0,38,38,41,,,['l'],0,[0.28414260691351956],2018_Jul_09_1239,59.9738993368,go-nogo,001,23,
logos/2.jpg,properties2.xlsx,frogs/ab44.jpg,0,0,400,l,0,3,3,1,0,39,39,43,,,['l'],0,[0.28359419755724957],2018_Jul_09_1239,59.9738993368,go-nogo,001,23,
logos/2.jpg,properties2.xlsx,frogs/ab28.jpg,0,0,400,l,0,3,3,1,0,40,40,27,,,['l'],0,[0.38426543012974435],2018_Jul_09_1239,59.9738993368,go-nogo,001,23,
logos/2.jpg,properties2.xlsx,frogs/ab69.jpg,0,0,400,l,0,3,3,1,0,41,41,67,,,['l'],0,[0.30086340340494644],2018_Jul_09_1239,59.9738993368,go-nogo,001,23,
logos/2.jpg,properties2.xlsx,frogs/ab71.jpg,0,0,400,l,0,3,3,1,0,42,42,69,,,['l'],0,[0.3006227631976799],2018_Jul_09_1239,59.9738993368,go-nogo,001,23,
logos/2.jpg,properties2.xlsx,frogs/ab48.jpg,0,0,400,l,0,3,3,1,0,43,43,47,,,['l'],0,[0.38415961670580145],2018_Jul_09_1239,59.9738993368,go-nogo,001,23,
logos/2.jpg,properties2.xlsx,frogs/ab67.jpg,0,0,400,l,0,3,3,1,0,44,44,65,,,['l'],0,[0.2676163705873478],2018_Jul_09_1239,59.9738993368,go-nogo,001,23,
logos/2.jpg,properties2.xlsx,frogs/ab61.jpg,0,0,400,l,0,3,3,1,0,45,45,59,,,['l'],0,[0.2509672541600594],2018_Jul_09_1239,59.9738993368,go-nogo,001,23,
logos/2.jpg,properties2.xlsx,frogs/ab51.jpg,0,0,400,l,0,3,3,1,0,46,46,50,,,['l'],0,[0.30083325226769375],2018_Jul_09_1239,59.9738993368,go-nogo,001,23,
logos/2.jpg,properties2.xlsx,frogs/ab8.jpg,0,0,400,l,0,3,3,1,0,47,47,7,,,['l'],0,[0.3009697857178253],2018_Jul_09_1239,59.9738993368,go-nogo,001,23,
logos/2.jpg,properties2.xlsx,frogs/ab53.jpg,0,0,400,l,0,3,3,1,0,48,48,52,,,['l'],0,[0.3012166837052064],2018_Jul_09_1239,59.9738993368,go-nogo,001,23,
logos/2.jpg,properties2.xlsx,frogs/ab57.jpg,0,0,400,l,0,3,3,1,0,49,49,56,,,['l'],0,[0.2509501874774287],2018_Jul_09_1239,59.9738993368,go-nogo,001,23,
logos/2.jpg,properties2.xlsx,frogs/ab23.jpg,0,0,400,l,0,3,3,1,0,50,50,22,,,['l'],0,[0.3341718762712844],2018_Jul_09_1239,59.9738993368,go-nogo,001,23,
logos/2.jpg,properties2.xlsx,frogs/ab34.jpg,0,0,400,l,0,3,3,1,0,51,51,33,,,['l'],0,[0.2509006941018015],2018_Jul_09_1239,59.9738993368,go-nogo,001,23,
logos/2.jpg,properties2.xlsx,frogs/ab50.jpg,0,0,400,l,0,3,3,1,0,52,52,49,,,['l'],0,[0.25098887195599673],2018_Jul_09_1239,59.9738993368,go-nogo,001,23,
logos/2.jpg,properties2.xlsx,logos/2.jpg,0,0,400,a,0,3,3,1,0,53,53,84,,,['a'],0,[0.017749917369656032],2018_Jul_09_1239,59.9738993368,go-nogo,001,23,
logos/2.jpg,properties2.xlsx,frogs/ab4.jpg,0,0,400,l,0,3,3,1,0,54,54,3,,,['l'],0,[0.1509644666002714],2018_Jul_09_1239,59.9738993368,go-nogo,001,23,
logos/2.jpg,properties2.xlsx,frogs/ab66.jpg,0,0,400,l,0,3,3,1,0,55,55,64,,,['l'],0,[0.3341280717886548],2018_Jul_09_1239,59.9738993368,go-nogo,001,23,
logos/2.jpg,properties2.xlsx,frogs/ab18.jpg,0,0,400,l,0,3,3,1,0,56,56,17,,,['l'],0,[0.3667857352120336],2018_Jul_09_1239,59.9738993368,go-nogo,001,23,
logos/2.jpg,properties2.xlsx,logos/2.jpg,0,0,400,a,0,3,3,1,0,57,57,80,,,['a'],0,[0.2008105535805953],2018_Jul_09_1239,59.9738993368,go-nogo,001,23,
logos/2.jpg,properties2.xlsx,frogs/ab14.jpg,0,0,400,l,0,3,3,1,0,58,58,13,,,['l'],0,[0.11751604694654816],2018_Jul_09_1239,59.9738993368,go-nogo,001,23,
logos/2.jpg,properties2.xlsx,frogs/ab45.jpg,0,0,400,l,0,3,3,1,0,59,59,44,,,['l'],0,[0.36775000270063174],2018_Jul_09_1239,59.9738993368,go-nogo,001,23,
logos/2.jpg,properties2.xlsx,frogs/ab52.jpg,0,0,400,l,0,3,3,1,0,60,60,51,,,['l'],0,[0.3175921643451147],2018_Jul_09_1239,59.9738993368,go-nogo,001,23,
logos/2.jpg,properties2.xlsx,frogs/ab31.jpg,0,0,400,l,0,3,3,1,0,61,61,30,,,['l'],0,[0.3506065214078262],2018_Jul_09_1239,59.9738993368,go-nogo,001,23,
logos/2.jpg,properties2.xlsx,frogs/ab80.jpg,0,0,400,l,0,3,3,1,0,62,62,78,,,['l'],0,[0.6999108550353412],2018_Jul_09_1239,59.9738993368,go-nogo,001,23,
logos/2.jpg,properties2.xlsx,frogs/ab32.jpg,0,0,400,l,0,3,3,1,0,63,63,31,,,['l'],0,[0.21764228350002668],2018_Jul_09_1239,59.9738993368,go-nogo,001,23,
logos/2.jpg,properties2.xlsx,frogs/ab39.jpg,0,0,400,l,0,3,3,1,0,64,64,38,,,['l'],0,[0.3006187809733092],2018_Jul_09_1239,59.9738993368,go-nogo,001,23,
logos/2.jpg,properties2.xlsx,frogs/ab11.jpg,0,0,400,l,0,3,3,1,0,65,65,10,,,['l'],0,[0.2842296469880239],2018_Jul_09_1239,59.9738993368,go-nogo,001,23,
logos/2.jpg,properties2.xlsx,frogs/ab19.jpg,0,0,400,l,0,3,3,1,0,66,66,18,,,['l'],0,[0.284123833564081],2018_Jul_09_1239,59.9738993368,go-nogo,001,23,
logos/2.jpg,properties2.xlsx,logos/2.jpg,0,0,400,a,0,3,3,1,0,67,67,83,,,['a'],0,[0.23427205769075954],2018_Jul_09_1239,59.9738993368,go-nogo,001,23,
logos/2.jpg,properties2.xlsx,frogs/ab2.jpg,0,0,400,l,0,3,3,1,0,68,68,1,,,['l'],0,[0.20087028696434572],2018_Jul_09_1239,59.9738993368,go-nogo,001,23,
logos/2.jpg,properties2.xlsx,frogs/ab73.jpg,0,0,400,l,0,3,3,1,0,69,69,71,,,['l'],0,[0.3009333767968201],2018_Jul_09_1239,59.9738993368,go-nogo,001,23,
logos/2.jpg,properties2.xlsx,logos/2.jpg,0,0,400,a,0,3,3,1,0,70,70,88,,,['a'],0,[0.20084525583115465],2018_Jul_09_1239,59.9738993368,go-nogo,001,23,
logos/2.jpg,properties2.xlsx,frogs/ab5.jpg,0,0,400,l,0,3,3,1,0,71,71,4,,,['l'],0,[0.1002388766482909],2018_Jul_09_1239,59.9738993368,go-nogo,001,23,
logos/2.jpg,properties2.xlsx,frogs/ab58.jpg,0,0,400,l,0,3,3,1,0,72,72,57,,,['l'],0,[0.3508670727387653],2018_Jul_09_1239,59.9738993368,go-nogo,001,23,
logos/2.jpg,properties2.xlsx,frogs/ab6.jpg,0,0,400,l,0,3,3,1,0,73,73,5,,,['l'],0,[0.5343418604170438],2018_Jul_09_1239,59.9738993368,go-nogo,001,23,
logos/2.jpg,properties2.xlsx,frogs/ab62.jpg,0,0,400,l,0,3,3,1,0,74,74,60,,,['l'],0,[0.7385890747063968],2018_Jul_09_1239,59.9738993368,go-nogo,001,23,
logos/2.jpg,properties2.xlsx,frogs/ab10.jpg,0,0,400,l,0,3,3,1,0,75,75,9,,,['l'],0,[0.5841020451007353],2018_Jul_09_1239,59.9738993368,go-nogo,001,23,
logos/2.jpg,properties2.xlsx,frogs/ab49.jpg,0,0,400,l,0,3,3,1,0,76,76,48,,,['l'],0,[0.4340051347953704],2018_Jul_09_1239,59.9738993368,go-nogo,001,23,
logos/2.jpg,properties2.xlsx,frogs/ab70.jpg,0,0,400,l,0,3,3,1,0,77,77,68,,,['l'],0,[0.25084494294242177],2018_Jul_09_1239,59.9738993368,go-nogo,001,23,
logos/2.jpg,properties2.xlsx,frogs/ab40.jpg,0,0,400,l,0,3,3,1,0,78,78,39,,,['l'],0,[0.10098070839194406],2018_Jul_09_1239,59.9738993368,go-nogo,001,23,
logos/2.jpg,properties2.xlsx,frogs/ab22.jpg,0,0,400,l,0,3,3,1,0,79,79,21,,,['l'],0,[0.10107514402807283],2018_Jul_09_1239,59.9738993368,go-nogo,001,23,
logos/2.jpg,properties2.xlsx,frogs/ab55.jpg,0,0,400,l,0,3,3,1,0,80,80,54,,,['l'],0,[0.10098981062219536],2018_Jul_09_1239,59.9738993368,go-nogo,001,23,
logos/2.jpg,properties2.xlsx,frogs/ab46.jpg,0,0,400,l,0,3,3,1,0,81,81,45,,,['l'],0,[0.517267214734602],2018_Jul_09_1239,59.9738993368,go-nogo,001,23,
logos/2.jpg,properties2.xlsx,logos/2.jpg,0,0,400,a,0,3,3,1,0,82,82,87,,,['a'],0,[0.10097274393956468],2018_Jul_09_1239,59.9738993368,go-nogo,001,23,
logos/2.jpg,properties2.xlsx,frogs/ab43.jpg,0,0,400,l,0,3,3,1,0,83,83,42,,,['l'],0,[0.234422813375204],2018_Jul_09_1239,59.9738993368,go-nogo,001,23,
logos/2.jpg,properties2.xlsx,frogs/ab12.jpg,0,0,400,l,0,3,3,1,0,84,84,11,,,['l'],0,[0.46750930560847337],2018_Jul_09_1239,59.9738993368,go-nogo,001,23,
logos/2.jpg,properties2.xlsx,frogs/ab38.jpg,0,0,400,l,0,3,3,1,0,85,85,37,,,['l'],0,[0.36755658031506755],2018_Jul_09_1239,59.9738993368,go-nogo,001,23,
logos/2.jpg,properties2.xlsx,frogs/ab72.jpg,0,0,400,l,0,3,3,1,0,86,86,70,,,['l'],0,[0.5174265037585428],2018_Jul_09_1239,59.9738993368,go-nogo,001,23,
logos/2.jpg,properties2.xlsx,frogs/ab21.jpg,0,0,400,l,0,3,3,1,0,87,87,20,,,['l'],0,[0.2842347669920855],2018_Jul_09_1239,59.9738993368,go-nogo,001,23,
logos/2.jpg,properties2.xlsx,frogs/ab17.jpg,0,0,400,l,0,3,3,1,0,88,88,16,,,['l'],0,[0.30084121671825415],2018_Jul_09_1239,59.9738993368,go-nogo,001,23,
logos/2.jpg,properties2.xlsx,logos/2.jpg,0,0,400,a,0,3,3,1,0,89,89,86,,,['a'],0,[0.2335233992744179],2018_Jul_09_1239,59.9738993368,go-nogo,001,23,
logos/2.jpg,properties2.xlsx,,,,,,0,3,3,1,,,,,,,,,,2018_Jul_09_1239,59.9738993368,go-nogo,001,23,
