pix,source,image1,x,y,size,answer,trials_2.thisRepN,trials_2.thisTrialN,trials_2.thisN,trials_2.thisIndex,trials.thisRepN,trials.thisTrialN,trials.thisN,trials.thisIndex,key_resp_3.keys,key_resp_3.rt,key_resp_2.keys,key_resp_2.corr,key_resp_2.rt,date,frameRate,expName,session,participant,
logos/2.jpg,properties2.xlsx,frogs/ab60.jpg,0,0,400,l,0,0,0,1,0,0,0,58,space,14.4220681291,['l'],0,[9.329708370240041],2018_Jul_09_1248,59.9865885871,go-nogo,001,25,
logos/2.jpg,properties2.xlsx,frogs/ab47.jpg,0,0,400,l,0,0,0,1,0,1,1,46,,,['l'],0,[0.849878058561444],2018_Jul_09_1248,59.9865885871,go-nogo,001,25,
logos/2.jpg,properties2.xlsx,frogs/ab27.jpg,0,0,400,l,0,0,0,1,0,2,2,26,,,['l'],0,[1.5680809825407778],2018_Jul_09_1248,59.9865885871,go-nogo,001,25,
logos/2.jpg,properties2.xlsx,frogs/ab75.jpg,0,0,400,l,0,0,0,1,0,3,3,73,,,['l'],0,[0.5837476270189654],2018_Jul_09_1248,59.9865885871,go-nogo,001,25,
logos/2.jpg,properties2.xlsx,frogs/ab14.jpg,0,0,400,l,0,0,0,1,0,4,4,13,,,['l'],0,[0.6508299242632347],2018_Jul_09_1248,59.9865885871,go-nogo,001,25,
logos/2.jpg,properties2.xlsx,frogs/ab11.jpg,0,0,400,l,0,0,0,1,0,5,5,10,,,['l'],0,[0.3842091100796097],2018_Jul_09_1248,59.9865885871,go-nogo,001,25,
logos/2.jpg,properties2.xlsx,frogs/ab32.jpg,0,0,400,l,0,0,0,1,0,6,6,31,,,['l'],0,[0.35114810408958874],2018_Jul_09_1248,59.9865885871,go-nogo,001,25,
logos/2.jpg,properties2.xlsx,frogs/ab10.jpg,0,0,400,l,0,0,0,1,0,7,7,9,,,['l'],0,[0.28428767370314745],2018_Jul_09_1248,59.9865885871,go-nogo,001,25,
logos/2.jpg,properties2.xlsx,frogs/ab48.jpg,0,0,400,l,0,0,0,1,0,8,8,47,,,['l'],0,[0.583283413290701],2018_Jul_09_1248,59.9865885871,go-nogo,001,25,
logos/2.jpg,properties2.xlsx,frogs/ab69.jpg,0,0,400,l,0,0,0,1,0,9,9,67,,,['l'],0,[0.40093787102341594],2018_Jul_09_1248,59.9865885871,go-nogo,001,25,
logos/2.jpg,properties2.xlsx,frogs/ab80.jpg,0,0,400,l,0,0,0,1,0,10,10,78,,,['l'],0,[0.4342099349705677],2018_Jul_09_1248,59.9865885871,go-nogo,001,25,
logos/2.jpg,properties2.xlsx,logos/2.jpg,0,0,400,a,0,0,0,1,0,11,11,83,,,['a'],0,[0.4175221340628923],2018_Jul_09_1248,59.9865885871,go-nogo,001,25,
logos/2.jpg,properties2.xlsx,frogs/ab74.jpg,0,0,400,l,0,0,0,1,0,12,12,72,,,['l'],0,[0.46735968770371983],2018_Jul_09_1248,59.9865885871,go-nogo,001,25,
logos/2.jpg,properties2.xlsx,frogs/ab5.jpg,0,0,400,l,0,0,0,1,0,13,13,4,,,['a'],0,[2.4996031996615784],2018_Jul_09_1248,59.9865885871,go-nogo,001,25,
logos/2.jpg,properties2.xlsx,logos/2.jpg,0,0,400,a,0,0,0,1,0,14,14,88,,,['a'],0,[0.3509791439464607],2018_Jul_09_1248,59.9865885871,go-nogo,001,25,
logos/2.jpg,properties2.xlsx,frogs/ab34.jpg,0,0,400,l,0,0,0,1,0,15,15,33,,,['l'],0,[0.3008838834211929],2018_Jul_09_1248,59.9865885871,go-nogo,001,25,
logos/2.jpg,properties2.xlsx,frogs/ab21.jpg,0,0,400,l,0,0,0,1,0,16,16,20,,,['l'],0,[0.3840811099707935],2018_Jul_09_1248,59.9865885871,go-nogo,001,25,
logos/2.jpg,properties2.xlsx,frogs/ab51.jpg,0,0,400,l,0,0,0,1,0,17,17,50,,,['l'],0,[0.6672253160322725],2018_Jul_09_1248,59.9865885871,go-nogo,001,25,
logos/2.jpg,properties2.xlsx,frogs/ab67.jpg,0,0,400,l,0,0,0,1,0,18,18,65,,,['l'],0,[0.8997986700505862],2018_Jul_09_1248,59.9865885871,go-nogo,001,25,
logos/2.jpg,properties2.xlsx,frogs/ab44.jpg,0,0,400,l,0,0,0,1,0,19,19,43,,,['l'],0,[0.38418976784305414],2018_Jul_09_1248,59.9865885871,go-nogo,001,25,
logos/2.jpg,properties2.xlsx,logos/2.jpg,0,0,400,a,0,0,0,1,0,20,20,87,,,['l'],0,[2.6165998506094184],2018_Jul_09_1248,59.9865885871,go-nogo,001,25,
logos/2.jpg,properties2.xlsx,frogs/ab18.jpg,0,0,400,l,0,0,0,1,0,21,21,17,,,['l'],0,[0.1510025821880845],2018_Jul_09_1248,59.9865885871,go-nogo,001,25,
logos/2.jpg,properties2.xlsx,frogs/ab13.jpg,0,0,400,l,0,0,0,1,0,22,22,12,,,['l'],0,[0.01777437961209216],2018_Jul_09_1248,59.9865885871,go-nogo,001,25,
logos/2.jpg,properties2.xlsx,frogs/ab19.jpg,0,0,400,l,0,0,0,1,0,23,23,18,,,['l'],0,[0.08434808975653141],2018_Jul_09_1248,59.9865885871,go-nogo,001,25,
logos/2.jpg,properties2.xlsx,frogs/ab23.jpg,0,0,400,l,0,0,0,1,0,24,24,22,,,['l'],0,[0.034243158108438365],2018_Jul_09_1248,59.9865885871,go-nogo,001,25,
logos/2.jpg,properties2.xlsx,frogs/ab2.jpg,0,0,400,l,0,0,0,1,0,25,25,1,,,['l'],0,[0.03438481156263151],2018_Jul_09_1248,59.9865885871,go-nogo,001,25,
logos/2.jpg,properties2.xlsx,frogs/ab70.jpg,0,0,400,l,0,0,0,1,0,26,26,68,,,['l'],0,[0.03433702485563117],2018_Jul_09_1248,59.9865885871,go-nogo,001,25,
logos/2.jpg,properties2.xlsx,frogs/ab49.jpg,0,0,400,l,0,0,0,1,0,27,27,48,,,['l'],0,[0.1011132596177049],2018_Jul_09_1248,59.9865885871,go-nogo,001,25,
logos/2.jpg,properties2.xlsx,frogs/ab78.jpg,0,0,400,l,0,0,0,1,0,28,28,76,,,['l'],0,[0.06767564886104083],2018_Jul_09_1248,59.9865885871,go-nogo,001,25,
logos/2.jpg,properties2.xlsx,frogs/ab73.jpg,0,0,400,l,0,0,0,1,0,29,29,71,,,['l'],0,[0.2842831225880218],2018_Jul_09_1248,59.9865885871,go-nogo,001,25,
logos/2.jpg,properties2.xlsx,frogs/ab39.jpg,0,0,400,l,0,0,0,1,0,30,30,38,,,['l'],0,[0.01779429074122163],2018_Jul_09_1248,59.9865885871,go-nogo,001,25,
logos/2.jpg,properties2.xlsx,frogs/ab54.jpg,0,0,400,l,0,0,0,1,0,31,31,53,,,['l'],0,[0.33438691645460494],2018_Jul_09_1248,59.9865885871,go-nogo,001,25,
logos/2.jpg,properties2.xlsx,frogs/ab28.jpg,0,0,400,l,0,0,0,1,0,32,32,27,,,['l'],0,[0.26771990845372784],2018_Jul_09_1248,59.9865885871,go-nogo,001,25,
logos/2.jpg,properties2.xlsx,logos/2.jpg,0,0,400,a,0,0,0,1,0,33,33,80,,,['a'],0,[0.5504090030153748],2018_Jul_09_1248,59.9865885871,go-nogo,001,25,
logos/2.jpg,properties2.xlsx,frogs/ab56.jpg,0,0,400,l,0,0,0,1,0,34,34,55,,,['a'],0,[0.23433861774719844],2018_Jul_09_1248,59.9865885871,go-nogo,001,25,
logos/2.jpg,properties2.xlsx,frogs/ab52.jpg,0,0,400,l,0,0,0,1,0,35,35,51,,,['l'],0,[0.33343516453169286],2018_Jul_09_1248,59.9865885871,go-nogo,001,25,
logos/2.jpg,properties2.xlsx,frogs/ab64.jpg,0,0,400,l,0,0,0,1,0,36,36,62,,,['l'],0,[0.03437627822313516],2018_Jul_09_1248,59.9865885871,go-nogo,001,25,
logos/2.jpg,properties2.xlsx,frogs/ab26.jpg,0,0,400,l,0,0,0,1,0,37,37,25,,,['l'],0,[0.36743142465275014],2018_Jul_09_1248,59.9865885871,go-nogo,001,25,
logos/2.jpg,properties2.xlsx,frogs/ab62.jpg,0,0,400,l,0,0,0,1,0,38,38,60,,,['l'],0,[0.05102425687437062],2018_Jul_09_1248,59.9865885871,go-nogo,001,25,
logos/2.jpg,properties2.xlsx,logos/2.jpg,0,0,400,a,0,0,0,1,0,39,39,89,,,['a'],0,[0.4666980693600635],2018_Jul_09_1248,59.9865885871,go-nogo,001,25,
logos/2.jpg,properties2.xlsx,frogs/ab40.jpg,0,0,400,l,0,0,0,1,0,40,40,39,,,['l'],0,[0.13429316348447173],2018_Jul_09_1248,59.9865885871,go-nogo,001,25,
logos/2.jpg,properties2.xlsx,frogs/ab20.jpg,0,0,400,l,0,0,0,1,0,41,41,19,,,['l'],0,[0.00042211591426166706],2018_Jul_09_1248,59.9865885871,go-nogo,001,25,
logos/2.jpg,properties2.xlsx,frogs/ab45.jpg,0,0,400,l,0,0,0,1,0,42,42,44,,,['l'],0,[0.6509493910325546],2018_Jul_09_1248,59.9865885871,go-nogo,001,25,
logos/2.jpg,properties2.xlsx,frogs/ab6.jpg,0,0,400,l,0,0,0,1,0,43,43,5,,,['l'],0,[0.3173970352891047],2018_Jul_09_1248,59.9865885871,go-nogo,001,25,
logos/2.jpg,properties2.xlsx,frogs/ab15.jpg,0,0,400,l,0,0,0,1,0,44,44,14,,,['l'],0,[0.18431731283999397],2018_Jul_09_1248,59.9865885871,go-nogo,001,25,
logos/2.jpg,properties2.xlsx,frogs/ab63.jpg,0,0,400,l,0,0,0,1,0,45,45,61,,,['a'],0,[0.5674540664494998],2018_Jul_09_1248,59.9865885871,go-nogo,001,25,
logos/2.jpg,properties2.xlsx,frogs/ab7.jpg,0,0,400,l,0,0,0,1,0,46,46,6,,,['l'],0,[0.43394028140755836],2018_Jul_09_1248,59.9865885871,go-nogo,001,25,
logos/2.jpg,properties2.xlsx,frogs/ab50.jpg,0,0,400,l,0,0,0,1,0,47,47,49,,,['l'],0,[0.25094165413611336],2018_Jul_09_1248,59.9865885871,go-nogo,001,25,
logos/2.jpg,properties2.xlsx,frogs/ab58.jpg,0,0,400,l,0,0,0,1,0,48,48,57,,,['l'],0,[0.2009266070126614],2018_Jul_09_1248,59.9865885871,go-nogo,001,25,
logos/2.jpg,properties2.xlsx,logos/2.jpg,0,0,400,a,0,0,0,1,0,49,49,85,,,['l'],0,[0.0011212809567950899],2018_Jul_09_1248,59.9865885871,go-nogo,001,25,
logos/2.jpg,properties2.xlsx,frogs/ab29.jpg,0,0,400,l,0,0,0,1,0,50,50,28,,,['l'],0,[0.06750156871385116],2018_Jul_09_1248,59.9865885871,go-nogo,001,25,
logos/2.jpg,properties2.xlsx,frogs/ab30.jpg,0,0,400,l,0,0,0,1,0,51,51,29,,,['a'],0,[0.03426534479694965],2018_Jul_09_1248,59.9865885871,go-nogo,001,25,
logos/2.jpg,properties2.xlsx,frogs/ab76.jpg,0,0,400,l,0,0,0,1,0,52,52,74,,,['l'],0,[0.06746174645559222],2018_Jul_09_1248,59.9865885871,go-nogo,001,25,
logos/2.jpg,properties2.xlsx,frogs/ab57.jpg,0,0,400,l,0,0,0,1,0,53,53,56,,,['l'],0,[0.0843771031122742],2018_Jul_09_1248,59.9865885871,go-nogo,001,25,
logos/2.jpg,properties2.xlsx,frogs/ab61.jpg,0,0,400,l,0,0,0,1,0,54,54,59,,,['l'],0,[0.08498979696923925],2018_Jul_09_1248,59.9865885871,go-nogo,001,25,
logos/2.jpg,properties2.xlsx,frogs/ab35.jpg,0,0,400,l,0,0,0,1,0,55,55,34,,,['l'],0,[0.11743128242960665],2018_Jul_09_1248,59.9865885871,go-nogo,001,25,
logos/2.jpg,properties2.xlsx,frogs/ab4.jpg,0,0,400,l,0,0,0,1,0,56,56,3,,,['l'],0,[0.06787020902629592],2018_Jul_09_1248,59.9865885871,go-nogo,001,25,
logos/2.jpg,properties2.xlsx,frogs/ab36.jpg,0,0,400,l,0,0,0,1,0,57,57,35,,,['l'],0,[0.0175428416368959],2018_Jul_09_1248,59.9865885871,go-nogo,001,25,
logos/2.jpg,properties2.xlsx,frogs/ab1.jpg,0,0,400,l,0,0,0,1,0,58,58,0,,,['l'],0,[0.017689046206214698],2018_Jul_09_1248,59.9865885871,go-nogo,001,25,
logos/2.jpg,properties2.xlsx,frogs/ab81.jpg,0,0,400,l,0,0,0,1,0,59,59,79,,,['l'],0,[0.08424284522152448],2018_Jul_09_1248,59.9865885871,go-nogo,001,25,
logos/2.jpg,properties2.xlsx,frogs/ab43.jpg,0,0,400,l,0,0,0,1,0,60,60,42,,,['l'],0,[0.06733374634677602],2018_Jul_09_1248,59.9865885871,go-nogo,001,25,
logos/2.jpg,properties2.xlsx,frogs/ab9.jpg,0,0,400,l,0,0,0,1,0,61,61,8,,,['a'],0,[0.1009397483576322],2018_Jul_09_1248,59.9865885871,go-nogo,001,25,
logos/2.jpg,properties2.xlsx,frogs/ab41.jpg,0,0,400,l,0,0,0,1,0,62,62,40,,,['l'],0,[0.13448487920504704],2018_Jul_09_1248,59.9865885871,go-nogo,001,25,
logos/2.jpg,properties2.xlsx,frogs/ab46.jpg,0,0,400,l,0,0,0,1,0,63,63,45,,,['l'],0,[0.0176446728346491],2018_Jul_09_1248,59.9865885871,go-nogo,001,25,
logos/2.jpg,properties2.xlsx,frogs/ab17.jpg,0,0,400,l,0,0,0,1,0,64,64,16,,,['l'],0,[0.11752514917679946],2018_Jul_09_1248,59.9865885871,go-nogo,001,25,
logos/2.jpg,properties2.xlsx,frogs/ab16.jpg,0,0,400,l,0,0,0,1,0,65,65,15,,,['l'],0,[0.13429031903797295],2018_Jul_09_1248,59.9865885871,go-nogo,001,25,
logos/2.jpg,properties2.xlsx,frogs/ab8.jpg,0,0,400,l,0,0,0,1,0,66,66,7,,,['l'],0,[0.4172541871666908],2018_Jul_09_1248,59.9865885871,go-nogo,001,25,
logos/2.jpg,properties2.xlsx,frogs/ab65.jpg,0,0,400,l,0,0,0,1,0,67,67,63,,,['l'],0,[0.10121224636714032],2018_Jul_09_1248,59.9865885871,go-nogo,001,25,
logos/2.jpg,properties2.xlsx,frogs/ab55.jpg,0,0,400,l,0,0,0,1,0,68,68,54,,,['l'],0,[0.03433645596669521],2018_Jul_09_1248,59.9865885871,go-nogo,001,25,
logos/2.jpg,properties2.xlsx,logos/2.jpg,0,0,400,a,0,0,0,1,0,69,69,81,,,['a'],0,[0.6166248817407904],2018_Jul_09_1248,59.9865885871,go-nogo,001,25,
logos/2.jpg,properties2.xlsx,frogs/ab72.jpg,0,0,400,l,0,0,0,1,0,70,70,70,,,['l'],0,[0.16752938740319223],2018_Jul_09_1248,59.9865885871,go-nogo,001,25,
logos/2.jpg,properties2.xlsx,frogs/ab79.jpg,0,0,400,l,0,0,0,1,0,71,71,77,,,['l'],0,[0.5008103829131869],2018_Jul_09_1248,59.9865885871,go-nogo,001,25,
logos/2.jpg,properties2.xlsx,frogs/ab33.jpg,0,0,400,l,0,0,0,1,0,72,72,32,,,['l'],0,[0.3340387561584066],2018_Jul_09_1248,59.9865885871,go-nogo,001,25,
logos/2.jpg,properties2.xlsx,frogs/ab38.jpg,0,0,400,l,0,0,0,1,0,73,73,37,,,['l'],0,[0.33418040961259976],2018_Jul_09_1248,59.9865885871,go-nogo,001,25,
logos/2.jpg,properties2.xlsx,frogs/ab68.jpg,0,0,400,l,0,0,0,1,0,74,74,66,,,['l'],0,[0.3349745791783789],2018_Jul_09_1248,59.9865885871,go-nogo,001,25,
logos/2.jpg,properties2.xlsx,frogs/ab3.jpg,0,0,400,l,0,0,0,1,0,75,75,2,,,['l'],0,[0.5672219595853676],2018_Jul_09_1248,59.9865885871,go-nogo,001,25,
logos/2.jpg,properties2.xlsx,frogs/ab71.jpg,0,0,400,l,0,0,0,1,0,76,76,69,,,['l'],0,[0.3508170104760211],2018_Jul_09_1248,59.9865885871,go-nogo,001,25,
logos/2.jpg,properties2.xlsx,logos/2.jpg,0,0,400,a,0,0,0,1,0,77,77,84,,,['a'],0,[0.3341838229480345],2018_Jul_09_1248,59.9865885871,go-nogo,001,25,
logos/2.jpg,properties2.xlsx,frogs/ab53.jpg,0,0,400,l,0,0,0,1,0,78,78,52,,,['l'],0,[0.48420165762945544],2018_Jul_09_1248,59.9865885871,go-nogo,001,25,
logos/2.jpg,properties2.xlsx,frogs/ab77.jpg,0,0,400,l,0,0,0,1,0,79,79,75,,,['l'],0,[0.3342139740834682],2018_Jul_09_1248,59.9865885871,go-nogo,001,25,
logos/2.jpg,properties2.xlsx,frogs/ab31.jpg,0,0,400,l,0,0,0,1,0,80,80,30,,,['l'],0,[0.23422995987675677],2018_Jul_09_1248,59.9865885871,go-nogo,001,25,
logos/2.jpg,properties2.xlsx,frogs/ab24.jpg,0,0,400,l,0,0,0,1,0,81,81,23,,,['l'],0,[0.3338276981994568],2018_Jul_09_1248,59.9865885871,go-nogo,001,25,
logos/2.jpg,properties2.xlsx,logos/2.jpg,0,0,400,a,0,0,0,1,0,82,82,82,,,['a'],0,[0.31691063487596693],2018_Jul_09_1248,59.9865885871,go-nogo,001,25,
logos/2.jpg,properties2.xlsx,frogs/ab12.jpg,0,0,400,l,0,0,0,1,0,83,83,11,,,['l'],0,[0.2177623191564635],2018_Jul_09_1248,59.9865885871,go-nogo,001,25,
logos/2.jpg,properties2.xlsx,logos/2.jpg,0,0,400,a,0,0,0,1,0,84,84,86,,,['a'],0,[0.4341877482838754],2018_Jul_09_1248,59.9865885871,go-nogo,001,25,
logos/2.jpg,properties2.xlsx,frogs/ab66.jpg,0,0,400,l,0,0,0,1,0,85,85,64,,,['l'],0,[0.38402137658704305],2018_Jul_09_1248,59.9865885871,go-nogo,001,25,
logos/2.jpg,properties2.xlsx,frogs/ab22.jpg,0,0,400,l,0,0,0,1,0,86,86,21,,,['l'],0,[0.034479247200579266],2018_Jul_09_1248,59.9865885871,go-nogo,001,25,
logos/2.jpg,properties2.xlsx,frogs/ab37.jpg,0,0,400,l,0,0,0,1,0,87,87,36,,,['l'],0,[0.36751334472137387],2018_Jul_09_1248,59.9865885871,go-nogo,001,25,
logos/2.jpg,properties2.xlsx,frogs/ab42.jpg,0,0,400,l,0,0,0,1,0,88,88,41,,,['l'],0,[0.3675287047353777],2018_Jul_09_1248,59.9865885871,go-nogo,001,25,
logos/2.jpg,properties2.xlsx,frogs/ab25.jpg,0,0,400,l,0,0,0,1,0,89,89,24,,,['l'],0,[0.3675753536645061],2018_Jul_09_1248,59.9865885871,go-nogo,001,25,
logos/2.jpg,properties2.xlsx,,,,,,0,0,0,1,,,,,,,,,,2018_Jul_09_1248,59.9865885871,go-nogo,001,25,
logos/3.jpg,properties3.xlsx,frogs/ab40.jpg,0,0,400,l,0,1,1,2,0,0,0,39,space,3.60751866953,['l'],0,[0.13415947448447696],2018_Jul_09_1248,59.9865885871,go-nogo,001,25,
logos/3.jpg,properties3.xlsx,frogs/ab12.jpg,0,0,400,l,0,1,1,2,0,1,1,11,,,['l'],0,[0.3009498745886958],2018_Jul_09_1248,59.9865885871,go-nogo,001,25,
logos/3.jpg,properties3.xlsx,frogs/ab45.jpg,0,0,400,l,0,1,1,2,0,2,2,44,,,['l'],0,[0.0843782408919651],2018_Jul_09_1248,59.9865885871,go-nogo,001,25,
logos/3.jpg,properties3.xlsx,frogs/ab74.jpg,0,0,400,l,0,1,1,2,0,3,3,72,,,['l'],0,[0.08430826749827247],2018_Jul_09_1248,59.9865885871,go-nogo,001,25,
logos/3.jpg,properties3.xlsx,frogs/ab68.jpg,0,0,400,l,0,1,1,2,0,4,4,66,,,['l'],0,[0.11753026918268006],2018_Jul_09_1248,59.9865885871,go-nogo,001,25,
logos/3.jpg,properties3.xlsx,frogs/ab73.jpg,0,0,400,l,0,1,1,2,0,5,5,71,,,['l'],0,[0.03439846490982745],2018_Jul_09_1248,59.9865885871,go-nogo,001,25,
logos/3.jpg,properties3.xlsx,frogs/ab3.jpg,0,0,400,l,0,1,1,2,0,6,6,2,,,['l'],0,[0.06783095566061093],2018_Jul_09_1248,59.9865885871,go-nogo,001,25,
logos/3.jpg,properties3.xlsx,logos/3.jpg,0,0,400,a,0,1,1,2,0,7,7,83,,,['a'],0,[0.1503250349433074],2018_Jul_09_1248,59.9865885871,go-nogo,001,25,
logos/3.jpg,properties3.xlsx,frogs/ab52.jpg,0,0,400,l,0,1,1,2,0,8,8,51,,,['l'],0,[0.05085245228292479],2018_Jul_09_1248,59.9865885871,go-nogo,001,25,
logos/3.jpg,properties3.xlsx,frogs/ab69.jpg,0,0,400,l,0,1,1,2,0,9,9,67,,,['l'],0,[1.0005040359865234],2018_Jul_09_1248,59.9865885871,go-nogo,001,25,
logos/3.jpg,properties3.xlsx,frogs/ab22.jpg,0,0,400,l,0,1,1,2,0,10,10,21,,,['l'],0,[0.0011036453852284467],2018_Jul_09_1248,59.9865885871,go-nogo,001,25,
logos/3.jpg,properties3.xlsx,frogs/ab23.jpg,0,0,400,l,0,1,1,2,0,11,11,22,,,['l'],0,[0.03436490043714002],2018_Jul_09_1248,59.9865885871,go-nogo,001,25,
logos/3.jpg,properties3.xlsx,frogs/ab26.jpg,0,0,400,l,0,1,1,2,0,12,12,25,,,['l'],0,[0.001104214275983395],2018_Jul_09_1248,59.9865885871,go-nogo,001,25,
logos/3.jpg,properties3.xlsx,frogs/ab19.jpg,0,0,400,l,0,1,1,2,0,13,13,18,,,['l'],0,[0.13405821217565972],2018_Jul_09_1248,59.9865885871,go-nogo,001,25,
logos/3.jpg,properties3.xlsx,frogs/ab41.jpg,0,0,400,l,0,1,1,2,0,14,14,40,,,['l'],0,[0.36759185145638185],2018_Jul_09_1248,59.9865885871,go-nogo,001,25,
logos/3.jpg,properties3.xlsx,frogs/ab43.jpg,0,0,400,l,0,1,1,2,0,15,15,42,,,['a'],0,[0.13417142115940806],2018_Jul_09_1248,59.9865885871,go-nogo,001,25,
logos/3.jpg,properties3.xlsx,frogs/ab57.jpg,0,0,400,l,0,1,1,2,0,16,16,56,,,['l'],0,[0.034306304829442524],2018_Jul_09_1248,59.9865885871,go-nogo,001,25,
logos/3.jpg,properties3.xlsx,logos/3.jpg,0,0,400,a,0,1,1,2,0,17,17,89,,,['a'],0,[0.3342924808184762],2018_Jul_09_1248,59.9865885871,go-nogo,001,25,
logos/3.jpg,properties3.xlsx,logos/3.jpg,0,0,400,a,0,1,1,2,0,18,18,81,,,['a'],0,[0.2845704117225978],2018_Jul_09_1248,59.9865885871,go-nogo,001,25,
logos/3.jpg,properties3.xlsx,frogs/ab54.jpg,0,0,400,l,0,1,1,2,0,19,19,53,,,['l'],0,[0.034629433994268766],2018_Jul_09_1248,59.9865885871,go-nogo,001,25,
logos/3.jpg,properties3.xlsx,frogs/ab4.jpg,0,0,400,l,0,1,1,2,0,20,20,3,,,['l'],0,[0.05101458575518336],2018_Jul_09_1248,59.9865885871,go-nogo,001,25,
logos/3.jpg,properties3.xlsx,frogs/ab33.jpg,0,0,400,l,0,1,1,2,0,21,21,32,,,['l'],0,[0.05096281682017434],2018_Jul_09_1248,59.9865885871,go-nogo,001,25,
logos/3.jpg,properties3.xlsx,logos/3.jpg,0,0,400,a,0,1,1,2,0,22,22,85,,,['a'],0,[0.15091554211358016],2018_Jul_09_1248,59.9865885871,go-nogo,001,25,
logos/3.jpg,properties3.xlsx,frogs/ab30.jpg,0,0,400,l,0,1,1,2,0,23,23,29,,,['l'],0,[0.16702705808529572],2018_Jul_09_1248,59.9865885871,go-nogo,001,25,
logos/3.jpg,properties3.xlsx,frogs/ab6.jpg,0,0,400,l,0,1,1,2,0,24,24,5,,,['l'],0,[0.15160332936829946],2018_Jul_09_1248,59.9865885871,go-nogo,001,25,
logos/3.jpg,properties3.xlsx,frogs/ab61.jpg,0,0,400,l,0,1,1,2,0,25,25,59,,,['l'],0,[0.33434254308303935],2018_Jul_09_1248,59.9865885871,go-nogo,001,25,
logos/3.jpg,properties3.xlsx,frogs/ab46.jpg,0,0,400,l,0,1,1,2,0,26,26,45,,,['l'],0,[0.10090561499418982],2018_Jul_09_1248,59.9865885871,go-nogo,001,25,
logos/3.jpg,properties3.xlsx,frogs/ab34.jpg,0,0,400,l,0,1,1,2,0,27,27,33,,,['l'],0,[0.08437198310821259],2018_Jul_09_1248,59.9865885871,go-nogo,001,25,
logos/3.jpg,properties3.xlsx,frogs/ab63.jpg,0,0,400,l,0,1,1,2,0,28,28,61,,,['l'],0,[0.1167975396674592],2018_Jul_09_1248,59.9865885871,go-nogo,001,25,
logos/3.jpg,properties3.xlsx,frogs/ab70.jpg,0,0,400,l,0,1,1,2,0,29,29,68,,,['l'],0,[0.10095965948494268],2018_Jul_09_1248,59.9865885871,go-nogo,001,25,
logos/3.jpg,properties3.xlsx,frogs/ab42.jpg,0,0,400,l,0,1,1,2,0,30,30,41,,,['l'],0,[0.017571286105521722],2018_Jul_09_1248,59.9865885871,go-nogo,001,25,
logos/3.jpg,properties3.xlsx,frogs/ab29.jpg,0,0,400,l,0,1,1,2,0,31,31,28,,,['l'],0,[0.03451565611976548],2018_Jul_09_1248,59.9865885871,go-nogo,001,25,
logos/3.jpg,properties3.xlsx,frogs/ab67.jpg,0,0,400,l,0,1,1,2,0,32,32,65,,,['l'],0,[0.06776724004885182],2018_Jul_09_1248,59.9865885871,go-nogo,001,25,
logos/3.jpg,properties3.xlsx,frogs/ab2.jpg,0,0,400,l,0,1,1,2,0,33,33,1,,,['l'],0,[0.4176239652624645],2018_Jul_09_1248,59.9865885871,go-nogo,001,25,
logos/3.jpg,properties3.xlsx,frogs/ab65.jpg,0,0,400,l,0,1,1,2,0,34,34,63,,,['l'],0,[0.0011093342800450046],2018_Jul_09_1248,59.9865885871,go-nogo,001,25,
logos/3.jpg,properties3.xlsx,frogs/ab38.jpg,0,0,400,l,0,1,1,2,0,35,35,37,,,['l'],0,[0.1511561823208467],2018_Jul_09_1248,59.9865885871,go-nogo,001,25,
logos/3.jpg,properties3.xlsx,frogs/ab51.jpg,0,0,400,l,0,1,1,2,0,36,36,50,,,['l'],0,[0.0010979564922308782],2018_Jul_09_1248,59.9865885871,go-nogo,001,25,
logos/3.jpg,properties3.xlsx,frogs/ab62.jpg,0,0,400,l,0,1,1,2,0,37,37,60,,,['l'],0,[0.01906006959870865],2018_Jul_09_1248,59.9865885871,go-nogo,001,25,
logos/3.jpg,properties3.xlsx,frogs/ab47.jpg,0,0,400,l,0,1,1,2,0,38,38,46,,,['l'],0,[0.23395859964512056],2018_Jul_09_1248,59.9865885871,go-nogo,001,25,
logos/3.jpg,properties3.xlsx,frogs/ab24.jpg,0,0,400,l,0,1,1,2,0,39,39,23,,,['l'],0,[0.35092623723539873],2018_Jul_09_1248,59.9865885871,go-nogo,001,25,
logos/3.jpg,properties3.xlsx,frogs/ab48.jpg,0,0,400,l,0,1,1,2,0,40,40,47,,,['l'],0,[0.08418140516914718],2018_Jul_09_1248,59.9865885871,go-nogo,001,25,
logos/3.jpg,properties3.xlsx,frogs/ab8.jpg,0,0,400,l,0,1,1,2,0,41,41,7,,,['l'],0,[0.1842530283411179],2018_Jul_09_1248,59.9865885871,go-nogo,001,25,
logos/3.jpg,properties3.xlsx,frogs/ab25.jpg,0,0,400,l,0,1,1,2,0,42,42,24,,,['l'],0,[0.03432735373644391],2018_Jul_09_1248,59.9865885871,go-nogo,001,25,
logos/3.jpg,properties3.xlsx,frogs/ab1.jpg,0,0,400,l,0,1,1,2,0,43,43,0,,,['l'],0,[0.06789865349492175],2018_Jul_09_1248,59.9865885871,go-nogo,001,25,
logos/3.jpg,properties3.xlsx,frogs/ab28.jpg,0,0,400,l,0,1,1,2,0,44,44,27,,,['l'],0,[0.11748646470005042],2018_Jul_09_1248,59.9865885871,go-nogo,001,25,
logos/3.jpg,properties3.xlsx,logos/3.jpg,0,0,400,a,0,1,1,2,0,45,45,88,,,['a'],0,[0.03353944195441727],2018_Jul_09_1248,59.9865885871,go-nogo,001,25,
logos/3.jpg,properties3.xlsx,logos/3.jpg,0,0,400,a,0,1,1,2,0,46,46,80,,,['a'],0,[0.5508436344989605],2018_Jul_09_1248,59.9865885871,go-nogo,001,25,
logos/3.jpg,properties3.xlsx,frogs/ab58.jpg,0,0,400,l,0,1,1,2,0,47,47,57,,,['l'],0,[0.517593757234863],2018_Jul_09_1248,59.9865885871,go-nogo,001,25,
logos/3.jpg,properties3.xlsx,frogs/ab44.jpg,0,0,400,l,0,1,1,2,0,48,48,43,,,['l'],0,[0.4841789020538272],2018_Jul_09_1248,59.9865885871,go-nogo,001,25,
logos/3.jpg,properties3.xlsx,frogs/ab60.jpg,0,0,400,l,0,1,1,2,0,49,49,58,,,['l'],0,[0.23431984439775988],2018_Jul_09_1248,59.9865885871,go-nogo,001,25,
logos/3.jpg,properties3.xlsx,frogs/ab79.jpg,0,0,400,l,0,1,1,2,0,50,50,77,,,['l'],0,[0.6166152106234222],2018_Jul_09_1248,59.9865885871,go-nogo,001,25,
logos/3.jpg,properties3.xlsx,frogs/ab53.jpg,0,0,400,l,0,1,1,2,0,51,51,52,,,['l'],0,[0.23374640390829882],2018_Jul_09_1248,59.9865885871,go-nogo,001,25,
logos/3.jpg,properties3.xlsx,frogs/ab77.jpg,0,0,400,l,0,1,1,2,0,52,52,75,,,['l'],0,[0.18441004180749587],2018_Jul_09_1248,59.9865885871,go-nogo,001,25,
logos/3.jpg,properties3.xlsx,frogs/ab17.jpg,0,0,400,l,0,1,1,2,0,53,53,16,,,['l'],0,[0.05102027464818093],2018_Jul_09_1248,59.9865885871,go-nogo,001,25,
logos/3.jpg,properties3.xlsx,frogs/ab49.jpg,0,0,400,l,0,1,1,2,0,54,54,48,,,['l'],0,[0.2004828733006434],2018_Jul_09_1248,59.9865885871,go-nogo,001,25,
logos/3.jpg,properties3.xlsx,frogs/ab32.jpg,0,0,400,l,0,1,1,2,0,55,55,31,,,['l'],0,[0.13452413257073204],2018_Jul_09_1248,59.9865885871,go-nogo,001,25,
logos/3.jpg,properties3.xlsx,frogs/ab11.jpg,0,0,400,l,0,1,1,2,0,56,56,10,,,['l'],0,[0.11735789570047928],2018_Jul_09_1248,59.9865885871,go-nogo,001,25,
logos/3.jpg,properties3.xlsx,frogs/ab55.jpg,0,0,400,l,0,1,1,2,0,57,57,54,,,['l'],0,[0.10100460174544423],2018_Jul_09_1248,59.9865885871,go-nogo,001,25,
logos/3.jpg,properties3.xlsx,logos/3.jpg,0,0,400,a,0,1,1,2,0,58,58,82,,,['a'],0,[0.3187674897926627],2018_Jul_09_1248,59.9865885871,go-nogo,001,25,
logos/3.jpg,properties3.xlsx,frogs/ab16.jpg,0,0,400,l,0,1,1,2,0,59,59,15,,,['l'],0,[0.0011081965021730866],2018_Jul_09_1248,59.9865885871,go-nogo,001,25,
logos/3.jpg,properties3.xlsx,frogs/ab80.jpg,0,0,400,l,0,1,1,2,0,60,60,78,,,['l'],0,[0.617309255658256],2018_Jul_09_1248,59.9865885871,go-nogo,001,25,
logos/3.jpg,properties3.xlsx,logos/3.jpg,0,0,400,a,0,1,1,2,0,61,61,87,,,['a'],0,[0.28344059742448735],2018_Jul_09_1248,59.9865885871,go-nogo,001,25,
logos/3.jpg,properties3.xlsx,frogs/ab18.jpg,0,0,400,l,0,1,1,2,0,62,62,17,,,['l'],0,[0.0010985253811668372],2018_Jul_09_1248,59.9865885871,go-nogo,001,25,
logos/3.jpg,properties3.xlsx,frogs/ab9.jpg,0,0,400,l,0,1,1,2,0,63,63,8,,,['l'],0,[0.1172845089713519],2018_Jul_09_1248,59.9865885871,go-nogo,001,25,
logos/3.jpg,properties3.xlsx,frogs/ab56.jpg,0,0,400,l,0,1,1,2,0,64,64,55,,,['l'],0,[0.11686353083496215],2018_Jul_09_1248,59.9865885871,go-nogo,001,25,
logos/3.jpg,properties3.xlsx,frogs/ab31.jpg,0,0,400,l,0,1,1,2,0,65,65,30,,,['l'],0,[0.5507474921942048],2018_Jul_09_1248,59.9865885871,go-nogo,001,25,
logos/3.jpg,properties3.xlsx,frogs/ab50.jpg,0,0,400,l,0,1,1,2,0,66,66,49,,,['l'],0,[0.48440532002496184],2018_Jul_09_1248,59.9865885871,go-nogo,001,25,
logos/3.jpg,properties3.xlsx,frogs/ab15.jpg,0,0,400,l,0,1,1,2,0,67,67,14,,,['l'],0,[0.3675361002970021],2018_Jul_09_1248,59.9865885871,go-nogo,001,25,
logos/3.jpg,properties3.xlsx,frogs/ab39.jpg,0,0,400,l,0,1,1,2,0,68,68,38,,,['l'],0,[0.33488640132600267],2018_Jul_09_1248,59.9865885871,go-nogo,001,25,
logos/3.jpg,properties3.xlsx,frogs/ab27.jpg,0,0,400,l,0,1,1,2,0,69,69,26,,,['l'],0,[0.3675321180726314],2018_Jul_09_1248,59.9865885871,go-nogo,001,25,
logos/3.jpg,properties3.xlsx,frogs/ab5.jpg,0,0,400,l,0,1,1,2,0,70,70,4,,,['l'],0,[0.48418459094682476],2018_Jul_09_1248,59.9865885871,go-nogo,001,25,
logos/3.jpg,properties3.xlsx,frogs/ab81.jpg,0,0,400,l,0,1,1,2,0,71,71,79,,,['l'],0,[0.03456970061051834],2018_Jul_09_1248,59.9865885871,go-nogo,001,25,
logos/3.jpg,properties3.xlsx,frogs/ab21.jpg,0,0,400,l,0,1,1,2,0,72,72,20,,,['l'],0,[0.6170515487738157],2018_Jul_09_1248,59.9865885871,go-nogo,001,25,
logos/3.jpg,properties3.xlsx,frogs/ab66.jpg,0,0,400,l,0,1,1,2,0,73,73,64,,,['l'],0,[0.13420953674904013],2018_Jul_09_1248,59.9865885871,go-nogo,001,25,
logos/3.jpg,properties3.xlsx,frogs/ab20.jpg,0,0,400,l,0,1,1,2,0,74,74,19,,,['l'],0,[0.017700992882964783],2018_Jul_09_1248,59.9865885871,go-nogo,001,25,
logos/3.jpg,properties3.xlsx,frogs/ab7.jpg,0,0,400,l,0,1,1,2,0,75,75,6,,,['l'],0,[0.6674949695971009],2018_Jul_09_1248,59.9865885871,go-nogo,001,25,
logos/3.jpg,properties3.xlsx,logos/3.jpg,0,0,400,a,0,1,1,2,0,76,76,86,,,['a'],0,[0.300843492273998],2018_Jul_09_1248,59.9865885871,go-nogo,001,25,
logos/3.jpg,properties3.xlsx,frogs/ab35.jpg,0,0,400,l,0,1,1,2,0,77,77,34,,,['l'],0,[0.35092737501327065],2018_Jul_09_1248,59.9865885871,go-nogo,001,25,
logos/3.jpg,properties3.xlsx,frogs/ab78.jpg,0,0,400,l,0,1,1,2,0,78,78,76,,,['l'],0,[0.06775927559829142],2018_Jul_09_1248,59.9865885871,go-nogo,001,25,
logos/3.jpg,properties3.xlsx,frogs/ab13.jpg,0,0,400,l,0,1,1,2,0,79,79,12,,,['l'],0,[0.3785600385926955],2018_Jul_09_1248,59.9865885871,go-nogo,001,25,
logos/3.jpg,properties3.xlsx,frogs/ab71.jpg,0,0,400,l,0,1,1,2,0,80,80,69,,,['l'],0,[0.4512072116976924],2018_Jul_09_1248,59.9865885871,go-nogo,001,25,
logos/3.jpg,properties3.xlsx,frogs/ab64.jpg,0,0,400,l,0,1,1,2,0,81,81,62,,,['l'],0,[0.034422358261508634],2018_Jul_09_1248,59.9865885871,go-nogo,001,25,
logos/3.jpg,properties3.xlsx,frogs/ab10.jpg,0,0,400,l,0,1,1,2,0,82,82,9,,,['l'],0,[0.08436288087978028],2018_Jul_09_1248,59.9865885871,go-nogo,001,25,
logos/3.jpg,properties3.xlsx,frogs/ab37.jpg,0,0,400,l,0,1,1,2,0,83,83,36,,,['l'],0,[0.3326330305135343],2018_Jul_09_1248,59.9865885871,go-nogo,001,25,
logos/3.jpg,properties3.xlsx,frogs/ab76.jpg,0,0,400,l,0,1,1,2,0,84,84,74,,,['l'],0,[0.3007035454884317],2018_Jul_09_1248,59.9865885871,go-nogo,001,25,
logos/3.jpg,properties3.xlsx,frogs/ab36.jpg,0,0,400,l,0,1,1,2,0,85,85,35,,,['l'],0,[0.33436700532729446],2018_Jul_09_1248,59.9865885871,go-nogo,001,25,
logos/3.jpg,properties3.xlsx,frogs/ab75.jpg,0,0,400,l,0,1,1,2,0,86,86,73,,,['l'],0,[0.33415822292590747],2018_Jul_09_1248,59.9865885871,go-nogo,001,25,
logos/3.jpg,properties3.xlsx,frogs/ab72.jpg,0,0,400,l,0,1,1,2,0,87,87,70,,,['l'],0,[1.0330490593114519],2018_Jul_09_1248,59.9865885871,go-nogo,001,25,
logos/3.jpg,properties3.xlsx,frogs/ab14.jpg,0,0,400,l,0,1,1,2,0,88,88,13,,,['l'],0,[0.26747301046634675],2018_Jul_09_1248,59.9865885871,go-nogo,001,25,
logos/3.jpg,properties3.xlsx,logos/3.jpg,0,0,400,a,0,1,1,2,0,89,89,84,,,['a'],0,[0.2844492382846511],2018_Jul_09_1248,59.9865885871,go-nogo,001,25,
logos/3.jpg,properties3.xlsx,,,,,,0,1,1,2,,,,,,,,,,2018_Jul_09_1248,59.9865885871,go-nogo,001,25,
logos/1.jpg,properties1.xlsx,frogs/ab31.jpg,0,0,400,l,0,2,2,0,0,0,0,30,space,2.42811997422,['l'],0,[0.11754221585943014],2018_Jul_09_1248,59.9865885871,go-nogo,001,25,
logos/1.jpg,properties1.xlsx,frogs/ab37.jpg,0,0,400,l,0,2,2,0,0,1,1,36,,,['l'],0,[0.2510491742286831],2018_Jul_09_1248,59.9865885871,go-nogo,001,25,
logos/1.jpg,properties1.xlsx,frogs/ab35.jpg,0,0,400,l,0,2,2,0,0,2,2,34,,,['l'],0,[0.2674582193412789],2018_Jul_09_1248,59.9865885871,go-nogo,001,25,
logos/1.jpg,properties1.xlsx,frogs/ab6.jpg,0,0,400,l,0,2,2,0,0,3,3,5,,,['l'],0,[0.45067131790528947],2018_Jul_09_1248,59.9865885871,go-nogo,001,25,
logos/1.jpg,properties1.xlsx,frogs/ab74.jpg,0,0,400,l,0,2,2,0,0,4,4,72,,,['l'],0,[0.28400607346156903],2018_Jul_09_1248,59.9865885871,go-nogo,001,25,
logos/1.jpg,properties1.xlsx,frogs/ab9.jpg,0,0,400,l,0,2,2,0,0,5,5,8,,,['l'],0,[0.3341553784794087],2018_Jul_09_1248,59.9865885871,go-nogo,001,25,
logos/1.jpg,properties1.xlsx,frogs/ab66.jpg,0,0,400,l,0,2,2,0,0,6,6,64,,,['l'],0,[0.35081473491845827],2018_Jul_09_1248,59.9865885871,go-nogo,001,25,
logos/1.jpg,properties1.xlsx,frogs/ab30.jpg,0,0,400,l,0,2,2,0,0,7,7,29,,,['l'],0,[0.3176945644318039],2018_Jul_09_1248,59.9865885871,go-nogo,001,25,
logos/1.jpg,properties1.xlsx,frogs/ab43.jpg,0,0,400,l,0,2,2,0,0,8,8,42,,,['l'],0,[0.3009003812130686],2018_Jul_09_1248,59.9865885871,go-nogo,001,25,
logos/1.jpg,properties1.xlsx,frogs/ab73.jpg,0,0,400,l,0,2,2,0,0,9,9,71,,,['l'],0,[0.3009686479381344],2018_Jul_09_1248,59.9865885871,go-nogo,001,25,
logos/1.jpg,properties1.xlsx,frogs/ab70.jpg,0,0,400,l,0,2,2,0,0,10,10,68,,,['l'],0,[0.30013522500303225],2018_Jul_09_1248,59.9865885871,go-nogo,001,25,
logos/1.jpg,properties1.xlsx,frogs/ab23.jpg,0,0,400,l,0,2,2,0,0,11,11,22,,,['l'],0,[0.3508642282922665],2018_Jul_09_1248,59.9865885871,go-nogo,001,25,
logos/1.jpg,properties1.xlsx,logos/1.jpg,0,0,400,a,0,2,2,0,0,12,12,88,,,['a'],0,[0.4507742868827336],2018_Jul_09_1248,59.9865885871,go-nogo,001,25,
logos/1.jpg,properties1.xlsx,logos/1.jpg,0,0,400,a,0,2,2,0,0,13,13,87,,,['a'],0,[0.35104627289183554],2018_Jul_09_1248,59.9865885871,go-nogo,001,25,
logos/1.jpg,properties1.xlsx,frogs/ab50.jpg,0,0,400,l,0,2,2,0,0,14,14,49,,,['l'],0,[0.16754702297293989],2018_Jul_09_1248,59.9865885871,go-nogo,001,25,
logos/1.jpg,properties1.xlsx,frogs/ab21.jpg,0,0,400,l,0,2,2,0,0,15,15,20,,,['l'],0,[0.0836853336331842],2018_Jul_09_1248,59.9865885871,go-nogo,001,25,
logos/1.jpg,properties1.xlsx,frogs/ab39.jpg,0,0,400,l,0,2,2,0,0,16,16,38,,,['l'],0,[0.0836290135866875],2018_Jul_09_1248,59.9865885871,go-nogo,001,25,
logos/1.jpg,properties1.xlsx,frogs/ab69.jpg,0,0,400,l,0,2,2,0,0,17,17,67,,,['l'],0,[0.23412926645687548],2018_Jul_09_1248,59.9865885871,go-nogo,001,25,
logos/1.jpg,properties1.xlsx,frogs/ab58.jpg,0,0,400,l,0,2,2,0,0,18,18,57,,,['l'],0,[0.26794803309348936],2018_Jul_09_1248,59.9865885871,go-nogo,001,25,
logos/1.jpg,properties1.xlsx,frogs/ab65.jpg,0,0,400,l,0,2,2,0,0,19,19,63,,,['l'],0,[0.3838222653066623],2018_Jul_09_1248,59.9865885871,go-nogo,001,25,
logos/1.jpg,properties1.xlsx,frogs/ab61.jpg,0,0,400,l,0,2,2,0,0,20,20,59,,,['l'],0,[0.3007661233204999],2018_Jul_09_1248,59.9865885871,go-nogo,001,25,
logos/1.jpg,properties1.xlsx,frogs/ab28.jpg,0,0,400,l,0,2,2,0,0,21,21,27,,,['l'],0,[0.35084886828008166],2018_Jul_09_1248,59.9865885871,go-nogo,001,25,
logos/1.jpg,properties1.xlsx,frogs/ab17.jpg,0,0,400,l,0,2,2,0,0,22,22,16,,,['l'],0,[0.30088672786769166],2018_Jul_09_1248,59.9865885871,go-nogo,001,25,
logos/1.jpg,properties1.xlsx,logos/1.jpg,0,0,400,a,0,2,2,0,0,23,23,80,,,['a'],0,[0.46720551868202165],2018_Jul_09_1248,59.9865885871,go-nogo,001,25,
logos/1.jpg,properties1.xlsx,frogs/ab42.jpg,0,0,400,l,0,2,2,0,0,24,24,41,,,['l'],0,[0.36759298923425376],2018_Jul_09_1248,59.9865885871,go-nogo,001,25,
logos/1.jpg,properties1.xlsx,frogs/ab55.jpg,0,0,400,l,0,2,2,0,0,25,25,54,,,['l'],0,[0.35120669969728624],2018_Jul_09_1248,59.9865885871,go-nogo,001,25,
logos/1.jpg,properties1.xlsx,frogs/ab22.jpg,0,0,400,l,0,2,2,0,0,26,26,21,,,['l'],0,[0.31753186207242834],2018_Jul_09_1248,59.9865885871,go-nogo,001,25,
logos/1.jpg,properties1.xlsx,frogs/ab75.jpg,0,0,400,l,0,2,2,0,0,27,27,73,,,['l'],0,[0.23336354135972215],2018_Jul_09_1248,59.9865885871,go-nogo,001,25,
logos/1.jpg,properties1.xlsx,frogs/ab77.jpg,0,0,400,l,0,2,2,0,0,28,28,75,,,['l'],0,[0.11730043787429167],2018_Jul_09_1248,59.9865885871,go-nogo,001,25,
logos/1.jpg,properties1.xlsx,frogs/ab63.jpg,0,0,400,l,0,2,2,0,0,29,29,61,,,['l'],0,[0.11701542429727851],2018_Jul_09_1248,59.9865885871,go-nogo,001,25,
logos/1.jpg,properties1.xlsx,frogs/ab33.jpg,0,0,400,l,0,2,2,0,0,30,30,32,,,['l'],0,[0.3000248604657827],2018_Jul_09_1248,59.9865885871,go-nogo,001,25,
logos/1.jpg,properties1.xlsx,frogs/ab25.jpg,0,0,400,l,0,2,2,0,0,31,31,24,,,['l'],0,[0.35074476152476564],2018_Jul_09_1248,59.9865885871,go-nogo,001,25,
logos/1.jpg,properties1.xlsx,frogs/ab14.jpg,0,0,400,l,0,2,2,0,0,32,32,13,,,['l'],0,[0.05086496785042982],2018_Jul_09_1248,59.9865885871,go-nogo,001,25,
logos/1.jpg,properties1.xlsx,frogs/ab64.jpg,0,0,400,l,0,2,2,0,0,33,33,62,,,['l'],0,[0.251115734285122],2018_Jul_09_1248,59.9865885871,go-nogo,001,25,
logos/1.jpg,properties1.xlsx,frogs/ab24.jpg,0,0,400,l,0,2,2,0,0,34,34,23,,,['l'],0,[0.21743634554513847],2018_Jul_09_1248,59.9865885871,go-nogo,001,25,
logos/1.jpg,properties1.xlsx,frogs/ab52.jpg,0,0,400,l,0,2,2,0,0,35,35,51,,,['l'],0,[0.40106814668797597],2018_Jul_09_1248,59.9865885871,go-nogo,001,25,
logos/1.jpg,properties1.xlsx,frogs/ab54.jpg,0,0,400,l,0,2,2,0,0,36,36,53,,,['l'],0,[0.2675685838821664],2018_Jul_09_1248,59.9865885871,go-nogo,001,25,
logos/1.jpg,properties1.xlsx,frogs/ab38.jpg,0,0,400,l,0,2,2,0,0,37,37,37,,,['l'],0,[0.2842046158548328],2018_Jul_09_1248,59.9865885871,go-nogo,001,25,
logos/1.jpg,properties1.xlsx,frogs/ab3.jpg,0,0,400,l,0,2,2,0,0,38,38,2,,,['l'],0,[0.3342128363055963],2018_Jul_09_1248,59.9865885871,go-nogo,001,25,
logos/1.jpg,properties1.xlsx,logos/1.jpg,0,0,400,a,0,2,2,0,0,39,39,83,,,['a'],0,[0.3509159972254565],2018_Jul_09_1248,59.9865885871,go-nogo,001,25,
logos/1.jpg,properties1.xlsx,frogs/ab67.jpg,0,0,400,l,0,2,2,0,0,40,40,65,,,['l'],0,[0.3175768043311109],2018_Jul_09_1248,59.9865885871,go-nogo,001,25,
logos/1.jpg,properties1.xlsx,frogs/ab56.jpg,0,0,400,l,0,2,2,0,0,41,41,55,,,['l'],0,[0.3175961465713044],2018_Jul_09_1248,59.9865885871,go-nogo,001,25,
logos/1.jpg,properties1.xlsx,frogs/ab57.jpg,0,0,400,l,0,2,2,0,0,42,42,56,,,['l'],0,[0.13422262120366213],2018_Jul_09_1248,59.9865885871,go-nogo,001,25,
logos/1.jpg,properties1.xlsx,frogs/ab34.jpg,0,0,400,l,0,2,2,0,0,43,43,33,,,['l'],0,[0.10094202391519502],2018_Jul_09_1248,59.9865885871,go-nogo,001,25,
logos/1.jpg,properties1.xlsx,frogs/ab53.jpg,0,0,400,l,0,2,2,0,0,44,44,52,,,['l'],0,[0.0509383545795572],2018_Jul_09_1248,59.9865885871,go-nogo,001,25,
logos/1.jpg,properties1.xlsx,frogs/ab49.jpg,0,0,400,l,0,2,2,0,0,45,45,48,,,['l'],0,[0.0011133165062346961],2018_Jul_09_1248,59.9865885871,go-nogo,001,25,
logos/1.jpg,properties1.xlsx,frogs/ab16.jpg,0,0,400,l,0,2,2,0,0,46,46,15,,,['a'],0,[0.634041998828252],2018_Jul_09_1248,59.9865885871,go-nogo,001,25,
logos/1.jpg,properties1.xlsx,frogs/ab81.jpg,0,0,400,l,0,2,2,0,0,47,47,79,,,['l'],0,[0.3008417856071901],2018_Jul_09_1248,59.9865885871,go-nogo,001,25,
logos/1.jpg,properties1.xlsx,frogs/ab45.jpg,0,0,400,l,0,2,2,0,0,48,48,44,,,['l'],0,[0.33420259629747306],2018_Jul_09_1248,59.9865885871,go-nogo,001,25,
logos/1.jpg,properties1.xlsx,logos/1.jpg,0,0,400,a,0,2,2,0,0,49,49,84,,,['a'],0,[1.0504667452878493],2018_Jul_09_1248,59.9865885871,go-nogo,001,25,
logos/1.jpg,properties1.xlsx,frogs/ab26.jpg,0,0,400,l,0,2,2,0,0,50,50,25,,,['l'],0,[0.4507213801716716],2018_Jul_09_1248,59.9865885871,go-nogo,001,25,
logos/1.jpg,properties1.xlsx,frogs/ab40.jpg,0,0,400,l,0,2,2,0,0,51,51,39,,,['l'],0,[0.6505926973950409],2018_Jul_09_1248,59.9865885871,go-nogo,001,25,
logos/1.jpg,properties1.xlsx,frogs/ab1.jpg,0,0,400,l,0,2,2,0,0,52,52,0,,,['l'],0,[0.2674314815430989],2018_Jul_09_1248,59.9865885871,go-nogo,001,25,
logos/1.jpg,properties1.xlsx,frogs/ab32.jpg,0,0,400,l,0,2,2,0,0,53,53,31,,,['l'],0,[0.28749564088502666],2018_Jul_09_1248,59.9865885871,go-nogo,001,25,
logos/1.jpg,properties1.xlsx,logos/1.jpg,0,0,400,a,0,2,2,0,0,54,54,82,,,['a'],0,[0.384256896788429],2018_Jul_09_1248,59.9865885871,go-nogo,001,25,
logos/1.jpg,properties1.xlsx,frogs/ab29.jpg,0,0,400,l,0,2,2,0,0,55,55,28,,,['l'],0,[0.26761011280541425],2018_Jul_09_1248,59.9865885871,go-nogo,001,25,
logos/1.jpg,properties1.xlsx,frogs/ab19.jpg,0,0,400,l,0,2,2,0,0,56,56,18,,,['l'],0,[0.3434021063694672],2018_Jul_09_1248,59.9865885871,go-nogo,001,25,
logos/1.jpg,properties1.xlsx,frogs/ab46.jpg,0,0,400,l,0,2,2,0,0,57,57,45,,,['l'],0,[0.3334397156468185],2018_Jul_09_1248,59.9865885871,go-nogo,001,25,
logos/1.jpg,properties1.xlsx,frogs/ab62.jpg,0,0,400,l,0,2,2,0,0,58,58,60,,,['l'],0,[0.08369102252800076],2018_Jul_09_1248,59.9865885871,go-nogo,001,25,
logos/1.jpg,properties1.xlsx,frogs/ab71.jpg,0,0,400,l,0,2,2,0,0,59,59,69,,,['l'],0,[0.3677517093710776],2018_Jul_09_1248,59.9865885871,go-nogo,001,25,
logos/1.jpg,properties1.xlsx,frogs/ab44.jpg,0,0,400,l,0,2,2,0,0,60,60,43,,,['l'],0,[0.31757225321598526],2018_Jul_09_1248,59.9865885871,go-nogo,001,25,
logos/1.jpg,properties1.xlsx,frogs/ab10.jpg,0,0,400,l,0,2,2,0,0,61,61,9,,,['l'],0,[0.31739248417397903],2018_Jul_09_1248,59.9865885871,go-nogo,001,25,
logos/1.jpg,properties1.xlsx,frogs/ab68.jpg,0,0,400,l,0,2,2,0,0,62,62,66,,,['l'],0,[0.2675953216803464],2018_Jul_09_1248,59.9865885871,go-nogo,001,25,
logos/1.jpg,properties1.xlsx,frogs/ab4.jpg,0,0,400,l,0,2,2,0,0,63,63,3,,,['l'],0,[0.10096477949082328],2018_Jul_09_1248,59.9865885871,go-nogo,001,25,
logos/1.jpg,properties1.xlsx,logos/1.jpg,0,0,400,a,0,2,2,0,0,64,64,85,,,['a'],0,[0.6836940945304377],2018_Jul_09_1248,59.9865885871,go-nogo,001,25,
logos/1.jpg,properties1.xlsx,frogs/ab8.jpg,0,0,400,l,0,2,2,0,0,65,65,7,,,['l'],0,[0.18443393516099604],2018_Jul_09_1248,59.9865885871,go-nogo,001,25,
logos/1.jpg,properties1.xlsx,frogs/ab13.jpg,0,0,400,l,0,2,2,0,0,66,66,12,,,['l'],0,[0.301051705786449],2018_Jul_09_1248,59.9865885871,go-nogo,001,25,
logos/1.jpg,properties1.xlsx,frogs/ab11.jpg,0,0,400,l,0,2,2,0,0,67,67,10,,,['l'],0,[0.33270072834966413],2018_Jul_09_1248,59.9865885871,go-nogo,001,25,
logos/1.jpg,properties1.xlsx,frogs/ab76.jpg,0,0,400,l,0,2,2,0,0,68,68,74,,,['l'],0,[0.31681164812289353],2018_Jul_09_1248,59.9865885871,go-nogo,001,25,
logos/1.jpg,properties1.xlsx,frogs/ab60.jpg,0,0,400,l,0,2,2,0,0,69,69,58,,,['l'],0,[0.28419608251351747],2018_Jul_09_1248,59.9865885871,go-nogo,001,25,
logos/1.jpg,properties1.xlsx,logos/1.jpg,0,0,400,a,0,2,2,0,0,70,70,81,,,['a'],0,[0.38418066561280284],2018_Jul_09_1248,59.9865885871,go-nogo,001,25,
logos/1.jpg,properties1.xlsx,frogs/ab18.jpg,0,0,400,l,0,2,2,0,0,71,71,17,,,['l'],0,[0.3839656254294823],2018_Jul_09_1248,59.9865885871,go-nogo,001,25,
logos/1.jpg,properties1.xlsx,frogs/ab51.jpg,0,0,400,l,0,2,2,0,0,72,72,50,,,['l'],0,[0.35103432621508546],2018_Jul_09_1248,59.9865885871,go-nogo,001,25,
logos/1.jpg,properties1.xlsx,frogs/ab48.jpg,0,0,400,l,0,2,2,0,0,73,73,47,,,['l'],0,[0.31754210208055156],2018_Jul_09_1248,59.9865885871,go-nogo,001,25,
logos/1.jpg,properties1.xlsx,frogs/ab78.jpg,0,0,400,l,0,2,2,0,0,74,74,76,,,['l'],0,[0.2841511402530159],2018_Jul_09_1248,59.9865885871,go-nogo,001,25,
logos/1.jpg,properties1.xlsx,frogs/ab72.jpg,0,0,400,l,0,2,2,0,0,75,75,70,,,['l'],0,[0.40135429804468004],2018_Jul_09_1248,59.9865885871,go-nogo,001,25,
logos/1.jpg,properties1.xlsx,frogs/ab5.jpg,0,0,400,l,0,2,2,0,0,76,76,4,,,['l'],0,[0.4340261837023718],2018_Jul_09_1248,59.9865885871,go-nogo,001,25,
logos/1.jpg,properties1.xlsx,frogs/ab15.jpg,0,0,400,l,0,2,2,0,0,77,77,14,,,['l'],0,[0.3007843277810025],2018_Jul_09_1248,59.9865885871,go-nogo,001,25,
logos/1.jpg,properties1.xlsx,frogs/ab12.jpg,0,0,400,l,0,2,2,0,0,78,78,11,,,['l'],0,[0.38427567013786756],2018_Jul_09_1248,59.9865885871,go-nogo,001,25,
logos/1.jpg,properties1.xlsx,frogs/ab80.jpg,0,0,400,l,0,2,2,0,0,79,79,78,,,['a'],0,[0.05104985689649766],2018_Jul_09_1248,59.9865885871,go-nogo,001,25,
logos/1.jpg,properties1.xlsx,frogs/ab41.jpg,0,0,400,l,0,2,2,0,0,80,80,40,,,['l'],0,[0.18465523312806909],2018_Jul_09_1248,59.9865885871,go-nogo,001,25,
logos/1.jpg,properties1.xlsx,frogs/ab20.jpg,0,0,400,l,0,2,2,0,0,81,81,19,,,['l'],0,[0.06756300876440946],2018_Jul_09_1248,59.9865885871,go-nogo,001,25,
logos/1.jpg,properties1.xlsx,frogs/ab2.jpg,0,0,400,l,0,2,2,0,0,82,82,1,,,['l'],0,[0.03438139822719677],2018_Jul_09_1248,59.9865885871,go-nogo,001,25,
logos/1.jpg,properties1.xlsx,frogs/ab36.jpg,0,0,400,l,0,2,2,0,0,83,83,35,,,['l'],0,[0.017522361618830473],2018_Jul_09_1248,59.9865885871,go-nogo,001,25,
logos/1.jpg,properties1.xlsx,logos/1.jpg,0,0,400,a,0,2,2,0,0,84,84,86,,,['a'],0,[0.45048244663485093],2018_Jul_09_1248,59.9865885871,go-nogo,001,25,
logos/1.jpg,properties1.xlsx,logos/1.jpg,0,0,400,a,0,2,2,0,0,85,85,89,,,['a'],0,[0.4340352859326231],2018_Jul_09_1248,59.9865885871,go-nogo,001,25,
logos/1.jpg,properties1.xlsx,frogs/ab27.jpg,0,0,400,l,0,2,2,0,0,86,86,26,,,['l'],0,[0.08434296975065081],2018_Jul_09_1248,59.9865885871,go-nogo,001,25,
logos/1.jpg,properties1.xlsx,frogs/ab79.jpg,0,0,400,l,0,2,2,0,0,87,87,77,,,['l'],0,[0.051341697144380305],2018_Jul_09_1248,59.9865885871,go-nogo,001,25,
logos/1.jpg,properties1.xlsx,frogs/ab47.jpg,0,0,400,l,0,2,2,0,0,88,88,46,,,['l'],0,[0.4844343333843426],2018_Jul_09_1248,59.9865885871,go-nogo,001,25,
logos/1.jpg,properties1.xlsx,frogs/ab7.jpg,0,0,400,l,0,2,2,0,0,89,89,6,,,['l'],0,[0.25081024069004343],2018_Jul_09_1248,59.9865885871,go-nogo,001,25,
logos/1.jpg,properties1.xlsx,,,,,,0,2,2,0,,,,,,,,,,2018_Jul_09_1248,59.9865885871,go-nogo,001,25,
logos/4.jpg,properties4.xlsx,frogs/ab22.jpg,0,0,400,l,0,3,3,3,0,0,0,21,space,2.7310456016,['l'],0,[0.5509079189978365],2018_Jul_09_1248,59.9865885871,go-nogo,001,25,
logos/4.jpg,properties4.xlsx,frogs/ab52.jpg,0,0,400,l,0,3,3,3,0,1,1,51,,,['l'],0,[0.7673054725437396],2018_Jul_09_1248,59.9865885871,go-nogo,001,25,
logos/4.jpg,properties4.xlsx,frogs/ab67.jpg,0,0,400,l,0,3,3,3,0,2,2,65,,,['l'],0,[0.2208684551405895],2018_Jul_09_1248,59.9865885871,go-nogo,001,25,
logos/4.jpg,properties4.xlsx,frogs/ab6.jpg,0,0,400,l,0,3,3,3,0,3,3,5,,,['l'],0,[0.26777053960722697],2018_Jul_09_1248,59.9865885871,go-nogo,001,25,
logos/4.jpg,properties4.xlsx,frogs/ab62.jpg,0,0,400,l,0,3,3,3,0,4,4,60,,,['l'],0,[0.2842046158548328],2018_Jul_09_1248,59.9865885871,go-nogo,001,25,
logos/4.jpg,properties4.xlsx,frogs/ab24.jpg,0,0,400,l,0,3,3,3,0,5,5,23,,,['l'],0,[0.31758419989455433],2018_Jul_09_1248,59.9865885871,go-nogo,001,25,
logos/4.jpg,properties4.xlsx,frogs/ab61.jpg,0,0,400,l,0,3,3,3,0,6,6,59,,,['l'],0,[0.16694570690560795],2018_Jul_09_1248,59.9865885871,go-nogo,001,25,
logos/4.jpg,properties4.xlsx,frogs/ab5.jpg,0,0,400,l,0,3,3,3,0,7,7,4,,,['l'],0,[0.26682845880532113],2018_Jul_09_1248,59.9865885871,go-nogo,001,25,
logos/4.jpg,properties4.xlsx,logos/4.jpg,0,0,400,a,0,3,3,3,0,8,8,84,,,['a'],0,[0.48353719483930035],2018_Jul_09_1248,59.9865885871,go-nogo,001,25,
logos/4.jpg,properties4.xlsx,frogs/ab31.jpg,0,0,400,l,0,3,3,3,0,9,9,30,,,['l'],0,[0.3343493697557278],2018_Jul_09_1248,59.9865885871,go-nogo,001,25,
logos/4.jpg,properties4.xlsx,frogs/ab80.jpg,0,0,400,l,0,3,3,3,0,10,10,78,,,['l'],0,[0.800595740953213],2018_Jul_09_1248,59.9865885871,go-nogo,001,25,
logos/4.jpg,properties4.xlsx,frogs/ab47.jpg,0,0,400,l,0,3,3,3,0,11,11,46,,,['l'],0,[0.35085171272658044],2018_Jul_09_1248,59.9865885871,go-nogo,001,25,
logos/4.jpg,properties4.xlsx,frogs/ab36.jpg,0,0,400,l,0,3,3,3,0,12,12,35,,,['l'],0,[0.35087219274464587],2018_Jul_09_1248,59.9865885871,go-nogo,001,25,
logos/4.jpg,properties4.xlsx,frogs/ab55.jpg,0,0,400,l,0,3,3,3,0,13,13,54,,,['l'],0,[0.13405650550703285],2018_Jul_09_1248,59.9865885871,go-nogo,001,25,
logos/4.jpg,properties4.xlsx,frogs/ab78.jpg,0,0,400,l,0,3,3,3,0,14,14,76,,,['l'],0,[0.21755012341964175],2018_Jul_09_1248,59.9865885871,go-nogo,001,25,
logos/4.jpg,properties4.xlsx,frogs/ab77.jpg,0,0,400,l,0,3,3,3,0,15,15,75,,,['l'],0,[0.2008509447259712],2018_Jul_09_1248,59.9865885871,go-nogo,001,25,
logos/4.jpg,properties4.xlsx,frogs/ab39.jpg,0,0,400,l,0,3,3,3,0,16,16,38,,,['l'],0,[0.1511851956784085],2018_Jul_09_1248,59.9865885871,go-nogo,001,25,
logos/4.jpg,properties4.xlsx,frogs/ab72.jpg,0,0,400,l,0,3,3,3,0,17,17,70,,,['l'],0,[0.33421738742072193],2018_Jul_09_1248,59.9865885871,go-nogo,001,25,
logos/4.jpg,properties4.xlsx,frogs/ab71.jpg,0,0,400,l,0,3,3,3,0,18,18,69,,,['l'],0,[0.1841694016038673],2018_Jul_09_1248,59.9865885871,go-nogo,001,25,
logos/4.jpg,properties4.xlsx,frogs/ab19.jpg,0,0,400,l,0,3,3,3,0,19,19,18,,,['l'],0,[0.26739962373721937],2018_Jul_09_1248,59.9865885871,go-nogo,001,25,
logos/4.jpg,properties4.xlsx,frogs/ab60.jpg,0,0,400,l,0,3,3,3,0,20,20,58,,,['l'],0,[0.08427072079939535],2018_Jul_09_1248,59.9865885871,go-nogo,001,25,
logos/4.jpg,properties4.xlsx,frogs/ab18.jpg,0,0,400,l,0,3,3,3,0,21,21,17,,,['l'],0,[0.1176668026309926],2018_Jul_09_1248,59.9865885871,go-nogo,001,25,
logos/4.jpg,properties4.xlsx,logos/4.jpg,0,0,400,a,0,3,3,3,0,22,22,86,,,['a'],0,[0.6841059704365762],2018_Jul_09_1248,59.9865885871,go-nogo,001,25,
logos/4.jpg,properties4.xlsx,frogs/ab40.jpg,0,0,400,l,0,3,3,3,0,23,23,39,,,['l'],0,[0.21757515455283283],2018_Jul_09_1248,59.9865885871,go-nogo,001,25,
logos/4.jpg,properties4.xlsx,frogs/ab17.jpg,0,0,400,l,0,3,3,3,0,24,24,16,,,['l'],0,[0.1915399323352176],2018_Jul_09_1248,59.9865885871,go-nogo,001,25,
logos/4.jpg,properties4.xlsx,logos/4.jpg,0,0,400,a,0,3,3,3,0,25,25,89,,,['a'],0,[0.23429253770700598],2018_Jul_09_1248,59.9865885871,go-nogo,001,25,
logos/4.jpg,properties4.xlsx,frogs/ab38.jpg,0,0,400,l,0,3,3,3,0,26,26,37,,,['l'],0,[0.10211905602955085],2018_Jul_09_1248,59.9865885871,go-nogo,001,25,
logos/4.jpg,properties4.xlsx,frogs/ab58.jpg,0,0,400,l,0,3,3,3,0,27,27,57,,,['l'],0,[0.6513914180759457],2018_Jul_09_1248,59.9865885871,go-nogo,001,25,
logos/4.jpg,properties4.xlsx,frogs/ab53.jpg,0,0,400,l,0,3,3,3,0,28,28,52,,,['l'],0,[0.23419980873950408],2018_Jul_09_1248,59.9865885871,go-nogo,001,25,
logos/4.jpg,properties4.xlsx,frogs/ab45.jpg,0,0,400,l,0,3,3,3,0,29,29,44,,,['l'],0,[0.28413521135007613],2018_Jul_09_1248,59.9865885871,go-nogo,001,25,
logos/4.jpg,properties4.xlsx,logos/4.jpg,0,0,400,a,0,3,3,3,0,30,30,87,,,['a'],0,[0.33420259629747306],2018_Jul_09_1248,59.9865885871,go-nogo,001,25,
logos/4.jpg,properties4.xlsx,frogs/ab11.jpg,0,0,400,l,0,3,3,3,0,31,31,10,,,['l'],0,[0.36749400248481834],2018_Jul_09_1248,59.9865885871,go-nogo,001,25,
logos/4.jpg,properties4.xlsx,frogs/ab70.jpg,0,0,400,l,0,3,3,3,0,32,32,68,,,['l'],0,[0.3166813724565145],2018_Jul_09_1248,59.9865885871,go-nogo,001,25,
logos/4.jpg,properties4.xlsx,frogs/ab48.jpg,0,0,400,l,0,3,3,3,0,33,33,47,,,['l'],0,[0.300986852398637],2018_Jul_09_1248,59.9865885871,go-nogo,001,25,
logos/4.jpg,properties4.xlsx,frogs/ab1.jpg,0,0,400,l,0,3,3,3,0,34,34,0,,,['l'],0,[0.26741555263834016],2018_Jul_09_1248,59.9865885871,go-nogo,001,25,
logos/4.jpg,properties4.xlsx,frogs/ab43.jpg,0,0,400,l,0,3,3,3,0,35,35,42,,,['l'],0,[0.2841744647175801],2018_Jul_09_1248,59.9865885871,go-nogo,001,25,
logos/4.jpg,properties4.xlsx,frogs/ab63.jpg,0,0,400,l,0,3,3,3,0,36,36,61,,,['l'],0,[0.28420689141239563],2018_Jul_09_1248,59.9865885871,go-nogo,001,25,
logos/4.jpg,properties4.xlsx,frogs/ab8.jpg,0,0,400,l,0,3,3,3,0,37,37,7,,,['l'],0,[0.38385810533691256],2018_Jul_09_1248,59.9865885871,go-nogo,001,25,
logos/4.jpg,properties4.xlsx,frogs/ab16.jpg,0,0,400,l,0,3,3,3,0,38,38,15,,,['l'],0,[0.034451371620889404],2018_Jul_09_1248,59.9865885871,go-nogo,001,25,
logos/4.jpg,properties4.xlsx,frogs/ab57.jpg,0,0,400,l,0,3,3,3,0,39,39,56,,,['l'],0,[0.10115194409445394],2018_Jul_09_1248,59.9865885871,go-nogo,001,25,
logos/4.jpg,properties4.xlsx,frogs/ab51.jpg,0,0,400,l,0,3,3,3,0,40,40,50,,,['l'],0,[0.08420814296914614],2018_Jul_09_1248,59.9865885871,go-nogo,001,25,
logos/4.jpg,properties4.xlsx,frogs/ab29.jpg,0,0,400,l,0,3,3,3,0,41,41,28,,,['l'],0,[0.5673510974738747],2018_Jul_09_1248,59.9865885871,go-nogo,001,25,
logos/4.jpg,properties4.xlsx,frogs/ab79.jpg,0,0,400,l,0,3,3,3,0,42,42,77,,,['l'],0,[0.23427035102213267],2018_Jul_09_1248,59.9865885871,go-nogo,001,25,
logos/4.jpg,properties4.xlsx,frogs/ab25.jpg,0,0,400,l,0,3,3,3,0,43,43,24,,,['l'],0,[0.184264975016049],2018_Jul_09_1248,59.9865885871,go-nogo,001,25,
logos/4.jpg,properties4.xlsx,frogs/ab27.jpg,0,0,400,l,0,3,3,3,0,44,44,26,,,['l'],0,[0.00037489809801627416],2018_Jul_09_1248,59.9865885871,go-nogo,001,25,
logos/4.jpg,properties4.xlsx,frogs/ab26.jpg,0,0,400,l,0,3,3,3,0,45,45,25,,,['l'],0,[0.26751624605822144],2018_Jul_09_1248,59.9865885871,go-nogo,001,25,
logos/4.jpg,properties4.xlsx,logos/4.jpg,0,0,400,a,0,3,3,3,0,46,46,82,,,['a'],0,[0.2507334406273003],2018_Jul_09_1248,59.9865885871,go-nogo,001,25,
logos/4.jpg,properties4.xlsx,logos/4.jpg,0,0,400,a,0,3,3,3,0,47,47,83,,,['a'],0,[0.20089702476616367],2018_Jul_09_1248,59.9865885871,go-nogo,001,25,
logos/4.jpg,properties4.xlsx,frogs/ab28.jpg,0,0,400,l,0,3,3,3,0,48,48,27,,,['l'],0,[0.2675623260965949],2018_Jul_09_1248,59.9865885871,go-nogo,001,25,
logos/4.jpg,properties4.xlsx,frogs/ab44.jpg,0,0,400,l,0,3,3,3,0,49,49,43,,,['l'],0,[0.23420151540631196],2018_Jul_09_1248,59.9865885871,go-nogo,001,25,
logos/4.jpg,properties4.xlsx,frogs/ab35.jpg,0,0,400,l,0,3,3,3,0,50,50,34,,,['l'],0,[0.21762294125983317],2018_Jul_09_1248,59.9865885871,go-nogo,001,25,
logos/4.jpg,properties4.xlsx,frogs/ab41.jpg,0,0,400,l,0,3,3,3,0,51,51,40,,,['l'],0,[0.23423280432143656],2018_Jul_09_1248,59.9865885871,go-nogo,001,25,
logos/4.jpg,properties4.xlsx,frogs/ab10.jpg,0,0,400,l,0,3,3,3,0,52,52,9,,,['l'],0,[0.20089588698647276],2018_Jul_09_1248,59.9865885871,go-nogo,001,25,
logos/4.jpg,properties4.xlsx,frogs/ab30.jpg,0,0,400,l,0,3,3,3,0,53,53,29,,,['l'],0,[0.1839947525641037],2018_Jul_09_1248,59.9865885871,go-nogo,001,25,
logos/4.jpg,properties4.xlsx,frogs/ab13.jpg,0,0,400,l,0,3,3,3,0,54,54,12,,,['l'],0,[0.13438418578516576],2018_Jul_09_1248,59.9865885871,go-nogo,001,25,
logos/4.jpg,properties4.xlsx,frogs/ab81.jpg,0,0,400,l,0,3,3,3,0,55,55,79,,,['l'],0,[0.16762552970612887],2018_Jul_09_1248,59.9865885871,go-nogo,001,25,
logos/4.jpg,properties4.xlsx,logos/4.jpg,0,0,400,a,0,3,3,3,0,56,56,88,,,['a'],0,[0.9841717909384897],2018_Jul_09_1248,59.9865885871,go-nogo,001,25,
logos/4.jpg,properties4.xlsx,frogs/ab32.jpg,0,0,400,l,0,3,3,3,0,57,57,31,,,['l'],0,[0.20114619831110758],2018_Jul_09_1248,59.9865885871,go-nogo,001,25,
logos/4.jpg,properties4.xlsx,logos/4.jpg,0,0,400,a,0,3,3,3,0,58,58,81,,,['a'],0,[0.48423408432427095],2018_Jul_09_1248,59.9865885871,go-nogo,001,25,
logos/4.jpg,properties4.xlsx,frogs/ab76.jpg,0,0,400,l,0,3,3,3,0,59,59,74,,,['l'],0,[0.2009163670045382],2018_Jul_09_1248,59.9865885871,go-nogo,001,25,
logos/4.jpg,properties4.xlsx,frogs/ab54.jpg,0,0,400,l,0,3,3,3,0,60,60,53,,,['l'],0,[0.001104214275983395],2018_Jul_09_1248,59.9865885871,go-nogo,001,25,
logos/4.jpg,properties4.xlsx,frogs/ab73.jpg,0,0,400,l,0,3,3,3,0,61,61,71,,,['l'],0,[0.21754841675283387],2018_Jul_09_1248,59.9865885871,go-nogo,001,25,
logos/4.jpg,properties4.xlsx,frogs/ab2.jpg,0,0,400,l,0,3,3,3,0,62,62,1,,,['l'],0,[0.11751832250411098],2018_Jul_09_1248,59.9865885871,go-nogo,001,25,
logos/4.jpg,properties4.xlsx,frogs/ab74.jpg,0,0,400,l,0,3,3,3,0,63,63,72,,,['l'],0,[0.1677074497765716],2018_Jul_09_1248,59.9865885871,go-nogo,001,25,
logos/4.jpg,properties4.xlsx,frogs/ab75.jpg,0,0,400,l,0,3,3,3,0,64,64,73,,,['l'],0,[0.13438646134272858],2018_Jul_09_1248,59.9865885871,go-nogo,001,25,
logos/4.jpg,properties4.xlsx,logos/4.jpg,0,0,400,a,0,3,3,3,0,65,65,80,,,['a'],0,[0.05096623015742807],2018_Jul_09_1248,59.9865885871,go-nogo,001,25,
logos/4.jpg,properties4.xlsx,frogs/ab15.jpg,0,0,400,l,0,3,3,3,0,66,66,14,,,['l'],0,[0.08422065853483218],2018_Jul_09_1248,59.9865885871,go-nogo,001,25,
logos/4.jpg,properties4.xlsx,frogs/ab14.jpg,0,0,400,l,0,3,3,3,0,67,67,13,,,['l'],0,[0.05092811456961499],2018_Jul_09_1248,59.9865885871,go-nogo,001,25,
logos/4.jpg,properties4.xlsx,frogs/ab7.jpg,0,0,400,l,0,3,3,3,0,68,68,6,,,['l'],0,[0.08435889865359059],2018_Jul_09_1248,59.9865885871,go-nogo,001,25,
logos/4.jpg,properties4.xlsx,frogs/ab66.jpg,0,0,400,l,0,3,3,3,0,69,69,64,,,['l'],0,[0.08456995661072142],2018_Jul_09_1248,59.9865885871,go-nogo,001,25,
logos/4.jpg,properties4.xlsx,frogs/ab56.jpg,0,0,400,l,0,3,3,3,0,70,70,55,,,['l'],0,[0.000980196391537902],2018_Jul_09_1248,59.9865885871,go-nogo,001,25,
logos/4.jpg,properties4.xlsx,frogs/ab64.jpg,0,0,400,l,0,3,3,3,0,71,71,62,,,['l'],0,[0.08446755652403226],2018_Jul_09_1248,59.9865885871,go-nogo,001,25,
logos/4.jpg,properties4.xlsx,frogs/ab3.jpg,0,0,400,l,0,3,3,3,0,72,72,2,,,['l'],0,[0.050829696707296534],2018_Jul_09_1248,59.9865885871,go-nogo,001,25,
logos/4.jpg,properties4.xlsx,frogs/ab20.jpg,0,0,400,l,0,3,3,3,0,73,73,19,,,['l'],0,[0.1175820381140511],2018_Jul_09_1248,59.9865885871,go-nogo,001,25,
logos/4.jpg,properties4.xlsx,frogs/ab34.jpg,0,0,400,l,0,3,3,3,0,74,74,33,,,['l'],0,[0.08424227633076953],2018_Jul_09_1248,59.9865885871,go-nogo,001,25,
logos/4.jpg,properties4.xlsx,frogs/ab12.jpg,0,0,400,l,0,3,3,3,0,75,75,11,,,['l'],0,[0.08420359185402049],2018_Jul_09_1248,59.9865885871,go-nogo,001,25,
logos/4.jpg,properties4.xlsx,frogs/ab49.jpg,0,0,400,l,0,3,3,3,0,76,76,48,,,['l'],0,[0.11767135374611826],2018_Jul_09_1248,59.9865885871,go-nogo,001,25,
logos/4.jpg,properties4.xlsx,logos/4.jpg,0,0,400,a,0,3,3,3,0,77,77,85,,,['a'],0,[0.06737925749621354],2018_Jul_09_1248,59.9865885871,go-nogo,001,25,
logos/4.jpg,properties4.xlsx,frogs/ab21.jpg,0,0,400,l,0,3,3,3,0,78,78,20,,,['l'],0,[0.31747667980380356],2018_Jul_09_1248,59.9865885871,go-nogo,001,25,
logos/4.jpg,properties4.xlsx,frogs/ab33.jpg,0,0,400,l,0,3,3,3,0,79,79,32,,,['l'],0,[0.05086098562424013],2018_Jul_09_1248,59.9865885871,go-nogo,001,25,
logos/4.jpg,properties4.xlsx,frogs/ab4.jpg,0,0,400,l,0,3,3,3,0,80,80,3,,,['l'],0,[0.08417116515920497],2018_Jul_09_1248,59.9865885871,go-nogo,001,25,
logos/4.jpg,properties4.xlsx,frogs/ab68.jpg,0,0,400,l,0,3,3,3,0,81,81,66,,,['l'],0,[0.13387389201670885],2018_Jul_09_1248,59.9865885871,go-nogo,001,25,
logos/4.jpg,properties4.xlsx,frogs/ab37.jpg,0,0,400,l,0,3,3,3,0,82,82,36,,,['l'],0,[0.0009762141671671998],2018_Jul_09_1248,59.9865885871,go-nogo,001,25,
logos/4.jpg,properties4.xlsx,frogs/ab69.jpg,0,0,400,l,0,3,3,3,0,83,83,67,,,['l'],0,[0.00033621361944824457],2018_Jul_09_1248,59.9865885871,go-nogo,001,25,
logos/4.jpg,properties4.xlsx,frogs/ab46.jpg,0,0,400,l,0,3,3,3,0,84,84,45,,,['l'],0,[0.03469997627689736],2018_Jul_09_1248,59.9865885871,go-nogo,001,25,
logos/4.jpg,properties4.xlsx,frogs/ab50.jpg,0,0,400,l,0,3,3,3,0,85,85,49,,,['l'],0,[0.0676238799278508],2018_Jul_09_1248,59.9865885871,go-nogo,001,25,
logos/4.jpg,properties4.xlsx,frogs/ab9.jpg,0,0,400,l,0,3,3,3,0,86,86,8,,,['l'],0,[0.017472299354267307],2018_Jul_09_1248,59.9865885871,go-nogo,001,25,
logos/4.jpg,properties4.xlsx,frogs/ab23.jpg,0,0,400,l,0,3,3,3,0,87,87,22,,,['l'],0,[0.3176325554923096],2018_Jul_09_1248,59.9865885871,go-nogo,001,25,
logos/4.jpg,properties4.xlsx,frogs/ab65.jpg,0,0,400,l,0,3,3,3,0,88,88,63,,,['l'],0,[0.3005311720080499],2018_Jul_09_1248,59.9865885871,go-nogo,001,25,
logos/4.jpg,properties4.xlsx,frogs/ab42.jpg,0,0,400,l,0,3,3,3,0,89,89,41,,,['l'],0,[0.1340872255332215],2018_Jul_09_1248,59.9865885871,go-nogo,001,25,
logos/4.jpg,properties4.xlsx,,,,,,0,3,3,3,,,,,,,,,,2018_Jul_09_1248,59.9865885871,go-nogo,001,25,
