pix,source,image1,x,y,size,answer,trials_2.thisRepN,trials_2.thisTrialN,trials_2.thisN,trials_2.thisIndex,trials.thisRepN,trials.thisTrialN,trials.thisN,trials.thisIndex,key_resp_3.keys,key_resp_3.rt,key_resp_2.keys,key_resp_2.corr,key_resp_2.rt,date,frameRate,expName,session,participant,
logos/3.jpg,properties3.xlsx,frogs/ab80.jpg,0,0,400,l,0,0,0,2,0,0,0,78,space,17.2334101624,['l'],0,[0.11804918102279771],2018_Jul_09_0548,60.0323347144,go-nogo,001,26,
logos/3.jpg,properties3.xlsx,logos/3.jpg,0,0,400,a,0,0,0,2,0,1,1,87,,,['a'],0,[0.23454720302834176],2018_Jul_09_0548,60.0323347144,go-nogo,001,26,
logos/3.jpg,properties3.xlsx,frogs/ab52.jpg,0,0,400,l,0,0,0,2,0,2,2,51,,,['l'],0,[0.0010375272540841252],2018_Jul_09_0548,60.0323347144,go-nogo,001,26,
logos/3.jpg,properties3.xlsx,frogs/ab18.jpg,0,0,400,l,0,0,0,2,0,3,3,17,,,['l'],0,[0.10112655378179625],2018_Jul_09_0548,60.0323347144,go-nogo,001,26,
logos/3.jpg,properties3.xlsx,frogs/ab62.jpg,0,0,400,l,0,0,0,2,0,4,4,60,,,['l'],0,[0.1629917377140373],2018_Jul_09_0548,60.0323347144,go-nogo,001,26,
logos/3.jpg,properties3.xlsx,frogs/ab74.jpg,0,0,400,l,0,0,0,2,0,5,5,72,,,['l'],0,[0.31715489947237074],2018_Jul_09_0548,60.0323347144,go-nogo,001,26,
logos/3.jpg,properties3.xlsx,frogs/ab14.jpg,0,0,400,l,0,0,0,2,0,6,6,13,,,['l'],0,[2.5503236415679567],2018_Jul_09_0548,60.0323347144,go-nogo,001,26,
logos/3.jpg,properties3.xlsx,frogs/ab39.jpg,0,0,400,l,0,0,0,2,0,7,7,38,,,['l'],0,[0.10123766960168723],2018_Jul_09_0548,60.0323347144,go-nogo,001,26,
logos/3.jpg,properties3.xlsx,frogs/ab46.jpg,0,0,400,l,0,0,0,2,0,8,8,45,,,['l'],0,[0.10079052882792894],2018_Jul_09_0548,60.0323347144,go-nogo,001,26,
logos/3.jpg,properties3.xlsx,frogs/ab53.jpg,0,0,400,l,0,0,0,2,0,9,9,52,,,['l'],0,[0.11779169576766435],2018_Jul_09_0548,60.0323347144,go-nogo,001,26,
logos/3.jpg,properties3.xlsx,frogs/ab57.jpg,0,0,400,l,0,0,0,2,0,10,10,56,,,['l'],0,[0.1160299075563671],2018_Jul_09_0548,60.0323347144,go-nogo,001,26,
logos/3.jpg,properties3.xlsx,frogs/ab22.jpg,0,0,400,l,0,0,0,2,0,11,11,21,,,['l'],0,[0.06959375787846511],2018_Jul_09_0548,60.0323347144,go-nogo,001,26,
logos/3.jpg,properties3.xlsx,frogs/ab68.jpg,0,0,400,l,0,0,0,2,0,12,12,66,,,['l'],0,[2.2337912584407604],2018_Jul_09_0548,60.0323347144,go-nogo,001,26,
logos/3.jpg,properties3.xlsx,frogs/ab31.jpg,0,0,400,l,0,0,0,2,0,13,13,30,,,['l'],0,[0.10137109783681808],2018_Jul_09_0548,60.0323347144,go-nogo,001,26,
logos/3.jpg,properties3.xlsx,frogs/ab42.jpg,0,0,400,l,0,0,0,2,0,14,14,41,,,['l'],0,[0.0681961082664202],2018_Jul_09_0548,60.0323347144,go-nogo,001,26,
logos/3.jpg,properties3.xlsx,frogs/ab55.jpg,0,0,400,l,0,0,0,2,0,15,15,54,,,['l'],0,[0.11873908086272422],2018_Jul_09_0548,60.0323347144,go-nogo,001,26,
logos/3.jpg,properties3.xlsx,frogs/ab54.jpg,0,0,400,l,0,0,0,2,0,16,16,53,,,['l'],0,[0.1013849315349944],2018_Jul_09_0548,60.0323347144,go-nogo,001,26,
logos/3.jpg,properties3.xlsx,frogs/ab81.jpg,0,0,400,l,0,0,0,2,0,17,17,79,,,['l'],0,[0.10136663535377011],2018_Jul_09_0548,60.0323347144,go-nogo,001,26,
logos/3.jpg,properties3.xlsx,frogs/ab40.jpg,0,0,400,l,0,0,0,2,0,18,18,39,,,['l'],0,[0.1010480140830623],2018_Jul_09_0548,60.0323347144,go-nogo,001,26,
logos/3.jpg,properties3.xlsx,frogs/ab10.jpg,0,0,400,l,0,0,0,2,0,19,19,9,,,['l'],0,[0.06789667567500146],2018_Jul_09_0548,60.0323347144,go-nogo,001,26,
logos/3.jpg,properties3.xlsx,frogs/ab45.jpg,0,0,400,l,0,0,0,2,0,20,20,44,,,['l'],0,[0.11794922140688868],2018_Jul_09_0548,60.0323347144,go-nogo,001,26,
logos/3.jpg,properties3.xlsx,frogs/ab51.jpg,0,0,400,l,0,0,0,2,0,21,21,50,,,['l'],0,[0.11799830872041639],2018_Jul_09_0548,60.0323347144,go-nogo,001,26,
logos/3.jpg,properties3.xlsx,frogs/ab2.jpg,0,0,400,l,0,0,0,2,0,22,22,1,,,['l'],0,[0.1778089655781514],2018_Jul_09_0548,60.0323347144,go-nogo,001,26,
logos/3.jpg,properties3.xlsx,frogs/ab25.jpg,0,0,400,l,0,0,0,2,0,23,23,24,,,['l'],0,[0.0845743126119487],2018_Jul_09_0548,60.0323347144,go-nogo,001,26,
logos/3.jpg,properties3.xlsx,frogs/ab19.jpg,0,0,400,l,0,0,0,2,0,24,24,18,,,['l'],0,[1.2842913912027143],2018_Jul_09_0548,60.0323347144,go-nogo,001,26,
logos/3.jpg,properties3.xlsx,frogs/ab6.jpg,0,0,400,l,0,0,0,2,0,25,25,5,,,['l'],0,[0.10115645241603488],2018_Jul_09_0548,60.0323347144,go-nogo,001,26,
logos/3.jpg,properties3.xlsx,frogs/ab56.jpg,0,0,400,l,0,0,0,2,0,26,26,55,,,['l'],0,[0.2259158688102616],2018_Jul_09_0548,60.0323347144,go-nogo,001,26,
logos/3.jpg,properties3.xlsx,frogs/ab7.jpg,0,0,400,l,0,0,0,2,0,27,27,6,,,['l'],0,[0.18435855156712933],2018_Jul_09_0548,60.0323347144,go-nogo,001,26,
logos/3.jpg,properties3.xlsx,logos/3.jpg,0,0,400,a,0,0,0,2,0,28,28,82,,,['a'],0,[0.03448695950646652],2018_Jul_09_0548,60.0323347144,go-nogo,001,26,
logos/3.jpg,properties3.xlsx,frogs/ab72.jpg,0,0,400,l,0,0,0,2,0,29,29,70,,,['l'],0,[0.11788094542134786],2018_Jul_09_0548,60.0323347144,go-nogo,001,26,
logos/3.jpg,properties3.xlsx,frogs/ab49.jpg,0,0,400,l,0,0,0,2,0,30,30,48,,,['l'],0,[0.08450916036235867],2018_Jul_09_0548,60.0323347144,go-nogo,001,26,
logos/3.jpg,properties3.xlsx,logos/3.jpg,0,0,400,a,0,0,0,2,0,31,31,80,,,['l'],0,[0.5177278822593507],2018_Jul_09_0548,60.0323347144,go-nogo,001,26,
logos/3.jpg,properties3.xlsx,frogs/ab15.jpg,0,0,400,l,0,0,0,2,0,32,32,14,,,['l'],0,[0.2001642193645239],2018_Jul_09_0548,60.0323347144,go-nogo,001,26,
logos/3.jpg,properties3.xlsx,logos/3.jpg,0,0,400,a,0,0,0,2,0,33,33,85,,,['l'],0,[0.5004290677243262],2018_Jul_09_0548,60.0323347144,go-nogo,001,26,
logos/3.jpg,properties3.xlsx,frogs/ab13.jpg,0,0,400,l,0,0,0,2,0,34,34,12,,,['l'],0,[0.16795401857962133],2018_Jul_09_0548,60.0323347144,go-nogo,001,26,
logos/3.jpg,properties3.xlsx,frogs/ab23.jpg,0,0,400,l,0,0,0,2,0,35,35,22,,,['l'],0,[0.2843284298069193],2018_Jul_09_0548,60.0323347144,go-nogo,001,26,
logos/3.jpg,properties3.xlsx,logos/3.jpg,0,0,400,a,0,0,0,2,0,36,36,89,,,['l'],0,[0.48455423143605003],2018_Jul_09_0548,60.0323347144,go-nogo,001,26,
logos/3.jpg,properties3.xlsx,frogs/ab70.jpg,0,0,400,l,0,0,0,2,0,37,37,68,,,['l'],0,[0.21855232596135465],2018_Jul_09_0548,60.0323347144,go-nogo,001,26,
logos/3.jpg,properties3.xlsx,frogs/ab5.jpg,0,0,400,l,0,0,0,2,0,38,38,4,,,['l'],0,[0.25119806506700115],2018_Jul_09_0548,60.0323347144,go-nogo,001,26,
logos/3.jpg,properties3.xlsx,frogs/ab47.jpg,0,0,400,l,0,0,0,2,0,39,39,46,,,['l'],0,[0.15665679713856662],2018_Jul_09_0548,60.0323347144,go-nogo,001,26,
logos/3.jpg,properties3.xlsx,frogs/ab30.jpg,0,0,400,l,0,0,0,2,0,40,40,29,,,['l'],0,[0.10123142212250968],2018_Jul_09_0548,60.0323347144,go-nogo,001,26,
logos/3.jpg,properties3.xlsx,frogs/ab35.jpg,0,0,400,l,0,0,0,2,0,41,41,34,,,['l'],0,[0.2511155091415276],2018_Jul_09_0548,60.0323347144,go-nogo,001,26,
logos/3.jpg,properties3.xlsx,frogs/ab17.jpg,0,0,400,l,0,0,0,2,0,42,42,16,,,['l'],0,[0.11768771991046378],2018_Jul_09_0548,60.0323347144,go-nogo,001,26,
logos/3.jpg,properties3.xlsx,logos/3.jpg,0,0,400,a,0,0,0,2,0,43,43,86,,,['a'],0,[0.0010518071940168738],2018_Jul_09_0548,60.0323347144,go-nogo,001,26,
logos/3.jpg,properties3.xlsx,frogs/ab24.jpg,0,0,400,l,0,0,0,2,0,44,44,23,,,['l'],0,[0.6338390070086461],2018_Jul_09_0548,60.0323347144,go-nogo,001,26,
logos/3.jpg,properties3.xlsx,frogs/ab64.jpg,0,0,400,l,0,0,0,2,0,45,45,62,,,['l'],0,[0.11776268962421454],2018_Jul_09_0548,60.0323347144,go-nogo,001,26,
logos/3.jpg,properties3.xlsx,frogs/ab34.jpg,0,0,400,l,0,0,0,2,0,46,46,33,,,['l'],0,[0.4675486020205426],2018_Jul_09_0548,60.0323347144,go-nogo,001,26,
logos/3.jpg,properties3.xlsx,frogs/ab16.jpg,0,0,400,l,0,0,0,2,0,47,47,15,,,['l'],0,[0.050962892222742084],2018_Jul_09_0548,60.0323347144,go-nogo,001,26,
logos/3.jpg,properties3.xlsx,frogs/ab77.jpg,0,0,400,l,0,0,0,2,0,48,48,75,,,['l'],0,[0.11775688840134535],2018_Jul_09_0548,60.0323347144,go-nogo,001,26,
logos/3.jpg,properties3.xlsx,frogs/ab29.jpg,0,0,400,l,0,0,0,2,0,49,49,28,,,['l'],0,[0.11808041840413352],2018_Jul_09_0548,60.0323347144,go-nogo,001,26,
logos/3.jpg,properties3.xlsx,frogs/ab78.jpg,0,0,400,l,0,0,0,2,0,50,50,76,,,['l'],0,[0.11795368388993666],2018_Jul_09_0548,60.0323347144,go-nogo,001,26,
logos/3.jpg,properties3.xlsx,frogs/ab8.jpg,0,0,400,l,0,0,0,2,0,51,51,7,,,['l'],0,[0.10108594519260805],2018_Jul_09_0548,60.0323347144,go-nogo,001,26,
logos/3.jpg,properties3.xlsx,frogs/ab69.jpg,0,0,400,l,0,0,0,2,0,52,52,67,,,['l'],0,[0.13449967758788262],2018_Jul_09_0548,60.0323347144,go-nogo,001,26,
logos/3.jpg,properties3.xlsx,frogs/ab67.jpg,0,0,400,l,0,0,0,2,0,53,53,65,,,['l'],0,[0.06771282138652168],2018_Jul_09_0548,60.0323347144,go-nogo,001,26,
logos/3.jpg,properties3.xlsx,frogs/ab33.jpg,0,0,400,l,0,0,0,2,0,54,54,32,,,['l'],0,[0.13412527528271312],2018_Jul_09_0548,60.0323347144,go-nogo,001,26,
logos/3.jpg,properties3.xlsx,frogs/ab1.jpg,0,0,400,l,0,0,0,2,0,55,55,0,,,['l'],0,[0.16791028623993043],2018_Jul_09_0548,60.0323347144,go-nogo,001,26,
logos/3.jpg,properties3.xlsx,frogs/ab20.jpg,0,0,400,l,0,0,0,2,0,56,56,19,,,['l'],0,[0.10125908951886231],2018_Jul_09_0548,60.0323347144,go-nogo,001,26,
logos/3.jpg,properties3.xlsx,frogs/ab38.jpg,0,0,400,l,0,0,0,2,0,57,57,37,,,['l'],0,[0.11788897788937902],2018_Jul_09_0548,60.0323347144,go-nogo,001,26,
logos/3.jpg,properties3.xlsx,frogs/ab75.jpg,0,0,400,l,0,0,0,2,0,58,58,73,,,['l'],0,[0.10132334927038755],2018_Jul_09_0548,60.0323347144,go-nogo,001,26,
logos/3.jpg,properties3.xlsx,frogs/ab63.jpg,0,0,400,l,0,0,0,2,0,59,59,61,,,['l'],0,[0.15133885639806977],2018_Jul_09_0548,60.0323347144,go-nogo,001,26,
logos/3.jpg,properties3.xlsx,frogs/ab61.jpg,0,0,400,l,0,0,0,2,0,60,60,59,,,['l'],0,[0.1344947688485263],2018_Jul_09_0548,60.0323347144,go-nogo,001,26,
logos/3.jpg,properties3.xlsx,frogs/ab60.jpg,0,0,400,l,0,0,0,2,0,61,61,58,,,['l'],0,[0.20055959534511203],2018_Jul_09_0548,60.0323347144,go-nogo,001,26,
logos/3.jpg,properties3.xlsx,frogs/ab66.jpg,0,0,400,l,0,0,0,2,0,62,62,64,,,['l'],0,[0.11250588489929214],2018_Jul_09_0548,60.0323347144,go-nogo,001,26,
logos/3.jpg,properties3.xlsx,frogs/ab26.jpg,0,0,400,l,0,0,0,2,0,63,63,25,,,['l'],0,[0.1344880751275923],2018_Jul_09_0548,60.0323347144,go-nogo,001,26,
logos/3.jpg,properties3.xlsx,frogs/ab21.jpg,0,0,400,l,0,0,0,2,0,64,64,20,,,['l'],0,[0.1013175480402424],2018_Jul_09_0548,60.0323347144,go-nogo,001,26,
logos/3.jpg,properties3.xlsx,logos/3.jpg,0,0,400,a,0,0,0,2,0,65,65,88,,,['a'],0,[0.26792434306116775],2018_Jul_09_0548,60.0323347144,go-nogo,001,26,
logos/3.jpg,properties3.xlsx,frogs/ab58.jpg,0,0,400,l,0,0,0,2,0,66,66,57,,,['l'],0,[0.19602169658901403],2018_Jul_09_0548,60.0323347144,go-nogo,001,26,
logos/3.jpg,properties3.xlsx,frogs/ab37.jpg,0,0,400,l,0,0,0,2,0,67,67,36,,,['l'],0,[0.13469647307647392],2018_Jul_09_0548,60.0323347144,go-nogo,001,26,
logos/3.jpg,properties3.xlsx,frogs/ab44.jpg,0,0,400,l,0,0,0,2,0,68,68,43,,,['l'],0,[0.018169891183788422],2018_Jul_09_0548,60.0323347144,go-nogo,001,26,
logos/3.jpg,properties3.xlsx,frogs/ab4.jpg,0,0,400,l,0,0,0,2,0,69,69,3,,,['l'],0,[0.05135737569798948],2018_Jul_09_0548,60.0323347144,go-nogo,001,26,
logos/3.jpg,properties3.xlsx,frogs/ab11.jpg,0,0,400,l,0,0,0,2,0,70,70,10,,,['l'],0,[0.4677703874112922],2018_Jul_09_0548,60.0323347144,go-nogo,001,26,
logos/3.jpg,properties3.xlsx,frogs/ab48.jpg,0,0,400,l,0,0,0,2,0,71,71,47,,,['l'],0,[1.2008228818303905],2018_Jul_09_0548,60.0323347144,go-nogo,001,26,
logos/3.jpg,properties3.xlsx,frogs/ab79.jpg,0,0,400,l,0,0,0,2,0,72,72,77,,,['l'],0,[0.7510327300842619],2018_Jul_09_0548,60.0323347144,go-nogo,001,26,
logos/3.jpg,properties3.xlsx,frogs/ab32.jpg,0,0,400,l,0,0,0,2,0,73,73,31,,,['l'],0,[0.15106798369379248],2018_Jul_09_0548,60.0323347144,go-nogo,001,26,
logos/3.jpg,properties3.xlsx,frogs/ab76.jpg,0,0,400,l,0,0,0,2,0,74,74,74,,,['l'],0,[0.10132156428153394],2018_Jul_09_0548,60.0323347144,go-nogo,001,26,
logos/3.jpg,properties3.xlsx,frogs/ab43.jpg,0,0,400,l,0,0,0,2,0,75,75,42,,,['l'],0,[0.13451083379186457],2018_Jul_09_0548,60.0323347144,go-nogo,001,26,
logos/3.jpg,properties3.xlsx,frogs/ab50.jpg,0,0,400,l,0,0,0,2,0,76,76,49,,,['l'],0,[0.07013505704526324],2018_Jul_09_0548,60.0323347144,go-nogo,001,26,
logos/3.jpg,properties3.xlsx,frogs/ab9.jpg,0,0,400,l,0,0,0,2,0,77,77,8,,,['l'],0,[0.4035637387642055],2018_Jul_09_0548,60.0323347144,go-nogo,001,26,
logos/3.jpg,properties3.xlsx,frogs/ab12.jpg,0,0,400,l,0,0,0,2,0,78,78,11,,,['l'],0,[0.2511056916700909],2018_Jul_09_0548,60.0323347144,go-nogo,001,26,
logos/3.jpg,properties3.xlsx,frogs/ab73.jpg,0,0,400,l,0,0,0,2,0,79,79,71,,,['l'],0,[0.3009833080795943],2018_Jul_09_0548,60.0323347144,go-nogo,001,26,
logos/3.jpg,properties3.xlsx,frogs/ab41.jpg,0,0,400,l,0,0,0,2,0,80,80,40,,,['l'],0,[0.10129612813034328],2018_Jul_09_0548,60.0323347144,go-nogo,001,26,
logos/3.jpg,properties3.xlsx,frogs/ab3.jpg,0,0,400,l,0,0,0,2,0,81,81,2,,,['l'],0,[0.20093221265415195],2018_Jul_09_0548,60.0323347144,go-nogo,001,26,
logos/3.jpg,properties3.xlsx,logos/3.jpg,0,0,400,a,0,0,0,2,0,82,82,83,,,['a'],0,[0.433619452851417],2018_Jul_09_0548,60.0323347144,go-nogo,001,26,
logos/3.jpg,properties3.xlsx,logos/3.jpg,0,0,400,a,0,0,0,2,0,83,83,81,,,['a'],0,[0.28456717263907194],2018_Jul_09_0548,60.0323347144,go-nogo,001,26,
logos/3.jpg,properties3.xlsx,logos/3.jpg,0,0,400,a,0,0,0,2,0,84,84,84,,,['a'],0,[0.2512743735278491],2018_Jul_09_0548,60.0323347144,go-nogo,001,26,
logos/3.jpg,properties3.xlsx,frogs/ab28.jpg,0,0,400,l,0,0,0,2,0,85,85,27,,,['l'],0,[0.20099513365858002],2018_Jul_09_0548,60.0323347144,go-nogo,001,26,
logos/3.jpg,properties3.xlsx,frogs/ab36.jpg,0,0,400,l,0,0,0,2,0,86,86,35,,,['l'],0,[0.3344697789507336],2018_Jul_09_0548,60.0323347144,go-nogo,001,26,
logos/3.jpg,properties3.xlsx,frogs/ab71.jpg,0,0,400,l,0,0,0,2,0,87,87,69,,,['l'],0,[0.30123543836089084],2018_Jul_09_0548,60.0323347144,go-nogo,001,26,
logos/3.jpg,properties3.xlsx,frogs/ab27.jpg,0,0,400,l,0,0,0,2,0,88,88,26,,,['l'],0,[0.23461280152696418],2018_Jul_09_0548,60.0323347144,go-nogo,001,26,
logos/3.jpg,properties3.xlsx,frogs/ab65.jpg,0,0,400,l,0,0,0,2,0,89,89,63,,,['l'],0,[0.5343832067810581],2018_Jul_09_0548,60.0323347144,go-nogo,001,26,
logos/3.jpg,properties3.xlsx,,,,,,0,0,0,2,,,,,,,,,,2018_Jul_09_0548,60.0323347144,go-nogo,001,26,
logos/2.jpg,properties2.xlsx,frogs/ab54.jpg,0,0,400,l,0,1,1,1,0,0,0,53,space,6.58349952364,['l'],0,[0.15070429134357255],2018_Jul_09_0548,60.0323347144,go-nogo,001,26,
logos/2.jpg,properties2.xlsx,frogs/ab1.jpg,0,0,400,l,0,1,1,1,0,1,1,0,,,['l'],0,[0.28449041793646757],2018_Jul_09_0548,60.0323347144,go-nogo,001,26,
logos/2.jpg,properties2.xlsx,frogs/ab64.jpg,0,0,400,l,0,1,1,1,0,2,2,62,,,['l'],0,[0.25100082332937745],2018_Jul_09_0548,60.0323347144,go-nogo,001,26,
logos/2.jpg,properties2.xlsx,frogs/ab79.jpg,0,0,400,l,0,1,1,1,0,3,3,77,,,['l'],0,[0.2521307239730959],2018_Jul_09_0548,60.0323347144,go-nogo,001,26,
logos/2.jpg,properties2.xlsx,frogs/ab40.jpg,0,0,400,l,0,1,1,1,0,4,4,39,,,['l'],0,[0.2678342009166954],2018_Jul_09_0548,60.0323347144,go-nogo,001,26,
logos/2.jpg,properties2.xlsx,frogs/ab11.jpg,0,0,400,l,0,1,1,1,0,5,5,10,,,['l'],0,[0.25114451527770143],2018_Jul_09_0548,60.0323347144,go-nogo,001,26,
logos/2.jpg,properties2.xlsx,frogs/ab37.jpg,0,0,400,l,0,1,1,1,0,6,6,36,,,['l'],0,[0.25123242618428776],2018_Jul_09_0548,60.0323347144,go-nogo,001,26,
logos/2.jpg,properties2.xlsx,frogs/ab62.jpg,0,0,400,l,0,1,1,1,0,7,7,60,,,['l'],0,[0.36759389621875016],2018_Jul_09_0548,60.0323347144,go-nogo,001,26,
logos/2.jpg,properties2.xlsx,frogs/ab9.jpg,0,0,400,l,0,1,1,1,0,8,8,8,,,['l'],0,[0.5867950671745348],2018_Jul_09_0548,60.0323347144,go-nogo,001,26,
logos/2.jpg,properties2.xlsx,frogs/ab56.jpg,0,0,400,l,0,1,1,1,0,9,9,55,,,['l'],0,[1.2968113329188782],2018_Jul_09_0548,60.0323347144,go-nogo,001,26,
logos/2.jpg,properties2.xlsx,frogs/ab15.jpg,0,0,400,l,0,1,1,1,0,10,10,14,,,['l'],0,[0.3341342002458987],2018_Jul_09_0548,60.0323347144,go-nogo,001,26,
logos/2.jpg,properties2.xlsx,logos/2.jpg,0,0,400,a,0,1,1,1,0,11,11,88,,,['a'],0,[1.2840258734795498],2018_Jul_09_0548,60.0323347144,go-nogo,001,26,
logos/2.jpg,properties2.xlsx,frogs/ab33.jpg,0,0,400,l,0,1,1,1,0,12,12,32,,,['l'],0,[0.6293149419507245],2018_Jul_09_0548,60.0323347144,go-nogo,001,26,
logos/2.jpg,properties2.xlsx,frogs/ab25.jpg,0,0,400,l,0,1,1,1,0,13,13,24,,,['l'],0,[0.36791876496135956],2018_Jul_09_0548,60.0323347144,go-nogo,001,26,
logos/2.jpg,properties2.xlsx,frogs/ab65.jpg,0,0,400,l,0,1,1,1,0,14,14,63,,,['l'],0,[0.3177738458325621],2018_Jul_09_0548,60.0323347144,go-nogo,001,26,
logos/2.jpg,properties2.xlsx,frogs/ab47.jpg,0,0,400,l,0,1,1,1,0,15,15,46,,,['l'],0,[0.4637885140182334],2018_Jul_09_0548,60.0323347144,go-nogo,001,26,
logos/2.jpg,properties2.xlsx,frogs/ab74.jpg,0,0,400,l,0,1,1,1,0,16,16,72,,,['l'],0,[0.4178704585865489],2018_Jul_09_0548,60.0323347144,go-nogo,001,26,
logos/2.jpg,properties2.xlsx,frogs/ab66.jpg,0,0,400,l,0,1,1,1,0,17,17,64,,,['l'],0,[0.3329333461224451],2018_Jul_09_0548,60.0323347144,go-nogo,001,26,
logos/2.jpg,properties2.xlsx,logos/2.jpg,0,0,400,a,0,1,1,1,0,18,18,82,,,['l'],0,[0.5844607424223796],2018_Jul_09_0548,60.0323347144,go-nogo,001,26,
logos/2.jpg,properties2.xlsx,frogs/ab26.jpg,0,0,400,l,0,1,1,1,0,19,19,25,,,['l'],0,[0.950980519031873],2018_Jul_09_0548,60.0323347144,go-nogo,001,26,
logos/2.jpg,properties2.xlsx,frogs/ab60.jpg,0,0,400,l,0,1,1,1,0,20,20,58,,,['l'],0,[0.5844486937203328],2018_Jul_09_0548,60.0323347144,go-nogo,001,26,
logos/2.jpg,properties2.xlsx,frogs/ab51.jpg,0,0,400,l,0,1,1,1,0,21,21,50,,,['l'],0,[0.8674928209802601],2018_Jul_09_0548,60.0323347144,go-nogo,001,26,
logos/2.jpg,properties2.xlsx,frogs/ab63.jpg,0,0,400,l,0,1,1,1,0,22,22,61,,,['l'],0,[0.3170562786035589],2018_Jul_09_0548,60.0323347144,go-nogo,001,26,
logos/2.jpg,properties2.xlsx,frogs/ab10.jpg,0,0,400,l,0,1,1,1,0,23,23,9,,,['l'],0,[0.5677924767005607],2018_Jul_09_0548,60.0323347144,go-nogo,001,26,
logos/2.jpg,properties2.xlsx,frogs/ab7.jpg,0,0,400,l,0,1,1,1,0,24,24,6,,,['l'],0,[0.3844205800778582],2018_Jul_09_0548,60.0323347144,go-nogo,001,26,
logos/2.jpg,properties2.xlsx,frogs/ab43.jpg,0,0,400,l,0,1,1,1,0,25,25,42,,,['l'],0,[0.5343720505770762],2018_Jul_09_0548,60.0323347144,go-nogo,001,26,
logos/2.jpg,properties2.xlsx,frogs/ab34.jpg,0,0,400,l,0,1,1,1,0,26,26,33,,,['l'],0,[0.4679100631183246],2018_Jul_09_0548,60.0323347144,go-nogo,001,26,
logos/2.jpg,properties2.xlsx,frogs/ab36.jpg,0,0,400,l,0,1,1,1,0,27,27,35,,,['l'],0,[0.3678576289457851],2018_Jul_09_0548,60.0323347144,go-nogo,001,26,
logos/2.jpg,properties2.xlsx,frogs/ab29.jpg,0,0,400,l,0,1,1,1,0,28,28,28,,,['l'],0,[0.4508897075065761],2018_Jul_09_0548,60.0323347144,go-nogo,001,26,
logos/2.jpg,properties2.xlsx,frogs/ab14.jpg,0,0,400,l,0,1,1,1,0,29,29,13,,,['l'],0,[0.334511726287019],2018_Jul_09_0548,60.0323347144,go-nogo,001,26,
logos/2.jpg,properties2.xlsx,frogs/ab52.jpg,0,0,400,l,0,1,1,1,0,30,30,51,,,['l'],0,[0.40098665494588204],2018_Jul_09_0548,60.0323347144,go-nogo,001,26,
logos/2.jpg,properties2.xlsx,frogs/ab35.jpg,0,0,400,l,0,1,1,1,0,31,31,34,,,['l'],0,[0.3177970507458667],2018_Jul_09_0548,60.0323347144,go-nogo,001,26,
logos/2.jpg,properties2.xlsx,logos/2.jpg,0,0,400,a,0,1,1,1,0,32,32,80,,,['a'],0,[0.617648673192889],2018_Jul_09_0548,60.0323347144,go-nogo,001,26,
logos/2.jpg,properties2.xlsx,frogs/ab45.jpg,0,0,400,l,0,1,1,1,0,33,33,44,,,['l'],0,[0.3177800933117396],2018_Jul_09_0548,60.0323347144,go-nogo,001,26,
logos/2.jpg,properties2.xlsx,frogs/ab17.jpg,0,0,400,l,0,1,1,1,0,34,34,16,,,['l'],0,[0.38463611799670616],2018_Jul_09_0548,60.0323347144,go-nogo,001,26,
logos/2.jpg,properties2.xlsx,frogs/ab13.jpg,0,0,400,l,0,1,1,1,0,35,35,12,,,['l'],0,[0.4504804978350876],2018_Jul_09_0548,60.0323347144,go-nogo,001,26,
logos/2.jpg,properties2.xlsx,frogs/ab2.jpg,0,0,400,l,0,1,1,1,0,36,36,1,,,['l'],0,[0.982572665954649],2018_Jul_09_0548,60.0323347144,go-nogo,001,26,
logos/2.jpg,properties2.xlsx,frogs/ab71.jpg,0,0,400,l,0,1,1,1,0,37,37,69,,,['l'],0,[0.35146514466032386],2018_Jul_09_0548,60.0323347144,go-nogo,001,26,
logos/2.jpg,properties2.xlsx,logos/2.jpg,0,0,400,a,0,1,1,1,0,38,38,81,,,['a'],0,[0.45105749685899355],2018_Jul_09_0548,60.0323347144,go-nogo,001,26,
logos/2.jpg,properties2.xlsx,frogs/ab3.jpg,0,0,400,l,0,1,1,1,0,39,39,2,,,['l'],0,[0.4343080139515223],2018_Jul_09_0548,60.0323347144,go-nogo,001,26,
logos/2.jpg,properties2.xlsx,frogs/ab32.jpg,0,0,400,l,0,1,1,1,0,40,40,31,,,['l'],0,[0.6176999917443027],2018_Jul_09_0548,60.0323347144,go-nogo,001,26,
logos/2.jpg,properties2.xlsx,frogs/ab22.jpg,0,0,400,l,0,1,1,1,0,41,41,21,,,['l'],0,[0.4286411070570466],2018_Jul_09_0548,60.0323347144,go-nogo,001,26,
logos/2.jpg,properties2.xlsx,frogs/ab49.jpg,0,0,400,l,0,1,1,1,0,42,42,48,,,['l'],0,[0.5175703566201264],2018_Jul_09_0548,60.0323347144,go-nogo,001,26,
logos/2.jpg,properties2.xlsx,frogs/ab19.jpg,0,0,400,l,0,1,1,1,0,43,43,18,,,['l'],0,[0.36792233494634274],2018_Jul_09_0548,60.0323347144,go-nogo,001,26,
logos/2.jpg,properties2.xlsx,frogs/ab6.jpg,0,0,400,l,0,1,1,1,0,44,44,5,,,['l'],0,[0.351366523791512],2018_Jul_09_0548,60.0323347144,go-nogo,001,26,
logos/2.jpg,properties2.xlsx,frogs/ab24.jpg,0,0,400,l,0,1,1,1,0,45,45,23,,,['l'],0,[0.4168315925926436],2018_Jul_09_0548,60.0323347144,go-nogo,001,26,
logos/2.jpg,properties2.xlsx,frogs/ab68.jpg,0,0,400,l,0,1,1,1,0,46,46,66,,,['l'],0,[0.35111528600828024],2018_Jul_09_0548,60.0323347144,go-nogo,001,26,
logos/2.jpg,properties2.xlsx,frogs/ab46.jpg,0,0,400,l,0,1,1,1,0,47,47,45,,,['l'],0,[0.3178907628825982],2018_Jul_09_0548,60.0323347144,go-nogo,001,26,
logos/2.jpg,properties2.xlsx,logos/2.jpg,0,0,400,a,0,1,1,1,0,48,48,89,,,['a'],0,[0.48449175668065436],2018_Jul_09_0548,60.0323347144,go-nogo,001,26,
logos/2.jpg,properties2.xlsx,frogs/ab12.jpg,0,0,400,l,0,1,1,1,0,49,49,11,,,['l'],0,[0.2843614521843847],2018_Jul_09_0548,60.0323347144,go-nogo,001,26,
logos/2.jpg,properties2.xlsx,frogs/ab75.jpg,0,0,400,l,0,1,1,1,0,50,50,73,,,['l'],0,[0.30036570045922417],2018_Jul_09_0548,60.0323347144,go-nogo,001,26,
logos/2.jpg,properties2.xlsx,frogs/ab42.jpg,0,0,400,l,0,1,1,1,0,51,51,41,,,['l'],0,[0.351336178908241],2018_Jul_09_0548,60.0323347144,go-nogo,001,26,
logos/2.jpg,properties2.xlsx,frogs/ab78.jpg,0,0,400,l,0,1,1,1,0,52,52,76,,,['l'],0,[0.3505186520633288],2018_Jul_09_0548,60.0323347144,go-nogo,001,26,
logos/2.jpg,properties2.xlsx,logos/2.jpg,0,0,400,a,0,1,1,1,0,53,53,84,,,['a'],0,[0.33437249682901893],2018_Jul_09_0548,60.0323347144,go-nogo,001,26,
logos/2.jpg,properties2.xlsx,frogs/ab70.jpg,0,0,400,l,0,1,1,1,0,54,54,68,,,['l'],0,[0.21709711031871848],2018_Jul_09_0548,60.0323347144,go-nogo,001,26,
logos/2.jpg,properties2.xlsx,frogs/ab8.jpg,0,0,400,l,0,1,1,1,0,55,55,7,,,['l'],0,[0.3011162900729687],2018_Jul_09_0548,60.0323347144,go-nogo,001,26,
logos/2.jpg,properties2.xlsx,frogs/ab31.jpg,0,0,400,l,0,1,1,1,0,56,56,30,,,['l'],0,[0.3008418473837082],2018_Jul_09_0548,60.0323347144,go-nogo,001,26,
logos/2.jpg,properties2.xlsx,frogs/ab30.jpg,0,0,400,l,0,1,1,1,0,57,57,29,,,['l'],0,[0.2679475479744724],2018_Jul_09_0548,60.0323347144,go-nogo,001,26,
logos/2.jpg,properties2.xlsx,frogs/ab20.jpg,0,0,400,l,0,1,1,1,0,58,58,19,,,['l'],0,[0.48464838982908987],2018_Jul_09_0548,60.0323347144,go-nogo,001,26,
logos/2.jpg,properties2.xlsx,frogs/ab73.jpg,0,0,400,l,0,1,1,1,0,59,59,71,,,['l'],0,[0.3339150923420675],2018_Jul_09_0548,60.0323347144,go-nogo,001,26,
logos/2.jpg,properties2.xlsx,logos/2.jpg,0,0,400,a,0,1,1,1,0,60,60,86,,,['a'],0,[0.3535174404969439],2018_Jul_09_0548,60.0323347144,go-nogo,001,26,
logos/2.jpg,properties2.xlsx,frogs/ab53.jpg,0,0,400,l,0,1,1,1,0,61,61,52,,,['l'],0,[0.2839763399169897],2018_Jul_09_0548,60.0323347144,go-nogo,001,26,
logos/2.jpg,properties2.xlsx,frogs/ab50.jpg,0,0,400,l,0,1,1,1,0,62,62,49,,,['l'],0,[0.2836483474311535],2018_Jul_09_0548,60.0323347144,go-nogo,001,26,
logos/2.jpg,properties2.xlsx,frogs/ab72.jpg,0,0,400,l,0,1,1,1,0,63,63,70,,,['l'],0,[0.2677146063724649],2018_Jul_09_0548,60.0323347144,go-nogo,001,26,
logos/2.jpg,properties2.xlsx,logos/2.jpg,0,0,400,a,0,1,1,1,0,64,64,83,,,['a'],0,[0.2841106606501853],2018_Jul_09_0548,60.0323347144,go-nogo,001,26,
logos/2.jpg,properties2.xlsx,frogs/ab38.jpg,0,0,400,l,0,1,1,1,0,65,65,37,,,['l'],0,[0.2668984182746499],2018_Jul_09_0548,60.0323347144,go-nogo,001,26,
logos/2.jpg,properties2.xlsx,frogs/ab23.jpg,0,0,400,l,0,1,1,1,0,66,66,22,,,['l'],0,[0.251050803133694],2018_Jul_09_0548,60.0323347144,go-nogo,001,26,
logos/2.jpg,properties2.xlsx,frogs/ab18.jpg,0,0,400,l,0,1,1,1,0,67,67,17,,,['l'],0,[0.23485020560474368],2018_Jul_09_0548,60.0323347144,go-nogo,001,26,
logos/2.jpg,properties2.xlsx,frogs/ab27.jpg,0,0,400,l,0,1,1,1,0,68,68,26,,,['l'],0,[0.31847668687987607],2018_Jul_09_0548,60.0323347144,go-nogo,001,26,
logos/2.jpg,properties2.xlsx,frogs/ab67.jpg,0,0,400,l,0,1,1,1,0,69,69,65,,,['l'],0,[0.3010252554231556],2018_Jul_09_0548,60.0323347144,go-nogo,001,26,
logos/2.jpg,properties2.xlsx,frogs/ab57.jpg,0,0,400,l,0,1,1,1,0,70,70,56,,,['l'],0,[0.367866553919157],2018_Jul_09_0548,60.0323347144,go-nogo,001,26,
logos/2.jpg,properties2.xlsx,frogs/ab5.jpg,0,0,400,l,0,1,1,1,0,71,71,4,,,['l'],0,[0.3843598903113161],2018_Jul_09_0548,60.0323347144,go-nogo,001,26,
logos/2.jpg,properties2.xlsx,frogs/ab28.jpg,0,0,400,l,0,1,1,1,0,72,72,27,,,['l'],0,[0.26782884593558265],2018_Jul_09_0548,60.0323347144,go-nogo,001,26,
logos/2.jpg,properties2.xlsx,logos/2.jpg,0,0,400,a,0,1,1,1,0,73,73,87,,,['a'],0,[0.3013492316749762],2018_Jul_09_0548,60.0323347144,go-nogo,001,26,
logos/2.jpg,properties2.xlsx,frogs/ab69.jpg,0,0,400,l,0,1,1,1,0,74,74,67,,,['l'],0,[0.2677297788177384],2018_Jul_09_0548,60.0323347144,go-nogo,001,26,
logos/2.jpg,properties2.xlsx,frogs/ab39.jpg,0,0,400,l,0,1,1,1,0,75,75,38,,,['l'],0,[0.21772587414307054],2018_Jul_09_0548,60.0323347144,go-nogo,001,26,
logos/2.jpg,properties2.xlsx,frogs/ab48.jpg,0,0,400,l,0,1,1,1,0,76,76,47,,,['l'],0,[0.26777529613900697],2018_Jul_09_0548,60.0323347144,go-nogo,001,26,
logos/2.jpg,properties2.xlsx,frogs/ab76.jpg,0,0,400,l,0,1,1,1,0,77,77,74,,,['l'],0,[0.25077546794636874],2018_Jul_09_0548,60.0323347144,go-nogo,001,26,
logos/2.jpg,properties2.xlsx,frogs/ab58.jpg,0,0,400,l,0,1,1,1,0,78,78,57,,,['l'],0,[0.3010417666082503],2018_Jul_09_0548,60.0323347144,go-nogo,001,26,
logos/2.jpg,properties2.xlsx,frogs/ab80.jpg,0,0,400,l,0,1,1,1,0,79,79,78,,,['l'],0,[0.3676327198118088],2018_Jul_09_0548,60.0323347144,go-nogo,001,26,
logos/2.jpg,properties2.xlsx,frogs/ab16.jpg,0,0,400,l,0,1,1,1,0,80,80,15,,,['l'],0,[0.3512143531261245],2018_Jul_09_0548,60.0323347144,go-nogo,001,26,
logos/2.jpg,properties2.xlsx,frogs/ab21.jpg,0,0,400,l,0,1,1,1,0,81,81,20,,,['l'],0,[0.3178461380521185],2018_Jul_09_0548,60.0323347144,go-nogo,001,26,
logos/2.jpg,properties2.xlsx,frogs/ab81.jpg,0,0,400,l,0,1,1,1,0,82,82,79,,,['l'],0,[0.38453124964871677],2018_Jul_09_0548,60.0323347144,go-nogo,001,26,
logos/2.jpg,properties2.xlsx,logos/2.jpg,0,0,400,a,0,1,1,1,0,83,83,85,,,['a'],0,[0.41756611725577386],2018_Jul_09_0548,60.0323347144,go-nogo,001,26,
logos/2.jpg,properties2.xlsx,frogs/ab61.jpg,0,0,400,l,0,1,1,1,0,84,84,59,,,['l'],0,[0.23636030978377676],2018_Jul_09_0548,60.0323347144,go-nogo,001,26,
logos/2.jpg,properties2.xlsx,frogs/ab44.jpg,0,0,400,l,0,1,1,1,0,85,85,43,,,['l'],0,[0.3005379522946896],2018_Jul_09_0548,60.0323347144,go-nogo,001,26,
logos/2.jpg,properties2.xlsx,frogs/ab4.jpg,0,0,400,l,0,1,1,1,0,86,86,3,,,['l'],0,[0.2678533895887085],2018_Jul_09_0548,60.0323347144,go-nogo,001,26,
logos/2.jpg,properties2.xlsx,frogs/ab77.jpg,0,0,400,l,0,1,1,1,0,87,87,75,,,['l'],0,[0.33358486861834535],2018_Jul_09_0548,60.0323347144,go-nogo,001,26,
logos/2.jpg,properties2.xlsx,frogs/ab55.jpg,0,0,400,l,0,1,1,1,0,88,88,54,,,['l'],0,[0.33443274033925263],2018_Jul_09_0548,60.0323347144,go-nogo,001,26,
logos/2.jpg,properties2.xlsx,frogs/ab41.jpg,0,0,400,l,0,1,1,1,0,89,89,40,,,['l'],0,[0.2509807421520236],2018_Jul_09_0548,60.0323347144,go-nogo,001,26,
logos/2.jpg,properties2.xlsx,,,,,,0,1,1,1,,,,,,,,,,2018_Jul_09_0548,60.0323347144,go-nogo,001,26,
logos/1.jpg,properties1.xlsx,logos/1.jpg,0,0,400,a,0,2,2,0,0,0,0,87,space,4.20923778562,['a'],0,[0.4499298274531611],2018_Jul_09_0548,60.0323347144,go-nogo,001,26,
logos/1.jpg,properties1.xlsx,frogs/ab38.jpg,0,0,400,l,0,2,2,0,0,1,1,37,,,['l'],0,[0.3179059353278717],2018_Jul_09_0548,60.0323347144,go-nogo,001,26,
logos/1.jpg,properties1.xlsx,frogs/ab64.jpg,0,0,400,l,0,2,2,0,0,2,2,62,,,['l'],0,[0.21644514158106176],2018_Jul_09_0548,60.0323347144,go-nogo,001,26,
logos/1.jpg,properties1.xlsx,logos/1.jpg,0,0,400,a,0,2,2,0,0,3,3,81,,,['a'],0,[0.3029829466249794],2018_Jul_09_0548,60.0323347144,go-nogo,001,26,
logos/1.jpg,properties1.xlsx,frogs/ab55.jpg,0,0,400,l,0,2,2,0,0,4,4,54,,,['l'],0,[0.2514180654688971],2018_Jul_09_0548,60.0323347144,go-nogo,001,26,
logos/1.jpg,properties1.xlsx,frogs/ab62.jpg,0,0,400,l,0,2,2,0,0,5,5,60,,,['l'],0,[0.35350182180991396],2018_Jul_09_0548,60.0323347144,go-nogo,001,26,
logos/1.jpg,properties1.xlsx,frogs/ab36.jpg,0,0,400,l,0,2,2,0,0,6,6,35,,,['l'],0,[0.25102224324655253],2018_Jul_09_0548,60.0323347144,go-nogo,001,26,
logos/1.jpg,properties1.xlsx,frogs/ab26.jpg,0,0,400,l,0,2,2,0,0,7,7,25,,,['l'],0,[0.33460543842375046],2018_Jul_09_0548,60.0323347144,go-nogo,001,26,
logos/1.jpg,properties1.xlsx,logos/1.jpg,0,0,400,a,0,2,2,0,0,8,8,83,,,['a'],0,[0.36797543849388603],2018_Jul_09_0548,60.0323347144,go-nogo,001,26,
logos/1.jpg,properties1.xlsx,frogs/ab29.jpg,0,0,400,l,0,2,2,0,0,9,9,28,,,['l'],0,[0.2510985517001245],2018_Jul_09_0548,60.0323347144,go-nogo,001,26,
logos/1.jpg,properties1.xlsx,frogs/ab32.jpg,0,0,400,l,0,2,2,0,0,10,10,31,,,['l'],0,[0.25110479917930206],2018_Jul_09_0548,60.0323347144,go-nogo,001,26,
logos/1.jpg,properties1.xlsx,frogs/ab50.jpg,0,0,400,l,0,2,2,0,0,11,11,49,,,['l'],0,[0.2675865331184468],2018_Jul_09_0548,60.0323347144,go-nogo,001,26,
logos/1.jpg,properties1.xlsx,frogs/ab46.jpg,0,0,400,l,0,2,2,0,0,12,12,45,,,['l'],0,[0.2682924979017116],2018_Jul_09_0548,60.0323347144,go-nogo,001,26,
logos/1.jpg,properties1.xlsx,frogs/ab10.jpg,0,0,400,l,0,2,2,0,0,13,13,9,,,['l'],0,[0.24411788987345062],2018_Jul_09_0548,60.0323347144,go-nogo,001,26,
logos/1.jpg,properties1.xlsx,frogs/ab7.jpg,0,0,400,l,0,2,2,0,0,14,14,6,,,['l'],0,[0.2842762187574408],2018_Jul_09_0548,60.0323347144,go-nogo,001,26,
logos/1.jpg,properties1.xlsx,frogs/ab61.jpg,0,0,400,l,0,2,2,0,0,15,15,59,,,['l'],0,[0.25098252714815317],2018_Jul_09_0548,60.0323347144,go-nogo,001,26,
logos/1.jpg,properties1.xlsx,frogs/ab15.jpg,0,0,400,l,0,2,2,0,0,16,16,14,,,['l'],0,[0.2679926190539845],2018_Jul_09_0548,60.0323347144,go-nogo,001,26,
logos/1.jpg,properties1.xlsx,frogs/ab51.jpg,0,0,400,l,0,2,2,0,0,17,17,50,,,['l'],0,[0.26812783228524495],2018_Jul_09_0548,60.0323347144,go-nogo,001,26,
logos/1.jpg,properties1.xlsx,frogs/ab57.jpg,0,0,400,l,0,2,2,0,0,18,18,56,,,['l'],0,[0.31794832891318947],2018_Jul_09_0548,60.0323347144,go-nogo,001,26,
logos/1.jpg,properties1.xlsx,frogs/ab22.jpg,0,0,400,l,0,2,2,0,0,19,19,21,,,['l'],0,[0.31768816616386175],2018_Jul_09_0548,60.0323347144,go-nogo,001,26,
logos/1.jpg,properties1.xlsx,frogs/ab47.jpg,0,0,400,l,0,2,2,0,0,20,20,46,,,['l'],0,[1.0267887304435135],2018_Jul_09_0548,60.0323347144,go-nogo,001,26,
logos/1.jpg,properties1.xlsx,frogs/ab37.jpg,0,0,400,l,0,2,2,0,0,21,21,36,,,['l'],0,[0.2677699411578942],2018_Jul_09_0548,60.0323347144,go-nogo,001,26,
logos/1.jpg,properties1.xlsx,frogs/ab77.jpg,0,0,400,l,0,2,2,0,0,22,22,75,,,['l'],0,[0.30149560111021856],2018_Jul_09_0548,60.0323347144,go-nogo,001,26,
logos/1.jpg,properties1.xlsx,frogs/ab20.jpg,0,0,400,l,0,2,2,0,0,23,23,19,,,['l'],0,[0.3676679734271602],2018_Jul_09_0548,60.0323347144,go-nogo,001,26,
logos/1.jpg,properties1.xlsx,frogs/ab3.jpg,0,0,400,l,0,2,2,0,0,24,24,2,,,['l'],0,[0.3004098790406715],2018_Jul_09_0548,60.0323347144,go-nogo,001,26,
logos/1.jpg,properties1.xlsx,frogs/ab1.jpg,0,0,400,l,0,2,2,0,0,25,25,0,,,['l'],0,[0.3836744529544376],2018_Jul_09_0548,60.0323347144,go-nogo,001,26,
logos/1.jpg,properties1.xlsx,frogs/ab27.jpg,0,0,400,l,0,2,2,0,0,26,26,26,,,['l'],0,[0.2678761482529808],2018_Jul_09_0548,60.0323347144,go-nogo,001,26,
logos/1.jpg,properties1.xlsx,frogs/ab70.jpg,0,0,400,l,0,2,2,0,0,27,27,68,,,['l'],0,[0.21783029624202754],2018_Jul_09_0548,60.0323347144,go-nogo,001,26,
logos/1.jpg,properties1.xlsx,frogs/ab49.jpg,0,0,400,l,0,2,2,0,0,28,28,48,,,['l'],0,[0.3339186623270507],2018_Jul_09_0548,60.0323347144,go-nogo,001,26,
logos/1.jpg,properties1.xlsx,frogs/ab13.jpg,0,0,400,l,0,2,2,0,0,29,29,12,,,['l'],0,[0.3013380754709942],2018_Jul_09_0548,60.0323347144,go-nogo,001,26,
logos/1.jpg,properties1.xlsx,frogs/ab31.jpg,0,0,400,l,0,2,2,0,0,30,30,30,,,['l'],0,[0.30343365738372086],2018_Jul_09_0548,60.0323347144,go-nogo,001,26,
logos/1.jpg,properties1.xlsx,frogs/ab60.jpg,0,0,400,l,0,2,2,0,0,31,31,58,,,['l'],0,[0.2690573674481129],2018_Jul_09_0548,60.0323347144,go-nogo,001,26,
logos/1.jpg,properties1.xlsx,frogs/ab11.jpg,0,0,400,l,0,2,2,0,0,32,32,10,,,['l'],0,[0.26763785166986054],2018_Jul_09_0548,60.0323347144,go-nogo,001,26,
logos/1.jpg,properties1.xlsx,logos/1.jpg,0,0,400,a,0,2,2,0,0,33,33,88,,,['a'],0,[0.40344949920108775],2018_Jul_09_0548,60.0323347144,go-nogo,001,26,
logos/1.jpg,properties1.xlsx,frogs/ab18.jpg,0,0,400,l,0,2,2,0,0,34,34,17,,,['l'],0,[0.15119337946089217],2018_Jul_09_0548,60.0323347144,go-nogo,001,26,
logos/1.jpg,properties1.xlsx,frogs/ab4.jpg,0,0,400,l,0,2,2,0,0,35,35,3,,,['l'],0,[0.2177696064754855],2018_Jul_09_0548,60.0323347144,go-nogo,001,26,
logos/1.jpg,properties1.xlsx,frogs/ab42.jpg,0,0,400,l,0,2,2,0,0,36,36,41,,,['l'],0,[0.20106831838347716],2018_Jul_09_0548,60.0323347144,go-nogo,001,26,
logos/1.jpg,properties1.xlsx,frogs/ab43.jpg,0,0,400,l,0,2,2,0,0,37,37,42,,,['l'],0,[0.2011013407536666],2018_Jul_09_0548,60.0323347144,go-nogo,001,26,
logos/1.jpg,properties1.xlsx,logos/1.jpg,0,0,400,a,0,2,2,0,0,38,38,85,,,['a'],0,[0.3368621159752365],2018_Jul_09_0548,60.0323347144,go-nogo,001,26,
logos/1.jpg,properties1.xlsx,frogs/ab35.jpg,0,0,400,l,0,2,2,0,0,39,39,34,,,['l'],0,[0.13586073483747896],2018_Jul_09_0548,60.0323347144,go-nogo,001,26,
logos/1.jpg,properties1.xlsx,frogs/ab74.jpg,0,0,400,l,0,2,2,0,0,40,40,72,,,['l'],0,[0.2678712395209004],2018_Jul_09_0548,60.0323347144,go-nogo,001,26,
logos/1.jpg,properties1.xlsx,frogs/ab76.jpg,0,0,400,l,0,2,2,0,0,41,41,74,,,['l'],0,[0.1511375984264305],2018_Jul_09_0548,60.0323347144,go-nogo,001,26,
logos/1.jpg,properties1.xlsx,frogs/ab75.jpg,0,0,400,l,0,2,2,0,0,42,42,73,,,['l'],0,[0.25115656397974817],2018_Jul_09_0548,60.0323347144,go-nogo,001,26,
logos/1.jpg,properties1.xlsx,frogs/ab6.jpg,0,0,400,l,0,2,2,0,0,43,43,5,,,['l'],0,[0.18448126984003466],2018_Jul_09_0548,60.0323347144,go-nogo,001,26,
logos/1.jpg,properties1.xlsx,frogs/ab12.jpg,0,0,400,l,0,2,2,0,0,44,44,11,,,['l'],0,[0.36786432267399505],2018_Jul_09_0548,60.0323347144,go-nogo,001,26,
logos/1.jpg,properties1.xlsx,frogs/ab21.jpg,0,0,400,l,0,2,2,0,0,45,45,20,,,['l'],0,[0.30103373414021917],2018_Jul_09_0548,60.0323347144,go-nogo,001,26,
logos/1.jpg,properties1.xlsx,frogs/ab8.jpg,0,0,400,l,0,2,2,0,0,46,46,7,,,['l'],0,[0.25745357343839714],2018_Jul_09_0548,60.0323347144,go-nogo,001,26,
logos/1.jpg,properties1.xlsx,frogs/ab48.jpg,0,0,400,l,0,2,2,0,0,47,47,47,,,['l'],0,[0.251037415691826],2018_Jul_09_0548,60.0323347144,go-nogo,001,26,
logos/1.jpg,properties1.xlsx,frogs/ab73.jpg,0,0,400,l,0,2,2,0,0,48,48,71,,,['l'],0,[0.35096891657303786],2018_Jul_09_0548,60.0323347144,go-nogo,001,26,
logos/1.jpg,properties1.xlsx,frogs/ab65.jpg,0,0,400,l,0,2,2,0,0,49,49,63,,,['l'],0,[0.3013371829656535],2018_Jul_09_0548,60.0323347144,go-nogo,001,26,
logos/1.jpg,properties1.xlsx,frogs/ab54.jpg,0,0,400,l,0,2,2,0,0,50,50,53,,,['l'],0,[0.2671625972579932],2018_Jul_09_0548,60.0323347144,go-nogo,001,26,
logos/1.jpg,properties1.xlsx,frogs/ab40.jpg,0,0,400,l,0,2,2,0,0,51,51,39,,,['l'],0,[0.2005471003940329],2018_Jul_09_0548,60.0323347144,go-nogo,001,26,
logos/1.jpg,properties1.xlsx,frogs/ab78.jpg,0,0,400,l,0,2,2,0,0,52,52,76,,,['l'],0,[0.251444840359909],2018_Jul_09_0548,60.0323347144,go-nogo,001,26,
logos/1.jpg,properties1.xlsx,frogs/ab30.jpg,0,0,400,l,0,2,2,0,0,53,53,29,,,['l'],0,[0.1676019286896917],2018_Jul_09_0548,60.0323347144,go-nogo,001,26,
logos/1.jpg,properties1.xlsx,frogs/ab24.jpg,0,0,400,l,0,2,2,0,0,54,54,23,,,['l'],0,[0.2523650043149246],2018_Jul_09_0548,60.0323347144,go-nogo,001,26,
logos/1.jpg,properties1.xlsx,frogs/ab45.jpg,0,0,400,l,0,2,2,0,0,55,55,44,,,['l'],0,[0.18651482325367397],2018_Jul_09_0548,60.0323347144,go-nogo,001,26,
logos/1.jpg,properties1.xlsx,frogs/ab9.jpg,0,0,400,l,0,2,2,0,0,56,56,8,,,['l'],0,[0.3693824593210593],2018_Jul_09_0548,60.0323347144,go-nogo,001,26,
logos/1.jpg,properties1.xlsx,frogs/ab81.jpg,0,0,400,l,0,2,2,0,0,57,57,79,,,['l'],0,[0.217849931170349],2018_Jul_09_0548,60.0323347144,go-nogo,001,26,
logos/1.jpg,properties1.xlsx,frogs/ab66.jpg,0,0,400,l,0,2,2,0,0,58,58,64,,,['l'],0,[0.1344363103271462],2018_Jul_09_0548,60.0323347144,go-nogo,001,26,
logos/1.jpg,properties1.xlsx,logos/1.jpg,0,0,400,a,0,2,2,0,0,59,59,82,,,['a'],0,[0.469967267687025],2018_Jul_09_0548,60.0323347144,go-nogo,001,26,
logos/1.jpg,properties1.xlsx,frogs/ab67.jpg,0,0,400,l,0,2,2,0,0,60,60,65,,,['l'],0,[0.15112867346033454],2018_Jul_09_0548,60.0323347144,go-nogo,001,26,
logos/1.jpg,properties1.xlsx,frogs/ab72.jpg,0,0,400,l,0,2,2,0,0,61,61,70,,,['l'],0,[0.26749460597056895],2018_Jul_09_0548,60.0323347144,go-nogo,001,26,
logos/1.jpg,properties1.xlsx,frogs/ab23.jpg,0,0,400,l,0,2,2,0,0,62,62,22,,,['l'],0,[0.11705226236517774],2018_Jul_09_0548,60.0323347144,go-nogo,001,26,
logos/1.jpg,properties1.xlsx,frogs/ab52.jpg,0,0,400,l,0,2,2,0,0,63,63,51,,,['l'],0,[0.21705650172953028],2018_Jul_09_0548,60.0323347144,go-nogo,001,26,
logos/1.jpg,properties1.xlsx,frogs/ab58.jpg,0,0,400,l,0,2,2,0,0,64,64,57,,,['l'],0,[0.13488702109316364],2018_Jul_09_0548,60.0323347144,go-nogo,001,26,
logos/1.jpg,properties1.xlsx,frogs/ab80.jpg,0,0,400,l,0,2,2,0,0,65,65,78,,,['l'],0,[0.25123688866733573],2018_Jul_09_0548,60.0323347144,go-nogo,001,26,
logos/1.jpg,properties1.xlsx,frogs/ab25.jpg,0,0,400,l,0,2,2,0,0,66,66,24,,,['l'],0,[0.11798715250915848],2018_Jul_09_0548,60.0323347144,go-nogo,001,26,
logos/1.jpg,properties1.xlsx,frogs/ab53.jpg,0,0,400,l,0,2,2,0,0,67,67,52,,,['l'],0,[0.3180054486874724],2018_Jul_09_0548,60.0323347144,go-nogo,001,26,
logos/1.jpg,properties1.xlsx,frogs/ab2.jpg,0,0,400,l,0,2,2,0,0,68,68,1,,,['l'],0,[1.6277133568801219],2018_Jul_09_0548,60.0323347144,go-nogo,001,26,
logos/1.jpg,properties1.xlsx,frogs/ab69.jpg,0,0,400,l,0,2,2,0,0,69,69,67,,,['l'],0,[0.10123856209247606],2018_Jul_09_0548,60.0323347144,go-nogo,001,26,
logos/1.jpg,properties1.xlsx,logos/1.jpg,0,0,400,a,0,2,2,0,0,70,70,80,,,['a'],0,[0.3513428726364509],2018_Jul_09_0548,60.0323347144,go-nogo,001,26,
logos/1.jpg,properties1.xlsx,frogs/ab71.jpg,0,0,400,l,0,2,2,0,0,71,71,69,,,['l'],0,[0.08463410988042597],2018_Jul_09_0548,60.0323347144,go-nogo,001,26,
logos/1.jpg,properties1.xlsx,frogs/ab14.jpg,0,0,400,l,0,2,2,0,0,72,72,13,,,['l'],0,[0.20116738549404545],2018_Jul_09_0548,60.0323347144,go-nogo,001,26,
logos/1.jpg,properties1.xlsx,frogs/ab17.jpg,0,0,400,l,0,2,2,0,0,73,73,16,,,['l'],0,[0.1843630140501773],2018_Jul_09_0548,60.0323347144,go-nogo,001,26,
logos/1.jpg,properties1.xlsx,frogs/ab34.jpg,0,0,400,l,0,2,2,0,0,74,74,33,,,['l'],0,[0.1345032475728658],2018_Jul_09_0548,60.0323347144,go-nogo,001,26,
logos/1.jpg,properties1.xlsx,frogs/ab5.jpg,0,0,400,l,0,2,2,0,0,75,75,4,,,['l'],0,[0.30112967751483666],2018_Jul_09_0548,60.0323347144,go-nogo,001,26,
logos/1.jpg,properties1.xlsx,logos/1.jpg,0,0,400,a,0,2,2,0,0,76,76,86,,,['a'],0,[0.30018809364992194],2018_Jul_09_0548,60.0323347144,go-nogo,001,26,
logos/1.jpg,properties1.xlsx,frogs/ab16.jpg,0,0,400,l,0,2,2,0,0,77,77,15,,,['l'],0,[0.11685368188773282],2018_Jul_09_0548,60.0323347144,go-nogo,001,26,
logos/1.jpg,properties1.xlsx,frogs/ab19.jpg,0,0,400,l,0,2,2,0,0,78,78,18,,,['l'],0,[0.18456382578006014],2018_Jul_09_0548,60.0323347144,go-nogo,001,26,
logos/1.jpg,properties1.xlsx,frogs/ab63.jpg,0,0,400,l,0,2,2,0,0,79,79,61,,,['l'],0,[0.18475348129868507],2018_Jul_09_0548,60.0323347144,go-nogo,001,26,
logos/1.jpg,properties1.xlsx,frogs/ab79.jpg,0,0,400,l,0,2,2,0,0,80,80,77,,,['l'],0,[0.16812984040006995],2018_Jul_09_0548,60.0323347144,go-nogo,001,26,
logos/1.jpg,properties1.xlsx,logos/1.jpg,0,0,400,a,0,2,2,0,0,81,81,84,,,['a'],0,[0.2842146365001099],2018_Jul_09_0548,60.0323347144,go-nogo,001,26,
logos/1.jpg,properties1.xlsx,frogs/ab33.jpg,0,0,400,l,0,2,2,0,0,82,82,32,,,['l'],0,[0.2019710786480573],2018_Jul_09_0548,60.0323347144,go-nogo,001,26,
logos/1.jpg,properties1.xlsx,frogs/ab41.jpg,0,0,400,l,0,2,2,0,0,83,83,40,,,['l'],0,[0.16787235513766063],2018_Jul_09_0548,60.0323347144,go-nogo,001,26,
logos/1.jpg,properties1.xlsx,frogs/ab56.jpg,0,0,400,l,0,2,2,0,0,84,84,55,,,['l'],0,[0.11811834950640332],2018_Jul_09_0548,60.0323347144,go-nogo,001,26,
logos/1.jpg,properties1.xlsx,logos/1.jpg,0,0,400,a,0,2,2,0,0,85,85,89,,,['a'],0,[0.16752562022884376],2018_Jul_09_0548,60.0323347144,go-nogo,001,26,
logos/1.jpg,properties1.xlsx,frogs/ab39.jpg,0,0,400,l,0,2,2,0,0,86,86,38,,,['l'],0,[0.1337370392793673],2018_Jul_09_0548,60.0323347144,go-nogo,001,26,
logos/1.jpg,properties1.xlsx,frogs/ab44.jpg,0,0,400,l,0,2,2,0,0,87,87,43,,,['l'],0,[0.1846441504676477],2018_Jul_09_0548,60.0323347144,go-nogo,001,26,
logos/1.jpg,properties1.xlsx,frogs/ab28.jpg,0,0,400,l,0,2,2,0,0,88,88,27,,,['l'],0,[0.25107356179796625],2018_Jul_09_0548,60.0323347144,go-nogo,001,26,
logos/1.jpg,properties1.xlsx,frogs/ab68.jpg,0,0,400,l,0,2,2,0,0,89,89,66,,,['l'],0,[0.13449610760289943],2018_Jul_09_0548,60.0323347144,go-nogo,001,26,
logos/1.jpg,properties1.xlsx,,,,,,0,2,2,0,,,,,,,,,,2018_Jul_09_0548,60.0323347144,go-nogo,001,26,
logos/4.jpg,properties4.xlsx,frogs/ab4.jpg,0,0,400,l,0,3,3,3,0,0,0,3,space,1.7622946979,['l'],0,[0.650942811058485],2018_Jul_09_0548,60.0323347144,go-nogo,001,26,
logos/4.jpg,properties4.xlsx,frogs/ab44.jpg,0,0,400,l,0,3,3,3,0,1,1,43,,,['l'],0,[0.2510579431109363],2018_Jul_09_0548,60.0323347144,go-nogo,001,26,
logos/4.jpg,properties4.xlsx,frogs/ab51.jpg,0,0,400,l,0,3,3,3,0,2,2,50,,,['l'],0,[0.13491781222546706],2018_Jul_09_0548,60.0323347144,go-nogo,001,26,
logos/4.jpg,properties4.xlsx,frogs/ab42.jpg,0,0,400,l,0,3,3,3,0,3,3,41,,,['l'],0,[0.1344572839952889],2018_Jul_09_0548,60.0323347144,go-nogo,001,26,
logos/4.jpg,properties4.xlsx,frogs/ab76.jpg,0,0,400,l,0,3,3,3,0,4,4,74,,,['l'],0,[0.1676822533700033],2018_Jul_09_0548,60.0323347144,go-nogo,001,26,
logos/4.jpg,properties4.xlsx,frogs/ab63.jpg,0,0,400,l,0,3,3,3,0,5,5,61,,,['l'],0,[0.10251840216369601],2018_Jul_09_0548,60.0323347144,go-nogo,001,26,
logos/4.jpg,properties4.xlsx,frogs/ab38.jpg,0,0,400,l,0,3,3,3,0,6,6,37,,,['l'],0,[0.18465039794682525],2018_Jul_09_0548,60.0323347144,go-nogo,001,26,
logos/4.jpg,properties4.xlsx,frogs/ab50.jpg,0,0,400,l,0,3,3,3,0,7,7,49,,,['l'],0,[0.18529433420917485],2018_Jul_09_0548,60.0323347144,go-nogo,001,26,
logos/4.jpg,properties4.xlsx,frogs/ab9.jpg,0,0,400,l,0,3,3,3,0,8,8,8,,,['l'],0,[0.25138861308369087],2018_Jul_09_0548,60.0323347144,go-nogo,001,26,
logos/4.jpg,properties4.xlsx,frogs/ab67.jpg,0,0,400,l,0,3,3,3,0,9,9,65,,,['l'],0,[0.2175161374543677],2018_Jul_09_0548,60.0323347144,go-nogo,001,26,
logos/4.jpg,properties4.xlsx,frogs/ab58.jpg,0,0,400,l,0,3,3,3,0,10,10,57,,,['l'],0,[0.13641631394420983],2018_Jul_09_0548,60.0323347144,go-nogo,001,26,
logos/4.jpg,properties4.xlsx,logos/4.jpg,0,0,400,a,0,3,3,3,0,11,11,86,,,['a'],0,[0.16768582336226245],2018_Jul_09_0548,60.0323347144,go-nogo,001,26,
logos/4.jpg,properties4.xlsx,frogs/ab27.jpg,0,0,400,l,0,3,3,3,0,12,12,26,,,['l'],0,[0.06790515439206501],2018_Jul_09_0548,60.0323347144,go-nogo,001,26,
logos/4.jpg,properties4.xlsx,frogs/ab29.jpg,0,0,400,l,0,3,3,3,0,13,13,28,,,['l'],0,[0.1838284086115891],2018_Jul_09_0548,60.0323347144,go-nogo,001,26,
logos/4.jpg,properties4.xlsx,frogs/ab62.jpg,0,0,400,l,0,3,3,3,0,14,14,60,,,['l'],0,[0.20130616871028906],2018_Jul_09_0548,60.0323347144,go-nogo,001,26,
logos/4.jpg,properties4.xlsx,frogs/ab34.jpg,0,0,400,l,0,3,3,3,0,15,15,33,,,['l'],0,[0.15142721356096445],2018_Jul_09_0548,60.0323347144,go-nogo,001,26,
logos/4.jpg,properties4.xlsx,frogs/ab77.jpg,0,0,400,l,0,3,3,3,0,16,16,75,,,['l'],0,[0.28463500237558037],2018_Jul_09_0548,60.0323347144,go-nogo,001,26,
logos/4.jpg,properties4.xlsx,frogs/ab47.jpg,0,0,400,l,0,3,3,3,0,17,17,46,,,['l'],0,[1.6176406407248578],2018_Jul_09_0548,60.0323347144,go-nogo,001,26,
logos/4.jpg,properties4.xlsx,frogs/ab24.jpg,0,0,400,l,0,3,3,3,0,18,18,23,,,['l'],0,[0.26774807499168674],2018_Jul_09_0548,60.0323347144,go-nogo,001,26,
logos/4.jpg,properties4.xlsx,frogs/ab7.jpg,0,0,400,l,0,3,3,3,0,19,19,6,,,['l'],0,[0.251259647331608],2018_Jul_09_0548,60.0323347144,go-nogo,001,26,
logos/4.jpg,properties4.xlsx,logos/4.jpg,0,0,400,a,0,3,3,3,0,20,20,89,,,['a'],0,[0.2178044138418045],2018_Jul_09_0548,60.0323347144,go-nogo,001,26,
logos/4.jpg,properties4.xlsx,frogs/ab40.jpg,0,0,400,l,0,3,3,3,0,21,21,39,,,['l'],0,[0.1678977912888513],2018_Jul_09_0548,60.0323347144,go-nogo,001,26,
logos/4.jpg,properties4.xlsx,frogs/ab48.jpg,0,0,400,l,0,3,3,3,0,22,22,47,,,['l'],0,[0.25142922167287907],2018_Jul_09_0548,60.0323347144,go-nogo,001,26,
logos/4.jpg,properties4.xlsx,frogs/ab15.jpg,0,0,400,l,0,3,3,3,0,23,23,14,,,['l'],0,[0.2846296473944676],2018_Jul_09_0548,60.0323347144,go-nogo,001,26,
logos/4.jpg,properties4.xlsx,frogs/ab25.jpg,0,0,400,l,0,3,3,3,0,24,24,24,,,['l'],0,[0.6012106715861592],2018_Jul_09_0548,60.0323347144,go-nogo,001,26,
logos/4.jpg,properties4.xlsx,frogs/ab6.jpg,0,0,400,l,0,3,3,3,0,25,25,5,,,['l'],0,[0.5854161599927465],2018_Jul_09_0548,60.0323347144,go-nogo,001,26,
logos/4.jpg,properties4.xlsx,frogs/ab73.jpg,0,0,400,l,0,3,3,3,0,26,26,71,,,['l'],0,[0.18472224391734926],2018_Jul_09_0548,60.0323347144,go-nogo,001,26,
logos/4.jpg,properties4.xlsx,frogs/ab74.jpg,0,0,400,l,0,3,3,3,0,27,27,72,,,['l'],0,[0.1345929434755817],2018_Jul_09_0548,60.0323347144,go-nogo,001,26,
logos/4.jpg,properties4.xlsx,frogs/ab5.jpg,0,0,400,l,0,3,3,3,0,28,28,4,,,['l'],0,[0.11781534692272544],2018_Jul_09_0548,60.0323347144,go-nogo,001,26,
logos/4.jpg,properties4.xlsx,frogs/ab22.jpg,0,0,400,l,0,3,3,3,0,29,29,21,,,['l'],0,[0.0010723346131271683],2018_Jul_09_0548,60.0323347144,go-nogo,001,26,
logos/4.jpg,properties4.xlsx,frogs/ab11.jpg,0,0,400,l,0,3,3,3,0,30,30,10,,,['l'],0,[0.16708874316100264],2018_Jul_09_0548,60.0323347144,go-nogo,001,26,
logos/4.jpg,properties4.xlsx,frogs/ab23.jpg,0,0,400,l,0,3,3,3,0,31,31,22,,,['l'],0,[0.16693568000482628],2018_Jul_09_0548,60.0323347144,go-nogo,001,26,
logos/4.jpg,properties4.xlsx,frogs/ab32.jpg,0,0,400,l,0,3,3,3,0,32,32,31,,,['l'],0,[0.23416521449689753],2018_Jul_09_0548,60.0323347144,go-nogo,001,26,
logos/4.jpg,properties4.xlsx,frogs/ab26.jpg,0,0,400,l,0,3,3,3,0,33,33,25,,,['l'],0,[0.2501690165299806],2018_Jul_09_0548,60.0323347144,go-nogo,001,26,
logos/4.jpg,properties4.xlsx,frogs/ab13.jpg,0,0,400,l,0,3,3,3,0,34,34,12,,,['l'],0,[0.28439268955844454],2018_Jul_09_0548,60.0323347144,go-nogo,001,26,
logos/4.jpg,properties4.xlsx,frogs/ab55.jpg,0,0,400,l,0,3,3,3,0,35,35,54,,,['l'],0,[0.26768560023629107],2018_Jul_09_0548,60.0323347144,go-nogo,001,26,
logos/4.jpg,properties4.xlsx,frogs/ab79.jpg,0,0,400,l,0,3,3,3,0,36,36,77,,,['l'],0,[0.2175830747000873],2018_Jul_09_0548,60.0323347144,go-nogo,001,26,
logos/4.jpg,properties4.xlsx,frogs/ab18.jpg,0,0,400,l,0,3,3,3,0,37,37,17,,,['l'],0,[0.20088000160467345],2018_Jul_09_0548,60.0323347144,go-nogo,001,26,
logos/4.jpg,properties4.xlsx,frogs/ab49.jpg,0,0,400,l,0,3,3,3,0,38,38,48,,,['l'],0,[0.23644866694667144],2018_Jul_09_0548,60.0323347144,go-nogo,001,26,
logos/4.jpg,properties4.xlsx,frogs/ab68.jpg,0,0,400,l,0,3,3,3,0,39,39,66,,,['l'],0,[0.16769073209434282],2018_Jul_09_0548,60.0323347144,go-nogo,001,26,
logos/4.jpg,properties4.xlsx,frogs/ab78.jpg,0,0,400,l,0,3,3,3,0,40,40,76,,,['l'],0,[0.17860551875492092],2018_Jul_09_0548,60.0323347144,go-nogo,001,26,
logos/4.jpg,properties4.xlsx,frogs/ab33.jpg,0,0,400,l,0,3,3,3,0,41,41,32,,,['l'],0,[0.10965168090478983],2018_Jul_09_0548,60.0323347144,go-nogo,001,26,
logos/4.jpg,properties4.xlsx,frogs/ab41.jpg,0,0,400,l,0,3,3,3,0,42,42,40,,,['l'],0,[0.2562254981821752],2018_Jul_09_0548,60.0323347144,go-nogo,001,26,
logos/4.jpg,properties4.xlsx,frogs/ab81.jpg,0,0,400,l,0,3,3,3,0,43,43,79,,,['l'],0,[0.2345097181678284],2018_Jul_09_0548,60.0323347144,go-nogo,001,26,
logos/4.jpg,properties4.xlsx,frogs/ab1.jpg,0,0,400,l,0,3,3,3,0,44,44,0,,,['l'],0,[0.1344488052855013],2018_Jul_09_0548,60.0323347144,go-nogo,001,26,
logos/4.jpg,properties4.xlsx,frogs/ab56.jpg,0,0,400,l,0,3,3,3,0,45,45,55,,,['l'],0,[0.7012474870643928],2018_Jul_09_0548,60.0323347144,go-nogo,001,26,
logos/4.jpg,properties4.xlsx,logos/4.jpg,0,0,400,a,0,3,3,3,0,46,46,85,,,['a'],0,[0.25148857269232394],2018_Jul_09_0548,60.0323347144,go-nogo,001,26,
logos/4.jpg,properties4.xlsx,logos/4.jpg,0,0,400,a,0,3,3,3,0,47,47,83,,,['a'],0,[0.8510717768003815],2018_Jul_09_0548,60.0323347144,go-nogo,001,26,
logos/4.jpg,properties4.xlsx,frogs/ab30.jpg,0,0,400,l,0,3,3,3,0,48,48,29,,,['l'],0,[0.16752249649289297],2018_Jul_09_0548,60.0323347144,go-nogo,001,26,
logos/4.jpg,properties4.xlsx,logos/4.jpg,0,0,400,a,0,3,3,3,0,49,49,80,,,['a'],0,[0.28460376499424456],2018_Jul_09_0548,60.0323347144,go-nogo,001,26,
logos/4.jpg,properties4.xlsx,frogs/ab21.jpg,0,0,400,l,0,3,3,3,0,50,50,20,,,['l'],0,[0.2673210153952823],2018_Jul_09_0548,60.0323347144,go-nogo,001,26,
logos/4.jpg,properties4.xlsx,frogs/ab28.jpg,0,0,400,l,0,3,3,3,0,51,51,27,,,['l'],0,[0.22797441212605918],2018_Jul_09_0548,60.0323347144,go-nogo,001,26,
logos/4.jpg,properties4.xlsx,frogs/ab54.jpg,0,0,400,l,0,3,3,3,0,52,52,53,,,['l'],0,[0.17851359160704305],2018_Jul_09_0548,60.0323347144,go-nogo,001,26,
logos/4.jpg,properties4.xlsx,frogs/ab3.jpg,0,0,400,l,0,3,3,3,0,53,53,2,,,['l'],0,[0.31930358493264066],2018_Jul_09_0548,60.0323347144,go-nogo,001,26,
logos/4.jpg,properties4.xlsx,frogs/ab2.jpg,0,0,400,l,0,3,3,3,0,54,54,1,,,['l'],0,[0.4548528384693782],2018_Jul_09_0548,60.0323347144,go-nogo,001,26,
logos/4.jpg,properties4.xlsx,frogs/ab52.jpg,0,0,400,l,0,3,3,3,0,55,55,51,,,['l'],0,[0.1510322838294087],2018_Jul_09_0548,60.0323347144,go-nogo,001,26,
logos/4.jpg,properties4.xlsx,frogs/ab36.jpg,0,0,400,l,0,3,3,3,0,56,56,35,,,['l'],0,[0.18691733920422848],2018_Jul_09_0548,60.0323347144,go-nogo,001,26,
logos/4.jpg,properties4.xlsx,frogs/ab10.jpg,0,0,400,l,0,3,3,3,0,57,57,9,,,['l'],0,[0.31365497421938926],2018_Jul_09_0548,60.0323347144,go-nogo,001,26,
logos/4.jpg,properties4.xlsx,frogs/ab17.jpg,0,0,400,l,0,3,3,3,0,58,58,16,,,['l'],0,[0.36628237252443796],2018_Jul_09_0548,60.0323347144,go-nogo,001,26,
logos/4.jpg,properties4.xlsx,frogs/ab71.jpg,0,0,400,l,0,3,3,3,0,59,59,69,,,['l'],0,[0.1659186801771284],2018_Jul_09_0548,60.0323347144,go-nogo,001,26,
logos/4.jpg,properties4.xlsx,frogs/ab37.jpg,0,0,400,l,0,3,3,3,0,60,60,36,,,['l'],0,[0.3342595960129984],2018_Jul_09_0548,60.0323347144,go-nogo,001,26,
logos/4.jpg,properties4.xlsx,frogs/ab60.jpg,0,0,400,l,0,3,3,3,0,61,61,58,,,['l'],0,[0.18458926192397485],2018_Jul_09_0548,60.0323347144,go-nogo,001,26,
logos/4.jpg,properties4.xlsx,frogs/ab19.jpg,0,0,400,l,0,3,3,3,0,62,62,18,,,['l'],0,[0.2012610976380529],2018_Jul_09_0548,60.0323347144,go-nogo,001,26,
logos/4.jpg,properties4.xlsx,frogs/ab12.jpg,0,0,400,l,0,3,3,3,0,63,63,11,,,['l'],0,[0.15118713198171463],2018_Jul_09_0548,60.0323347144,go-nogo,001,26,
logos/4.jpg,properties4.xlsx,frogs/ab45.jpg,0,0,400,l,0,3,3,3,0,64,64,44,,,['l'],0,[0.18417558976943837],2018_Jul_09_0548,60.0323347144,go-nogo,001,26,
logos/4.jpg,properties4.xlsx,frogs/ab61.jpg,0,0,400,l,0,3,3,3,0,65,65,59,,,['l'],0,[0.1672074451998924],2018_Jul_09_0548,60.0323347144,go-nogo,001,26,
logos/4.jpg,properties4.xlsx,frogs/ab80.jpg,0,0,400,l,0,3,3,3,0,66,66,78,,,['l'],0,[0.13560771206539357],2018_Jul_09_0548,60.0323347144,go-nogo,001,26,
logos/4.jpg,properties4.xlsx,logos/4.jpg,0,0,400,a,0,3,3,3,0,67,67,84,,,['a'],0,[0.30101677670609206],2018_Jul_09_0548,60.0323347144,go-nogo,001,26,
logos/4.jpg,properties4.xlsx,frogs/ab35.jpg,0,0,400,l,0,3,3,3,0,68,68,34,,,['l'],0,[0.0952628513914533],2018_Jul_09_0548,60.0323347144,go-nogo,001,26,
logos/4.jpg,properties4.xlsx,frogs/ab64.jpg,0,0,400,l,0,3,3,3,0,69,69,62,,,['l'],0,[0.21763751698745182],2018_Jul_09_0548,60.0323347144,go-nogo,001,26,
logos/4.jpg,properties4.xlsx,logos/4.jpg,0,0,400,a,0,3,3,3,0,70,70,82,,,['l'],0,[0.1344974463499966],2018_Jul_09_0548,60.0323347144,go-nogo,001,26,
logos/4.jpg,properties4.xlsx,logos/4.jpg,0,0,400,a,0,3,3,3,0,71,71,88,,,['a'],0,[0.16781746660126373],2018_Jul_09_0548,60.0323347144,go-nogo,001,26,
logos/4.jpg,properties4.xlsx,frogs/ab70.jpg,0,0,400,l,0,3,3,3,0,72,72,68,,,['l'],0,[0.33426718223199714],2018_Jul_09_0548,60.0323347144,go-nogo,001,26,
logos/4.jpg,properties4.xlsx,logos/4.jpg,0,0,400,a,0,3,3,3,0,73,73,87,,,['a'],0,[0.16197161415038863],2018_Jul_09_0548,60.0323347144,go-nogo,001,26,
logos/4.jpg,properties4.xlsx,frogs/ab75.jpg,0,0,400,l,0,3,3,3,0,74,74,73,,,['l'],0,[0.18297339690616354],2018_Jul_09_0548,60.0323347144,go-nogo,001,26,
logos/4.jpg,properties4.xlsx,frogs/ab69.jpg,0,0,400,l,0,3,3,3,0,75,75,67,,,['l'],0,[0.2037788304296555],2018_Jul_09_0548,60.0323347144,go-nogo,001,26,
logos/4.jpg,properties4.xlsx,frogs/ab65.jpg,0,0,400,l,0,3,3,3,0,76,76,63,,,['l'],0,[0.11779258826572914],2018_Jul_09_0548,60.0323347144,go-nogo,001,26,
logos/4.jpg,properties4.xlsx,frogs/ab46.jpg,0,0,400,l,0,3,3,3,0,77,77,45,,,['l'],0,[0.10014927004522178],2018_Jul_09_0548,60.0323347144,go-nogo,001,26,
logos/4.jpg,properties4.xlsx,frogs/ab16.jpg,0,0,400,l,0,3,3,3,0,78,78,15,,,['l'],0,[0.11634183510614093],2018_Jul_09_0548,60.0323347144,go-nogo,001,26,
logos/4.jpg,properties4.xlsx,frogs/ab72.jpg,0,0,400,l,0,3,3,3,0,79,79,70,,,['l'],0,[0.11771270981989801],2018_Jul_09_0548,60.0323347144,go-nogo,001,26,
logos/4.jpg,properties4.xlsx,frogs/ab8.jpg,0,0,400,l,0,3,3,3,0,80,80,7,,,['l'],0,[0.06778243611188373],2018_Jul_09_0548,60.0323347144,go-nogo,001,26,
logos/4.jpg,properties4.xlsx,frogs/ab31.jpg,0,0,400,l,0,3,3,3,0,81,81,30,,,['l'],0,[0.21779772011359455],2018_Jul_09_0548,60.0323347144,go-nogo,001,26,
logos/4.jpg,properties4.xlsx,frogs/ab39.jpg,0,0,400,l,0,3,3,3,0,82,82,38,,,['l'],0,[0.12041429690725636],2018_Jul_09_0548,60.0323347144,go-nogo,001,26,
logos/4.jpg,properties4.xlsx,frogs/ab20.jpg,0,0,400,l,0,3,3,3,0,83,83,19,,,['l'],0,[0.1201269130106084],2018_Jul_09_0548,60.0323347144,go-nogo,001,26,
logos/4.jpg,properties4.xlsx,frogs/ab14.jpg,0,0,400,l,0,3,3,3,0,84,84,13,,,['l'],0,[0.1510648599578417],2018_Jul_09_0548,60.0323347144,go-nogo,001,26,
logos/4.jpg,properties4.xlsx,frogs/ab57.jpg,0,0,400,l,0,3,3,3,0,85,85,56,,,['l'],0,[0.134680854389444],2018_Jul_09_0548,60.0323347144,go-nogo,001,26,
logos/4.jpg,properties4.xlsx,frogs/ab43.jpg,0,0,400,l,0,3,3,3,0,86,86,42,,,['l'],0,[0.0847019396169344],2018_Jul_09_0548,60.0323347144,go-nogo,001,26,
logos/4.jpg,properties4.xlsx,frogs/ab66.jpg,0,0,400,l,0,3,3,3,0,87,87,64,,,['l'],0,[0.10057231342216255],2018_Jul_09_0548,60.0323347144,go-nogo,001,26,
logos/4.jpg,properties4.xlsx,logos/4.jpg,0,0,400,a,0,3,3,3,0,88,88,81,,,['a'],0,[0.11718345936242258],2018_Jul_09_0548,60.0323347144,go-nogo,001,26,
logos/4.jpg,properties4.xlsx,frogs/ab53.jpg,0,0,400,l,0,3,3,3,0,89,89,52,,,['l'],0,[0.5870186375614139],2018_Jul_09_0548,60.0323347144,go-nogo,001,26,
logos/4.jpg,properties4.xlsx,,,,,,0,3,3,3,,,,,,,,,,2018_Jul_09_0548,60.0323347144,go-nogo,001,26,
