pix,source,image1,x,y,size,answer,trials_2.thisRepN,trials_2.thisTrialN,trials_2.thisN,trials_2.thisIndex,trials.thisRepN,trials.thisTrialN,trials.thisN,trials.thisIndex,key_resp_3.keys,key_resp_3.rt,key_resp_2.keys,key_resp_2.corr,key_resp_2.rt,date,frameRate,expName,session,participant,
logos/4.jpg,properties4.xlsx,frogs/ab61.jpg,0,0,400,l,0,0,0,3,0,0,0,59,space,8.94071056113,['l'],0,[1.2807182812248357],2018_Jul_09_0600,60.0202754471,go-nogo,001,27,
logos/4.jpg,properties4.xlsx,frogs/ab16.jpg,0,0,400,l,0,0,0,3,0,1,1,15,,,['l'],0,[0.10105872404528782],2018_Jul_09_0600,60.0202754471,go-nogo,001,27,
logos/4.jpg,properties4.xlsx,frogs/ab38.jpg,0,0,400,l,0,0,0,3,0,2,2,37,,,['l'],0,[0.05098922087927349],2018_Jul_09_0600,60.0202754471,go-nogo,001,27,
logos/4.jpg,properties4.xlsx,frogs/ab53.jpg,0,0,400,l,0,0,0,3,0,3,3,52,,,['l'],0,[0.5841572935969452],2018_Jul_09_0600,60.0202754471,go-nogo,001,27,
logos/4.jpg,properties4.xlsx,logos/4.jpg,0,0,400,a,0,0,0,3,0,4,4,86,,,['l'],0,[0.8841178006259724],2018_Jul_09_0600,60.0202754471,go-nogo,001,27,
logos/4.jpg,properties4.xlsx,frogs/ab66.jpg,0,0,400,l,0,0,0,3,0,5,5,64,,,['l'],0,[0.7007530439659604],2018_Jul_09_0600,60.0202754471,go-nogo,001,27,
logos/4.jpg,properties4.xlsx,frogs/ab33.jpg,0,0,400,l,0,0,0,3,0,6,6,32,,,['l'],0,[0.15042850991449086],2018_Jul_09_0600,60.0202754471,go-nogo,001,27,
logos/4.jpg,properties4.xlsx,frogs/ab47.jpg,0,0,400,l,0,0,0,3,0,7,7,46,,,['l'],0,[1.5035697631028597],2018_Jul_09_0600,60.0202754471,go-nogo,001,27,
logos/4.jpg,properties4.xlsx,frogs/ab22.jpg,0,0,400,l,0,0,0,3,0,8,8,21,,,['l'],0,[0.3511179635024746],2018_Jul_09_0600,60.0202754471,go-nogo,001,27,
logos/4.jpg,properties4.xlsx,frogs/ab72.jpg,0,0,400,l,0,0,0,3,0,9,9,70,,,['l'],0,[0.25103206071071327],2018_Jul_09_0600,60.0202754471,go-nogo,001,27,
logos/4.jpg,properties4.xlsx,frogs/ab55.jpg,0,0,400,l,0,0,0,3,0,10,10,54,,,['l'],0,[0.21726846965611912],2018_Jul_09_0600,60.0202754471,go-nogo,001,27,
logos/4.jpg,properties4.xlsx,frogs/ab13.jpg,0,0,400,l,0,0,0,3,0,11,11,12,,,['l'],0,[0.21786064112529857],2018_Jul_09_0600,60.0202754471,go-nogo,001,27,
logos/4.jpg,properties4.xlsx,frogs/ab71.jpg,0,0,400,l,0,0,0,3,0,12,12,69,,,['l'],0,[0.21689406735822558],2018_Jul_09_0600,60.0202754471,go-nogo,001,27,
logos/4.jpg,properties4.xlsx,frogs/ab42.jpg,0,0,400,l,0,0,0,3,0,13,13,41,,,['l'],0,[0.2011187444368261],2018_Jul_09_0600,60.0202754471,go-nogo,001,27,
logos/4.jpg,properties4.xlsx,frogs/ab44.jpg,0,0,400,l,0,0,0,3,0,14,14,43,,,['l'],0,[0.21772319665615214],2018_Jul_09_0600,60.0202754471,go-nogo,001,27,
logos/4.jpg,properties4.xlsx,frogs/ab2.jpg,0,0,400,l,0,0,0,3,0,15,15,1,,,['l'],0,[0.24010611783887725],2018_Jul_09_0600,60.0202754471,go-nogo,001,27,
logos/4.jpg,properties4.xlsx,frogs/ab60.jpg,0,0,400,l,0,0,0,3,0,16,16,58,,,['l'],0,[0.2509387948157382],2018_Jul_09_0600,60.0202754471,go-nogo,001,27,
logos/4.jpg,properties4.xlsx,frogs/ab48.jpg,0,0,400,l,0,0,0,3,0,17,17,47,,,['l'],0,[0.20097192875255132],2018_Jul_09_0600,60.0202754471,go-nogo,001,27,
logos/4.jpg,properties4.xlsx,frogs/ab77.jpg,0,0,400,l,0,0,0,3,0,18,18,75,,,['l'],0,[0.3175721416118904],2018_Jul_09_0600,60.0202754471,go-nogo,001,27,
logos/4.jpg,properties4.xlsx,frogs/ab29.jpg,0,0,400,l,0,0,0,3,0,19,19,28,,,['l'],0,[0.13367724201089004],2018_Jul_09_0600,60.0202754471,go-nogo,001,27,
logos/4.jpg,properties4.xlsx,frogs/ab52.jpg,0,0,400,l,0,0,0,3,0,20,20,51,,,['l'],0,[0.2667690062735346],2018_Jul_09_0600,60.0202754471,go-nogo,001,27,
logos/4.jpg,properties4.xlsx,logos/4.jpg,0,0,400,a,0,0,0,3,0,21,21,85,,,['a'],0,[0.16764387602597708],2018_Jul_09_0600,60.0202754471,go-nogo,001,27,
logos/4.jpg,properties4.xlsx,frogs/ab69.jpg,0,0,400,l,0,0,0,3,0,22,22,67,,,['l'],0,[0.8840347984441905],2018_Jul_09_0600,60.0202754471,go-nogo,001,27,
logos/4.jpg,properties4.xlsx,frogs/ab50.jpg,0,0,400,l,0,0,0,3,0,23,23,49,,,['l'],0,[0.8841200318638585],2018_Jul_09_0600,60.0202754471,go-nogo,001,27,
logos/4.jpg,properties4.xlsx,logos/4.jpg,0,0,400,a,0,0,0,3,0,24,24,87,,,['a'],0,[0.15143970851204358],2018_Jul_09_0600,60.0202754471,go-nogo,001,27,
logos/4.jpg,properties4.xlsx,frogs/ab11.jpg,0,0,400,l,0,0,0,3,0,25,25,10,,,['l'],0,[0.050972263437870424],2018_Jul_09_0600,60.0202754471,go-nogo,001,27,
logos/4.jpg,properties4.xlsx,frogs/ab27.jpg,0,0,400,l,0,0,0,3,0,26,26,26,,,['l'],0,[0.30070127917133505],2018_Jul_09_0600,60.0202754471,go-nogo,001,27,
logos/4.jpg,properties4.xlsx,logos/4.jpg,0,0,400,a,0,0,0,3,0,27,27,80,,,['a'],0,[1.1672368975996505],2018_Jul_09_0600,60.0202754471,go-nogo,001,27,
logos/4.jpg,properties4.xlsx,frogs/ab65.jpg,0,0,400,l,0,0,0,3,0,28,28,63,,,['l'],0,[0.13436491060565459],2018_Jul_09_0600,60.0202754471,go-nogo,001,27,
logos/4.jpg,properties4.xlsx,frogs/ab24.jpg,0,0,400,l,0,0,0,3,0,29,29,23,,,['l'],0,[0.5846164830727503],2018_Jul_09_0600,60.0202754471,go-nogo,001,27,
logos/4.jpg,properties4.xlsx,frogs/ab19.jpg,0,0,400,l,0,0,0,3,0,30,30,18,,,['l'],0,[0.25091157367569394],2018_Jul_09_0600,60.0202754471,go-nogo,001,27,
logos/4.jpg,properties4.xlsx,frogs/ab4.jpg,0,0,400,l,0,0,0,3,0,31,31,3,,,['l'],0,[0.25095798348775133],2018_Jul_09_0600,60.0202754471,go-nogo,001,27,
logos/4.jpg,properties4.xlsx,frogs/ab26.jpg,0,0,400,l,0,0,0,3,0,32,32,25,,,['l'],0,[0.21757638097187737],2018_Jul_09_0600,60.0202754471,go-nogo,001,27,
logos/4.jpg,properties4.xlsx,frogs/ab51.jpg,0,0,400,l,0,0,0,3,0,33,33,50,,,['l'],0,[0.20097460623946972],2018_Jul_09_0600,60.0202754471,go-nogo,001,27,
logos/4.jpg,properties4.xlsx,frogs/ab79.jpg,0,0,400,l,0,0,0,3,0,34,34,77,,,['l'],0,[0.3009230645620846],2018_Jul_09_0600,60.0202754471,go-nogo,001,27,
logos/4.jpg,properties4.xlsx,frogs/ab58.jpg,0,0,400,l,0,0,0,3,0,35,35,57,,,['l'],0,[0.5705328873809776],2018_Jul_09_0600,60.0202754471,go-nogo,001,27,
logos/4.jpg,properties4.xlsx,logos/4.jpg,0,0,400,a,0,0,0,3,0,36,36,82,,,['a'],0,[0.35082388588489266],2018_Jul_09_0600,60.0202754471,go-nogo,001,27,
logos/4.jpg,properties4.xlsx,frogs/ab35.jpg,0,0,400,l,0,0,0,3,0,37,37,34,,,['l'],0,[0.9176270301541081],2018_Jul_09_0600,60.0202754471,go-nogo,001,27,
logos/4.jpg,properties4.xlsx,frogs/ab64.jpg,0,0,400,l,0,0,0,3,0,38,38,62,,,['l'],0,[0.4177272128945333],2018_Jul_09_0600,60.0202754471,go-nogo,001,27,
logos/4.jpg,properties4.xlsx,frogs/ab3.jpg,0,0,400,l,0,0,0,3,0,39,39,2,,,['l'],0,[0.26766507281718077],2018_Jul_09_0600,60.0202754471,go-nogo,001,27,
logos/4.jpg,properties4.xlsx,frogs/ab70.jpg,0,0,400,l,0,0,0,3,0,40,40,68,,,['l'],0,[0.23442225351027446],2018_Jul_09_0600,60.0202754471,go-nogo,001,27,
logos/4.jpg,properties4.xlsx,frogs/ab18.jpg,0,0,400,l,0,0,0,3,0,41,41,17,,,['l'],0,[0.3343439369346015],2018_Jul_09_0600,60.0202754471,go-nogo,001,27,
logos/4.jpg,properties4.xlsx,frogs/ab54.jpg,0,0,400,l,0,0,0,3,0,42,42,53,,,['l'],0,[0.8014387044458999],2018_Jul_09_0600,60.0202754471,go-nogo,001,27,
logos/4.jpg,properties4.xlsx,frogs/ab30.jpg,0,0,400,l,0,0,0,3,0,43,43,29,,,['l'],0,[0.2842690787874744],2018_Jul_09_0600,60.0202754471,go-nogo,001,27,
logos/4.jpg,properties4.xlsx,frogs/ab32.jpg,0,0,400,l,0,0,0,3,0,44,44,31,,,['l'],0,[0.31757794284203555],2018_Jul_09_0600,60.0202754471,go-nogo,001,27,
logos/4.jpg,properties4.xlsx,frogs/ab15.jpg,0,0,400,l,0,0,0,3,0,45,45,14,,,['l'],0,[0.5008721922567929],2018_Jul_09_0600,60.0202754471,go-nogo,001,27,
logos/4.jpg,properties4.xlsx,frogs/ab20.jpg,0,0,400,l,0,0,0,3,0,46,46,19,,,['l'],0,[0.11761944393219892],2018_Jul_09_0600,60.0202754471,go-nogo,001,27,
logos/4.jpg,properties4.xlsx,frogs/ab7.jpg,0,0,400,l,0,0,0,3,0,47,47,6,,,['l'],0,[0.2675767156542861],2018_Jul_09_0600,60.0202754471,go-nogo,001,27,
logos/4.jpg,properties4.xlsx,frogs/ab14.jpg,0,0,400,l,0,0,0,3,0,48,48,13,,,['l'],0,[0.2676200017449446],2018_Jul_09_0600,60.0202754471,go-nogo,001,27,
logos/4.jpg,properties4.xlsx,frogs/ab6.jpg,0,0,400,l,0,0,0,3,0,49,49,5,,,['l'],0,[0.31762658390653087],2018_Jul_09_0600,60.0202754471,go-nogo,001,27,
logos/4.jpg,properties4.xlsx,logos/4.jpg,0,0,400,a,0,0,0,3,0,50,50,81,,,['a'],0,[0.067624464223627],2018_Jul_09_0600,60.0202754471,go-nogo,001,27,
logos/4.jpg,properties4.xlsx,frogs/ab12.jpg,0,0,400,l,0,0,0,3,0,51,51,11,,,['a'],0,[1.283867901584017],2018_Jul_09_0600,60.0202754471,go-nogo,001,27,
logos/4.jpg,properties4.xlsx,frogs/ab78.jpg,0,0,400,l,0,0,0,3,0,52,52,76,,,['l'],0,[0.0009652350272517651],2018_Jul_09_0600,60.0202754471,go-nogo,001,27,
logos/4.jpg,properties4.xlsx,frogs/ab41.jpg,0,0,400,l,0,0,0,3,0,53,53,40,,,['l'],0,[0.5513718787769903],2018_Jul_09_0600,60.0202754471,go-nogo,001,27,
logos/4.jpg,properties4.xlsx,frogs/ab74.jpg,0,0,400,l,0,0,0,3,0,54,54,72,,,['l'],0,[0.3677893529602443],2018_Jul_09_0600,60.0202754471,go-nogo,001,27,
logos/4.jpg,properties4.xlsx,frogs/ab37.jpg,0,0,400,l,0,0,0,3,0,55,55,36,,,['l'],0,[0.0009688050122349523],2018_Jul_09_0600,60.0202754471,go-nogo,001,27,
logos/4.jpg,properties4.xlsx,frogs/ab43.jpg,0,0,400,l,0,0,0,3,0,56,56,42,,,['l'],0,[0.35015362096601166],2018_Jul_09_0600,60.0202754471,go-nogo,001,27,
logos/4.jpg,properties4.xlsx,frogs/ab40.jpg,0,0,400,l,0,0,0,3,0,57,57,39,,,['l'],0,[0.833855071949074],2018_Jul_09_0600,60.0202754471,go-nogo,001,27,
logos/4.jpg,properties4.xlsx,frogs/ab80.jpg,0,0,400,l,0,0,0,3,0,58,58,78,,,['l'],0,[0.217606279606116],2018_Jul_09_0600,60.0202754471,go-nogo,001,27,
logos/4.jpg,properties4.xlsx,frogs/ab31.jpg,0,0,400,l,0,0,0,3,0,59,59,30,,,['l'],0,[2.1171004571806407],2018_Jul_09_0600,60.0202754471,go-nogo,001,27,
logos/4.jpg,properties4.xlsx,logos/4.jpg,0,0,400,a,0,0,0,3,0,60,60,83,,,['a'],0,[0.6175455898337532],2018_Jul_09_0600,60.0202754471,go-nogo,001,27,
logos/4.jpg,properties4.xlsx,logos/4.jpg,0,0,400,a,0,0,0,3,0,61,61,84,,,['a'],0,[0.3177845557947876],2018_Jul_09_0600,60.0202754471,go-nogo,001,27,
logos/4.jpg,properties4.xlsx,frogs/ab39.jpg,0,0,400,l,0,0,0,3,0,62,62,38,,,['l'],0,[0.46761286177206784],2018_Jul_09_0600,60.0202754471,go-nogo,001,27,
logos/4.jpg,properties4.xlsx,frogs/ab28.jpg,0,0,400,l,0,0,0,3,0,63,63,27,,,['l'],0,[0.23441511353303213],2018_Jul_09_0600,60.0202754471,go-nogo,001,27,
logos/4.jpg,properties4.xlsx,frogs/ab17.jpg,0,0,400,l,0,0,0,3,0,64,64,16,,,['l'],0,[0.16784691898646997],2018_Jul_09_0600,60.0202754471,go-nogo,001,27,
logos/4.jpg,properties4.xlsx,frogs/ab68.jpg,0,0,400,l,0,0,0,3,0,65,65,66,,,['l'],0,[0.4511226491085836],2018_Jul_09_0600,60.0202754471,go-nogo,001,27,
logos/4.jpg,properties4.xlsx,frogs/ab62.jpg,0,0,400,l,0,0,0,3,0,66,66,60,,,['l'],0,[0.06784000214247499],2018_Jul_09_0600,60.0202754471,go-nogo,001,27,
logos/4.jpg,properties4.xlsx,frogs/ab25.jpg,0,0,400,l,0,0,0,3,0,67,67,24,,,['l'],0,[0.08464392733731074],2018_Jul_09_0600,60.0202754471,go-nogo,001,27,
logos/4.jpg,properties4.xlsx,frogs/ab76.jpg,0,0,400,l,0,0,0,3,0,68,68,74,,,['l'],0,[0.16783308528829366],2018_Jul_09_0600,60.0202754471,go-nogo,001,27,
logos/4.jpg,properties4.xlsx,frogs/ab81.jpg,0,0,400,l,0,0,0,3,0,69,69,79,,,['l'],0,[0.7344055192006635],2018_Jul_09_0600,60.0202754471,go-nogo,001,27,
logos/4.jpg,properties4.xlsx,frogs/ab45.jpg,0,0,400,l,0,0,0,3,0,70,70,44,,,['l'],0,[0.5342952958744718],2018_Jul_09_0600,60.0202754471,go-nogo,001,27,
logos/4.jpg,properties4.xlsx,frogs/ab63.jpg,0,0,400,l,0,0,0,3,0,71,71,61,,,['l'],0,[0.31708573098876514],2018_Jul_09_0600,60.0202754471,go-nogo,001,27,
logos/4.jpg,properties4.xlsx,frogs/ab57.jpg,0,0,400,l,0,0,0,3,0,72,72,56,,,['l'],0,[0.3002001423519687],2018_Jul_09_0600,60.0202754471,go-nogo,001,27,
logos/4.jpg,properties4.xlsx,frogs/ab21.jpg,0,0,400,l,0,0,0,3,0,73,73,20,,,['l'],0,[0.3174070297536673],2018_Jul_09_0600,60.0202754471,go-nogo,001,27,
logos/4.jpg,properties4.xlsx,frogs/ab10.jpg,0,0,400,l,0,0,0,3,0,74,74,9,,,['l'],0,[0.26770345016848296],2018_Jul_09_0600,60.0202754471,go-nogo,001,27,
logos/4.jpg,properties4.xlsx,logos/4.jpg,0,0,400,a,0,0,0,3,0,75,75,89,,,['a'],0,[0.48422936269344063],2018_Jul_09_0600,60.0202754471,go-nogo,001,27,
logos/4.jpg,properties4.xlsx,frogs/ab46.jpg,0,0,400,l,0,0,0,3,0,76,76,45,,,['l'],0,[0.2009420301183127],2018_Jul_09_0600,60.0202754471,go-nogo,001,27,
logos/4.jpg,properties4.xlsx,frogs/ab73.jpg,0,0,400,l,0,0,0,3,0,77,77,71,,,['l'],0,[2.4834747568529565],2018_Jul_09_0600,60.0202754471,go-nogo,001,27,
logos/4.jpg,properties4.xlsx,frogs/ab34.jpg,0,0,400,l,0,0,0,3,0,78,78,33,,,['l'],0,[0.30020281984616304],2018_Jul_09_0600,60.0202754471,go-nogo,001,27,
logos/4.jpg,properties4.xlsx,frogs/ab8.jpg,0,0,400,l,0,0,0,3,0,79,79,7,,,['l'],0,[0.1507658736081794],2018_Jul_09_0600,60.0202754471,go-nogo,001,27,
logos/4.jpg,properties4.xlsx,frogs/ab9.jpg,0,0,400,l,0,0,0,3,0,80,80,8,,,['l'],0,[0.28414680675632553],2018_Jul_09_0600,60.0202754471,go-nogo,001,27,
logos/4.jpg,properties4.xlsx,frogs/ab75.jpg,0,0,400,l,0,0,0,3,0,81,81,73,,,['l'],0,[0.3341310765099479],2018_Jul_09_0600,60.0202754471,go-nogo,001,27,
logos/4.jpg,properties4.xlsx,logos/4.jpg,0,0,400,a,0,0,0,3,0,82,82,88,,,['a'],0,[0.78401717163797],2018_Jul_09_0600,60.0202754471,go-nogo,001,27,
logos/4.jpg,properties4.xlsx,frogs/ab1.jpg,0,0,400,l,0,0,0,3,0,83,83,0,,,['l'],0,[0.06769274020916782],2018_Jul_09_0600,60.0202754471,go-nogo,001,27,
logos/4.jpg,properties4.xlsx,frogs/ab36.jpg,0,0,400,l,0,0,0,3,0,84,84,35,,,['l'],0,[0.03435888625244843],2018_Jul_09_0600,60.0202754471,go-nogo,001,27,
logos/4.jpg,properties4.xlsx,frogs/ab5.jpg,0,0,400,l,0,0,0,3,0,85,85,4,,,['l'],0,[0.10099089430150343],2018_Jul_09_0600,60.0202754471,go-nogo,001,27,
logos/4.jpg,properties4.xlsx,frogs/ab49.jpg,0,0,400,l,0,0,0,3,0,86,86,48,,,['l'],0,[0.1845798907088465],2018_Jul_09_0600,60.0202754471,go-nogo,001,27,
logos/4.jpg,properties4.xlsx,frogs/ab56.jpg,0,0,400,l,0,0,0,3,0,87,87,55,,,['l'],0,[0.18406358145875856],2018_Jul_09_0600,60.0202754471,go-nogo,001,27,
logos/4.jpg,properties4.xlsx,frogs/ab23.jpg,0,0,400,l,0,0,0,3,0,88,88,22,,,['l'],0,[0.03432452513516182],2018_Jul_09_0600,60.0202754471,go-nogo,001,27,
logos/4.jpg,properties4.xlsx,frogs/ab67.jpg,0,0,400,l,0,0,0,3,0,89,89,65,,,['l'],0,[0.18439246643538354],2018_Jul_09_0600,60.0202754471,go-nogo,001,27,
logos/4.jpg,properties4.xlsx,,,,,,0,0,0,3,,,,,,,,,,2018_Jul_09_0600,60.0202754471,go-nogo,001,27,
logos/3.jpg,properties3.xlsx,frogs/ab54.jpg,0,0,400,l,0,1,1,2,0,0,0,53,space,2.25016946279,['l'],0,[1.9337736316374503],2018_Jul_09_0600,60.0202754471,go-nogo,001,27,
logos/3.jpg,properties3.xlsx,frogs/ab64.jpg,0,0,400,l,0,1,1,2,0,1,1,62,,,['l'],0,[0.4175143524626037],2018_Jul_09_0600,60.0202754471,go-nogo,001,27,
logos/3.jpg,properties3.xlsx,frogs/ab17.jpg,0,0,400,l,0,1,1,2,0,2,2,16,,,['l'],0,[0.1502990979133756],2018_Jul_09_0600,60.0202754471,go-nogo,001,27,
logos/3.jpg,properties3.xlsx,logos/3.jpg,0,0,400,a,0,1,1,2,0,3,3,86,,,['l'],0,[0.3010158842080273],2018_Jul_09_0600,60.0202754471,go-nogo,001,27,
logos/3.jpg,properties3.xlsx,frogs/ab57.jpg,0,0,400,l,0,1,1,2,0,4,4,56,,,['l'],0,[1.4834171908223652],2018_Jul_09_0600,60.0202754471,go-nogo,001,27,
logos/3.jpg,properties3.xlsx,frogs/ab58.jpg,0,0,400,l,0,1,1,2,0,5,5,57,,,['l'],0,[0.420442633672792],2018_Jul_09_0600,60.0202754471,go-nogo,001,27,
logos/3.jpg,properties3.xlsx,frogs/ab69.jpg,0,0,400,l,0,1,1,2,0,6,6,67,,,['l'],0,[0.3008918271807488],2018_Jul_09_0600,60.0202754471,go-nogo,001,27,
logos/3.jpg,properties3.xlsx,frogs/ab45.jpg,0,0,400,l,0,1,1,2,0,7,7,44,,,['l'],0,[0.01765447441721335],2018_Jul_09_0600,60.0202754471,go-nogo,001,27,
logos/3.jpg,properties3.xlsx,frogs/ab38.jpg,0,0,400,l,0,1,1,2,0,8,8,37,,,['l'],0,[0.33422791238263017],2018_Jul_09_0600,60.0202754471,go-nogo,001,27,
logos/3.jpg,properties3.xlsx,frogs/ab55.jpg,0,0,400,l,0,1,1,2,0,9,9,54,,,['l'],0,[0.3178381055840873],2018_Jul_09_0600,60.0202754471,go-nogo,001,27,
logos/3.jpg,properties3.xlsx,frogs/ab31.jpg,0,0,400,l,0,1,1,2,0,10,10,30,,,['l'],0,[0.23426963659585454],2018_Jul_09_0600,60.0202754471,go-nogo,001,27,
logos/3.jpg,properties3.xlsx,frogs/ab56.jpg,0,0,400,l,0,1,1,2,0,11,11,55,,,['l'],0,[3.183228650923411],2018_Jul_09_0600,60.0202754471,go-nogo,001,27,
logos/3.jpg,properties3.xlsx,frogs/ab11.jpg,0,0,400,l,0,1,1,2,0,12,12,10,,,['l'],0,[0.9847784711964778],2018_Jul_09_0600,60.0202754471,go-nogo,001,27,
logos/3.jpg,properties3.xlsx,frogs/ab26.jpg,0,0,400,l,0,1,1,2,0,13,13,25,,,['l'],0,[0.25091157367569394],2018_Jul_09_0600,60.0202754471,go-nogo,001,27,
logos/3.jpg,properties3.xlsx,frogs/ab18.jpg,0,0,400,l,0,1,1,2,0,14,14,17,,,['l'],0,[0.2669336718900013],2018_Jul_09_0600,60.0202754471,go-nogo,001,27,
logos/3.jpg,properties3.xlsx,frogs/ab52.jpg,0,0,400,l,0,1,1,2,0,15,15,51,,,['l'],0,[0.45010029429977294],2018_Jul_09_0600,60.0202754471,go-nogo,001,27,
logos/3.jpg,properties3.xlsx,logos/3.jpg,0,0,400,a,0,1,1,2,0,16,16,89,,,['a'],0,[0.6008643829190987],2018_Jul_09_0600,60.0202754471,go-nogo,001,27,
logos/3.jpg,properties3.xlsx,frogs/ab2.jpg,0,0,400,l,0,1,1,2,0,17,17,1,,,['a'],0,[1.0830753646368976],2018_Jul_09_0600,60.0202754471,go-nogo,001,27,
logos/3.jpg,properties3.xlsx,frogs/ab44.jpg,0,0,400,l,0,1,1,2,0,18,18,43,,,['l'],0,[1.2839544737507822],2018_Jul_09_0600,60.0202754471,go-nogo,001,27,
logos/3.jpg,properties3.xlsx,frogs/ab25.jpg,0,0,400,l,0,1,1,2,0,19,19,24,,,['l'],0,[0.5008940584302763],2018_Jul_09_0600,60.0202754471,go-nogo,001,27,
logos/3.jpg,properties3.xlsx,frogs/ab32.jpg,0,0,400,l,0,1,1,2,0,20,20,31,,,['l'],0,[0.08412315559689887],2018_Jul_09_0600,60.0202754471,go-nogo,001,27,
logos/3.jpg,properties3.xlsx,frogs/ab35.jpg,0,0,400,l,0,1,1,2,0,21,21,34,,,['l'],0,[0.3009377907583257],2018_Jul_09_0600,60.0202754471,go-nogo,001,27,
logos/3.jpg,properties3.xlsx,logos/3.jpg,0,0,400,a,0,1,1,2,0,22,22,80,,,['a'],0,[0.2509892208763631],2018_Jul_09_0600,60.0202754471,go-nogo,001,27,
logos/3.jpg,properties3.xlsx,frogs/ab51.jpg,0,0,400,l,0,1,1,2,0,23,23,50,,,['l'],0,[0.13441444416093873],2018_Jul_09_0600,60.0202754471,go-nogo,001,27,
logos/3.jpg,properties3.xlsx,frogs/ab79.jpg,0,0,400,l,0,1,1,2,0,24,24,77,,,['l'],0,[0.3508470907981973],2018_Jul_09_0600,60.0202754471,go-nogo,001,27,
logos/3.jpg,properties3.xlsx,frogs/ab63.jpg,0,0,400,l,0,1,1,2,0,25,25,61,,,['l'],0,[0.15096266910404665],2018_Jul_09_0600,60.0202754471,go-nogo,001,27,
logos/3.jpg,properties3.xlsx,frogs/ab9.jpg,0,0,400,l,0,1,1,2,0,26,26,8,,,['l'],0,[0.4839584899818874],2018_Jul_09_0600,60.0202754471,go-nogo,001,27,
logos/3.jpg,properties3.xlsx,frogs/ab24.jpg,0,0,400,l,0,1,1,2,0,27,27,23,,,['l'],0,[0.3009261882980354],2018_Jul_09_0600,60.0202754471,go-nogo,001,27,
logos/3.jpg,properties3.xlsx,frogs/ab50.jpg,0,0,400,l,0,1,1,2,0,28,28,49,,,['l'],0,[0.3175574154156493],2018_Jul_09_0600,60.0202754471,go-nogo,001,27,
logos/3.jpg,properties3.xlsx,frogs/ab70.jpg,0,0,400,l,0,1,1,2,0,29,29,68,,,['l'],0,[0.28426774004037725],2018_Jul_09_0600,60.0202754471,go-nogo,001,27,
logos/3.jpg,properties3.xlsx,frogs/ab48.jpg,0,0,400,l,0,1,1,2,0,30,30,47,,,['l'],0,[0.3174793219732237],2018_Jul_09_0600,60.0202754471,go-nogo,001,27,
logos/3.jpg,properties3.xlsx,frogs/ab77.jpg,0,0,400,l,0,1,1,2,0,31,31,75,,,['l'],0,[0.3177488559304038],2018_Jul_09_0600,60.0202754471,go-nogo,001,27,
logos/3.jpg,properties3.xlsx,frogs/ab28.jpg,0,0,400,l,0,1,1,2,0,32,32,27,,,['l'],0,[0.8343566550101968],2018_Jul_09_0600,60.0202754471,go-nogo,001,27,
logos/3.jpg,properties3.xlsx,frogs/ab65.jpg,0,0,400,l,0,1,1,2,0,33,33,63,,,['l'],0,[0.03442626974720042],2018_Jul_09_0600,60.0202754471,go-nogo,001,27,
logos/3.jpg,properties3.xlsx,frogs/ab13.jpg,0,0,400,l,0,1,1,2,0,34,34,12,,,['l'],0,[0.3675693525656243],2018_Jul_09_0600,60.0202754471,go-nogo,001,27,
logos/3.jpg,properties3.xlsx,frogs/ab22.jpg,0,0,400,l,0,1,1,2,0,35,35,21,,,['l'],0,[0.0010643021450960077],2018_Jul_09_0600,60.0202754471,go-nogo,001,27,
logos/3.jpg,properties3.xlsx,frogs/ab62.jpg,0,0,400,l,0,1,1,2,0,36,36,60,,,['l'],0,[0.3510688761889469],2018_Jul_09_0600,60.0202754471,go-nogo,001,27,
logos/3.jpg,properties3.xlsx,frogs/ab27.jpg,0,0,400,l,0,1,1,2,0,37,37,26,,,['l'],0,[0.21773033662611851],2018_Jul_09_0600,60.0202754471,go-nogo,001,27,
logos/3.jpg,properties3.xlsx,frogs/ab12.jpg,0,0,400,l,0,1,1,2,0,38,38,11,,,['l'],0,[0.2677520912329783],2018_Jul_09_0600,60.0202754471,go-nogo,001,27,
logos/3.jpg,properties3.xlsx,frogs/ab80.jpg,0,0,400,l,0,1,1,2,0,39,39,78,,,['l'],0,[0.3344862901358283],2018_Jul_09_0600,60.0202754471,go-nogo,001,27,
logos/3.jpg,properties3.xlsx,frogs/ab68.jpg,0,0,400,l,0,1,1,2,0,40,40,66,,,['l'],0,[0.21786465735931415],2018_Jul_09_0600,60.0202754471,go-nogo,001,27,
logos/3.jpg,properties3.xlsx,frogs/ab5.jpg,0,0,400,l,0,1,1,2,0,41,41,4,,,['l'],0,[0.4001834080409026],2018_Jul_09_0600,60.0202754471,go-nogo,001,27,
logos/3.jpg,properties3.xlsx,frogs/ab10.jpg,0,0,400,l,0,1,1,2,0,42,42,9,,,['l'],0,[0.36784424150391715],2018_Jul_09_0600,60.0202754471,go-nogo,001,27,
logos/3.jpg,properties3.xlsx,logos/3.jpg,0,0,400,a,0,1,1,2,0,43,43,84,,,['a'],0,[0.6677895760876709],2018_Jul_09_0600,60.0202754471,go-nogo,001,27,
logos/3.jpg,properties3.xlsx,frogs/ab7.jpg,0,0,400,l,0,1,1,2,0,44,44,6,,,['l'],0,[0.5342778921913123],2018_Jul_09_0600,60.0202754471,go-nogo,001,27,
logos/3.jpg,properties3.xlsx,frogs/ab47.jpg,0,0,400,l,0,1,1,2,0,45,45,46,,,['l'],0,[1.0818919142038794],2018_Jul_09_0600,60.0202754471,go-nogo,001,27,
logos/3.jpg,properties3.xlsx,frogs/ab6.jpg,0,0,400,l,0,1,1,2,0,46,46,5,,,['l'],0,[0.21759646214195527],2018_Jul_09_0600,60.0202754471,go-nogo,001,27,
logos/3.jpg,properties3.xlsx,frogs/ab75.jpg,0,0,400,l,0,1,1,2,0,47,47,73,,,['l'],0,[0.400819311842497],2018_Jul_09_0600,60.0202754471,go-nogo,001,27,
logos/3.jpg,properties3.xlsx,frogs/ab23.jpg,0,0,400,l,0,1,1,2,0,48,48,22,,,['l'],0,[0.23429998147912556],2018_Jul_09_0600,60.0202754471,go-nogo,001,27,
logos/3.jpg,properties3.xlsx,logos/3.jpg,0,0,400,a,0,1,1,2,0,49,49,82,,,['a'],0,[0.26692385442584055],2018_Jul_09_0600,60.0202754471,go-nogo,001,27,
logos/3.jpg,properties3.xlsx,frogs/ab74.jpg,0,0,400,l,0,1,1,2,0,50,50,72,,,['l'],0,[0.06811578357883263],2018_Jul_09_0600,60.0202754471,go-nogo,001,27,
logos/3.jpg,properties3.xlsx,frogs/ab73.jpg,0,0,400,l,0,1,1,2,0,51,51,71,,,['l'],0,[0.3026433516788529],2018_Jul_09_0600,60.0202754471,go-nogo,001,27,
logos/3.jpg,properties3.xlsx,frogs/ab1.jpg,0,0,400,l,0,1,1,2,0,52,52,0,,,['l'],0,[0.034762740942824166],2018_Jul_09_0600,60.0202754471,go-nogo,001,27,
logos/3.jpg,properties3.xlsx,frogs/ab3.jpg,0,0,400,l,0,1,1,2,0,53,53,2,,,['l'],0,[0.10115957615198568],2018_Jul_09_0600,60.0202754471,go-nogo,001,27,
logos/3.jpg,properties3.xlsx,frogs/ab19.jpg,0,0,400,l,0,1,1,2,0,54,54,18,,,['l'],0,[0.017933825845830142],2018_Jul_09_0600,60.0202754471,go-nogo,001,27,
logos/3.jpg,properties3.xlsx,frogs/ab37.jpg,0,0,400,l,0,1,1,2,0,55,55,36,,,['l'],0,[0.05175899915775517],2018_Jul_09_0600,60.0202754471,go-nogo,001,27,
logos/3.jpg,properties3.xlsx,frogs/ab4.jpg,0,0,400,l,0,1,1,2,0,56,56,3,,,['a'],0,[0.9508038047133596],2018_Jul_09_0600,60.0202754471,go-nogo,001,27,
logos/3.jpg,properties3.xlsx,frogs/ab41.jpg,0,0,400,l,0,1,1,2,0,57,57,40,,,['l'],0,[0.3344135516672395],2018_Jul_09_0600,60.0202754471,go-nogo,001,27,
logos/3.jpg,properties3.xlsx,frogs/ab76.jpg,0,0,400,l,0,1,1,2,0,58,58,74,,,['l'],0,[0.31777741581754526],2018_Jul_09_0600,60.0202754471,go-nogo,001,27,
logos/3.jpg,properties3.xlsx,frogs/ab29.jpg,0,0,400,l,0,1,1,2,0,59,59,28,,,['l'],0,[0.3012055397266522],2018_Jul_09_0600,60.0202754471,go-nogo,001,27,
logos/3.jpg,properties3.xlsx,frogs/ab78.jpg,0,0,400,l,0,1,1,2,0,60,60,76,,,['l'],0,[0.3504222624396789],2018_Jul_09_0600,60.0202754471,go-nogo,001,27,
logos/3.jpg,properties3.xlsx,frogs/ab8.jpg,0,0,400,l,0,1,1,2,0,61,61,7,,,['l'],0,[0.3340592305321479],2018_Jul_09_0600,60.0202754471,go-nogo,001,27,
logos/3.jpg,properties3.xlsx,frogs/ab61.jpg,0,0,400,l,0,1,1,2,0,62,62,59,,,['l'],0,[0.3675840787545894],2018_Jul_09_0600,60.0202754471,go-nogo,001,27,
logos/3.jpg,properties3.xlsx,frogs/ab46.jpg,0,0,400,l,0,1,1,2,0,63,63,45,,,['l'],0,[0.3017695975577226],2018_Jul_09_0600,60.0202754471,go-nogo,001,27,
logos/3.jpg,properties3.xlsx,logos/3.jpg,0,0,400,a,0,1,1,2,0,64,64,81,,,['a'],0,[0.2679524567138287],2018_Jul_09_0600,60.0202754471,go-nogo,001,27,
logos/3.jpg,properties3.xlsx,frogs/ab81.jpg,0,0,400,l,0,1,1,2,0,65,65,79,,,['l'],0,[0.5843862189649371],2018_Jul_09_0600,60.0202754471,go-nogo,001,27,
logos/3.jpg,properties3.xlsx,logos/3.jpg,0,0,400,a,0,1,1,2,0,66,66,87,,,['a'],0,[0.03461503276776057],2018_Jul_09_0600,60.0202754471,go-nogo,001,27,
logos/3.jpg,properties3.xlsx,logos/3.jpg,0,0,400,a,0,1,1,2,0,67,67,88,,,['a'],0,[0.2865601174562471],2018_Jul_09_0600,60.0202754471,go-nogo,001,27,
logos/3.jpg,properties3.xlsx,frogs/ab67.jpg,0,0,400,l,0,1,1,2,0,68,68,65,,,['l'],0,[0.7679093937476864],2018_Jul_09_0600,60.0202754471,go-nogo,001,27,
logos/3.jpg,properties3.xlsx,frogs/ab21.jpg,0,0,400,l,0,1,1,2,0,69,69,20,,,['l'],0,[0.3015745870579849],2018_Jul_09_0600,60.0202754471,go-nogo,001,27,
logos/3.jpg,properties3.xlsx,frogs/ab39.jpg,0,0,400,l,0,1,1,2,0,70,70,38,,,['l'],0,[0.3678531664700131],2018_Jul_09_0600,60.0202754471,go-nogo,001,27,
logos/3.jpg,properties3.xlsx,frogs/ab40.jpg,0,0,400,l,0,1,1,2,0,71,71,39,,,['l'],0,[0.45108561050437856],2018_Jul_09_0600,60.0202754471,go-nogo,001,27,
logos/3.jpg,properties3.xlsx,frogs/ab72.jpg,0,0,400,l,0,1,1,2,0,72,72,70,,,['l'],0,[0.43435040753684007],2018_Jul_09_0600,60.0202754471,go-nogo,001,27,
logos/3.jpg,properties3.xlsx,frogs/ab66.jpg,0,0,400,l,0,1,1,2,0,73,73,64,,,['l'],0,[0.3176230139142717],2018_Jul_09_0600,60.0202754471,go-nogo,001,27,
logos/3.jpg,properties3.xlsx,frogs/ab49.jpg,0,0,400,l,0,1,1,2,0,74,74,48,,,['l'],0,[0.2511570102215046],2018_Jul_09_0600,60.0202754471,go-nogo,001,27,
logos/3.jpg,properties3.xlsx,frogs/ab34.jpg,0,0,400,l,0,1,1,2,0,75,75,33,,,['l'],0,[0.3176729937258642],2018_Jul_09_0600,60.0202754471,go-nogo,001,27,
logos/3.jpg,properties3.xlsx,frogs/ab30.jpg,0,0,400,l,0,1,1,2,0,76,76,29,,,['l'],0,[0.0009799612234928645],2018_Jul_09_0600,60.0202754471,go-nogo,001,27,
logos/3.jpg,properties3.xlsx,frogs/ab15.jpg,0,0,400,l,0,1,1,2,0,77,77,14,,,['l'],0,[0.3843813102284912],2018_Jul_09_0600,60.0202754471,go-nogo,001,27,
logos/3.jpg,properties3.xlsx,frogs/ab42.jpg,0,0,400,l,0,1,1,2,0,78,78,41,,,['l'],0,[0.2676766752774711],2018_Jul_09_0600,60.0202754471,go-nogo,001,27,
logos/3.jpg,properties3.xlsx,frogs/ab71.jpg,0,0,400,l,0,1,1,2,0,79,79,69,,,['l'],0,[0.13411188782629324],2018_Jul_09_0600,60.0202754471,go-nogo,001,27,
logos/3.jpg,properties3.xlsx,frogs/ab14.jpg,0,0,400,l,0,1,1,2,0,80,80,13,,,['l'],0,[0.10110424136655638],2018_Jul_09_0600,60.0202754471,go-nogo,001,27,
logos/3.jpg,properties3.xlsx,frogs/ab60.jpg,0,0,400,l,0,1,1,2,0,81,81,58,,,['l'],0,[0.1511219797321246],2018_Jul_09_0600,60.0202754471,go-nogo,001,27,
logos/3.jpg,properties3.xlsx,frogs/ab53.jpg,0,0,400,l,0,1,1,2,0,82,82,52,,,['l'],0,[0.3339075061157928],2018_Jul_09_0600,60.0202754471,go-nogo,001,27,
logos/3.jpg,properties3.xlsx,frogs/ab16.jpg,0,0,400,l,0,1,1,2,0,83,83,15,,,['l'],0,[0.5008391698866035],2018_Jul_09_0600,60.0202754471,go-nogo,001,27,
logos/3.jpg,properties3.xlsx,frogs/ab43.jpg,0,0,400,l,0,1,1,2,0,84,84,42,,,['l'],0,[0.15101889638026478],2018_Jul_09_0600,60.0202754471,go-nogo,001,27,
logos/3.jpg,properties3.xlsx,frogs/ab36.jpg,0,0,400,l,0,1,1,2,0,85,85,35,,,['l'],0,[0.050334574647422414],2018_Jul_09_0600,60.0202754471,go-nogo,001,27,
logos/3.jpg,properties3.xlsx,logos/3.jpg,0,0,400,a,0,1,1,2,0,86,86,85,,,['a'],0,[0.4009982573988964],2018_Jul_09_0600,60.0202754471,go-nogo,001,27,
logos/3.jpg,properties3.xlsx,logos/3.jpg,0,0,400,a,0,1,1,2,0,87,87,83,,,['a'],0,[1.1169433777904487],2018_Jul_09_0600,60.0202754471,go-nogo,001,27,
logos/3.jpg,properties3.xlsx,frogs/ab33.jpg,0,0,400,l,0,1,1,2,0,88,88,32,,,['l'],0,[0.11782918062090175],2018_Jul_09_0600,60.0202754471,go-nogo,001,27,
logos/3.jpg,properties3.xlsx,frogs/ab20.jpg,0,0,400,l,0,1,1,2,0,89,89,19,,,['l'],0,[0.4344003873411566],2018_Jul_09_0600,60.0202754471,go-nogo,001,27,
logos/3.jpg,properties3.xlsx,,,,,,0,1,1,2,,,,,,,,,,2018_Jul_09_0600,60.0202754471,go-nogo,001,27,
logos/1.jpg,properties1.xlsx,frogs/ab2.jpg,0,0,400,l,0,2,2,0,0,0,0,1,space,1.82892849095,['a'],0,[3.274375754437642],2018_Jul_09_0600,60.0202754471,go-nogo,001,27,
logos/1.jpg,properties1.xlsx,frogs/ab74.jpg,0,0,400,l,0,2,2,0,0,1,1,72,,,['l'],0,[0.6844837242097128],2018_Jul_09_0600,60.0202754471,go-nogo,001,27,
logos/1.jpg,properties1.xlsx,frogs/ab46.jpg,0,0,400,l,0,2,2,0,0,2,2,45,,,['l'],0,[0.5175734803633532],2018_Jul_09_0600,60.0202754471,go-nogo,001,27,
logos/1.jpg,properties1.xlsx,frogs/ab22.jpg,0,0,400,l,0,2,2,0,0,3,3,21,,,['l'],0,[0.10111004258942557],2018_Jul_09_0600,60.0202754471,go-nogo,001,27,
logos/1.jpg,properties1.xlsx,frogs/ab29.jpg,0,0,400,l,0,2,2,0,0,4,4,28,,,['l'],0,[0.3510188963773544],2018_Jul_09_0600,60.0202754471,go-nogo,001,27,
logos/1.jpg,properties1.xlsx,logos/1.jpg,0,0,400,a,0,2,2,0,0,5,5,84,,,['a'],0,[0.8532722270683735],2018_Jul_09_0600,60.0202754471,go-nogo,001,27,
logos/1.jpg,properties1.xlsx,frogs/ab60.jpg,0,0,400,l,0,2,2,0,0,6,6,58,,,['l'],0,[0.3177158335602144],2018_Jul_09_0600,60.0202754471,go-nogo,001,27,
logos/1.jpg,properties1.xlsx,frogs/ab51.jpg,0,0,400,l,0,2,2,0,0,7,7,50,,,['l'],0,[0.26784267963375896],2018_Jul_09_0600,60.0202754471,go-nogo,001,27,
logos/1.jpg,properties1.xlsx,frogs/ab10.jpg,0,0,400,l,0,2,2,0,0,8,8,9,,,['l'],0,[0.284444900615199],2018_Jul_09_0600,60.0202754471,go-nogo,001,27,
logos/1.jpg,properties1.xlsx,frogs/ab16.jpg,0,0,400,l,0,2,2,0,0,9,9,15,,,['l'],0,[0.23439056987990625],2018_Jul_09_0600,60.0202754471,go-nogo,001,27,
logos/1.jpg,properties1.xlsx,frogs/ab49.jpg,0,0,400,l,0,2,2,0,0,10,10,48,,,['l'],0,[0.21747597510693595],2018_Jul_09_0600,60.0202754471,go-nogo,001,27,
logos/1.jpg,properties1.xlsx,logos/1.jpg,0,0,400,a,0,2,2,0,0,11,11,85,,,['a'],0,[0.5035755643402808],2018_Jul_09_0600,60.0202754471,go-nogo,001,27,
logos/1.jpg,properties1.xlsx,logos/1.jpg,0,0,400,a,0,2,2,0,0,12,12,80,,,['a'],0,[1.2176232370402431],2018_Jul_09_0600,60.0202754471,go-nogo,001,27,
logos/1.jpg,properties1.xlsx,frogs/ab70.jpg,0,0,400,l,0,2,2,0,0,13,13,68,,,['l'],0,[0.3347714427873143],2018_Jul_09_0600,60.0202754471,go-nogo,001,27,
logos/1.jpg,properties1.xlsx,frogs/ab81.jpg,0,0,400,l,0,2,2,0,0,14,14,79,,,['l'],0,[0.5509680240793386],2018_Jul_09_0600,60.0202754471,go-nogo,001,27,
logos/1.jpg,properties1.xlsx,frogs/ab69.jpg,0,0,400,l,0,2,2,0,0,15,15,67,,,['l'],0,[0.41786554985446855],2018_Jul_09_0600,60.0202754471,go-nogo,001,27,
logos/1.jpg,properties1.xlsx,frogs/ab67.jpg,0,0,400,l,0,2,2,0,0,16,16,65,,,['l'],0,[1.5173748998786323],2018_Jul_09_0600,60.0202754471,go-nogo,001,27,
logos/1.jpg,properties1.xlsx,frogs/ab44.jpg,0,0,400,l,0,2,2,0,0,17,17,43,,,['l'],0,[0.5176457725756336],2018_Jul_09_0600,60.0202754471,go-nogo,001,27,
logos/1.jpg,properties1.xlsx,logos/1.jpg,0,0,400,a,0,2,2,0,0,18,18,83,,,['a'],0,[0.4852142326417379],2018_Jul_09_0600,60.0202754471,go-nogo,001,27,
logos/1.jpg,properties1.xlsx,frogs/ab38.jpg,0,0,400,l,0,2,2,0,0,19,19,37,,,['l'],0,[0.6012017466127872],2018_Jul_09_0600,60.0202754471,go-nogo,001,27,
logos/1.jpg,properties1.xlsx,frogs/ab68.jpg,0,0,400,l,0,2,2,0,0,20,20,66,,,['l'],0,[0.15137812624743674],2018_Jul_09_0600,60.0202754471,go-nogo,001,27,
logos/1.jpg,properties1.xlsx,logos/1.jpg,0,0,400,a,0,2,2,0,0,21,21,81,,,['a'],0,[0.4502930735616246],2018_Jul_09_0600,60.0202754471,go-nogo,001,27,
logos/1.jpg,properties1.xlsx,frogs/ab37.jpg,0,0,400,l,0,2,2,0,0,22,22,36,,,['l'],0,[0.4177901338916854],2018_Jul_09_0600,60.0202754471,go-nogo,001,27,
logos/1.jpg,properties1.xlsx,frogs/ab30.jpg,0,0,400,l,0,2,2,0,0,23,23,29,,,['l'],0,[1.7506391390998033],2018_Jul_09_0600,60.0202754471,go-nogo,001,27,
logos/1.jpg,properties1.xlsx,frogs/ab55.jpg,0,0,400,l,0,2,2,0,0,24,24,54,,,['l'],0,[0.16776257806486683],2018_Jul_09_0600,60.0202754471,go-nogo,001,27,
logos/1.jpg,properties1.xlsx,frogs/ab19.jpg,0,0,400,l,0,2,2,0,0,25,25,18,,,['l'],0,[0.16754079267411726],2018_Jul_09_0600,60.0202754471,go-nogo,001,27,
logos/1.jpg,properties1.xlsx,frogs/ab5.jpg,0,0,400,l,0,2,2,0,0,26,26,4,,,['l'],0,[0.20093265890318435],2018_Jul_09_0600,60.0202754471,go-nogo,001,27,
logos/1.jpg,properties1.xlsx,frogs/ab14.jpg,0,0,400,l,0,2,2,0,0,27,27,13,,,['l'],0,[0.017864657362224534],2018_Jul_09_0600,60.0202754471,go-nogo,001,27,
logos/1.jpg,properties1.xlsx,frogs/ab8.jpg,0,0,400,l,0,2,2,0,0,28,28,7,,,['l'],0,[0.11763907885324443],2018_Jul_09_0600,60.0202754471,go-nogo,001,27,
logos/1.jpg,properties1.xlsx,frogs/ab17.jpg,0,0,400,l,0,2,2,0,0,29,29,16,,,['l'],0,[0.15092920048482483],2018_Jul_09_0600,60.0202754471,go-nogo,001,27,
logos/1.jpg,properties1.xlsx,frogs/ab6.jpg,0,0,400,l,0,2,2,0,0,30,30,5,,,['l'],0,[0.7840243116079364],2018_Jul_09_0600,60.0202754471,go-nogo,001,27,
logos/1.jpg,properties1.xlsx,frogs/ab78.jpg,0,0,400,l,0,2,2,0,0,31,31,76,,,['l'],0,[0.5008048087765928],2018_Jul_09_0600,60.0202754471,go-nogo,001,27,
logos/1.jpg,properties1.xlsx,logos/1.jpg,0,0,400,a,0,2,2,0,0,32,32,89,,,['a'],0,[0.5536821061105002],2018_Jul_09_0600,60.0202754471,go-nogo,001,27,
logos/1.jpg,properties1.xlsx,frogs/ab76.jpg,0,0,400,l,0,2,2,0,0,33,33,74,,,['l'],0,[0.11778053955640644],2018_Jul_09_0600,60.0202754471,go-nogo,001,27,
logos/1.jpg,properties1.xlsx,frogs/ab47.jpg,0,0,400,l,0,2,2,0,0,34,34,46,,,['l'],0,[0.46562661067582667],2018_Jul_09_0600,60.0202754471,go-nogo,001,27,
logos/1.jpg,properties1.xlsx,frogs/ab31.jpg,0,0,400,l,0,2,2,0,0,35,35,30,,,['l'],0,[0.5842090583973913],2018_Jul_09_0600,60.0202754471,go-nogo,001,27,
logos/1.jpg,properties1.xlsx,frogs/ab40.jpg,0,0,400,l,0,2,2,0,0,36,36,39,,,['l'],0,[0.45080135035095736],2018_Jul_09_0600,60.0202754471,go-nogo,001,27,
logos/1.jpg,properties1.xlsx,frogs/ab25.jpg,0,0,400,l,0,2,2,0,0,37,37,24,,,['l'],0,[0.26750620843085926],2018_Jul_09_0600,60.0202754471,go-nogo,001,27,
logos/1.jpg,properties1.xlsx,frogs/ab79.jpg,0,0,400,l,0,2,2,0,0,38,38,77,,,['l'],0,[0.35022055821173126],2018_Jul_09_0600,60.0202754471,go-nogo,001,27,
logos/1.jpg,properties1.xlsx,frogs/ab26.jpg,0,0,400,l,0,2,2,0,0,39,39,25,,,['l'],0,[0.36747073169681244],2018_Jul_09_0600,60.0202754471,go-nogo,001,27,
logos/1.jpg,properties1.xlsx,frogs/ab63.jpg,0,0,400,l,0,2,2,0,0,40,40,61,,,['l'],0,[0.21767366309359204],2018_Jul_09_0600,60.0202754471,go-nogo,001,27,
logos/1.jpg,properties1.xlsx,logos/1.jpg,0,0,400,a,0,2,2,0,0,41,41,88,,,['a'],0,[0.517880945422803],2018_Jul_09_0600,60.0202754471,go-nogo,001,27,
logos/1.jpg,properties1.xlsx,frogs/ab7.jpg,0,0,400,l,0,2,2,0,0,42,42,6,,,['l'],0,[0.8509789571617148],2018_Jul_09_0600,60.0202754471,go-nogo,001,27,
logos/1.jpg,properties1.xlsx,frogs/ab61.jpg,0,0,400,l,0,2,2,0,0,43,43,59,,,['l'],0,[0.03422992050036555],2018_Jul_09_0600,60.0202754471,go-nogo,001,27,
logos/1.jpg,properties1.xlsx,frogs/ab4.jpg,0,0,400,l,0,2,2,0,0,44,44,3,,,['l'],0,[0.30105872404237743],2018_Jul_09_0600,60.0202754471,go-nogo,001,27,
logos/1.jpg,properties1.xlsx,frogs/ab41.jpg,0,0,400,l,0,2,2,0,0,45,45,40,,,['l'],0,[0.3183874372189166],2018_Jul_09_0600,60.0202754471,go-nogo,001,27,
logos/1.jpg,properties1.xlsx,frogs/ab24.jpg,0,0,400,l,0,2,2,0,0,46,46,23,,,['l'],0,[0.38430098554090364],2018_Jul_09_0600,60.0202754471,go-nogo,001,27,
logos/1.jpg,properties1.xlsx,frogs/ab72.jpg,0,0,400,l,0,2,2,0,0,47,47,70,,,['l'],0,[0.3343948092442588],2018_Jul_09_0600,60.0202754471,go-nogo,001,27,
logos/1.jpg,properties1.xlsx,logos/1.jpg,0,0,400,a,0,2,2,0,0,48,48,86,,,['l'],0,[0.0010339572618249804],2018_Jul_09_0600,60.0202754471,go-nogo,001,27,
logos/1.jpg,properties1.xlsx,frogs/ab65.jpg,0,0,400,l,0,2,2,0,0,49,49,63,,,['l'],0,[0.06780207104020519],2018_Jul_09_0600,60.0202754471,go-nogo,001,27,
logos/1.jpg,properties1.xlsx,frogs/ab15.jpg,0,0,400,l,0,2,2,0,0,50,50,14,,,['l'],0,[0.367845133994706],2018_Jul_09_0600,60.0202754471,go-nogo,001,27,
logos/1.jpg,properties1.xlsx,frogs/ab53.jpg,0,0,400,l,0,2,2,0,0,51,51,52,,,['l'],0,[0.3509573141200235],2018_Jul_09_0600,60.0202754471,go-nogo,001,27,
logos/1.jpg,properties1.xlsx,frogs/ab50.jpg,0,0,400,l,0,2,2,0,0,52,52,49,,,['l'],0,[0.35096668533515185],2018_Jul_09_0600,60.0202754471,go-nogo,001,27,
logos/1.jpg,properties1.xlsx,frogs/ab13.jpg,0,0,400,l,0,2,2,0,0,53,53,12,,,['l'],0,[0.3342203261636314],2018_Jul_09_0600,60.0202754471,go-nogo,001,27,
logos/1.jpg,properties1.xlsx,frogs/ab45.jpg,0,0,400,l,0,2,2,0,0,54,54,44,,,['l'],0,[0.3518274982634466],2018_Jul_09_0600,60.0202754471,go-nogo,001,27,
logos/1.jpg,properties1.xlsx,frogs/ab12.jpg,0,0,400,l,0,2,2,0,0,55,55,11,,,['l'],0,[0.28434806473524077],2018_Jul_09_0600,60.0202754471,go-nogo,001,27,
logos/1.jpg,properties1.xlsx,frogs/ab36.jpg,0,0,400,l,0,2,2,0,0,56,56,35,,,['l'],0,[0.2841704579186626],2018_Jul_09_0600,60.0202754471,go-nogo,001,27,
logos/1.jpg,properties1.xlsx,logos/1.jpg,0,0,400,a,0,2,2,0,0,57,57,87,,,['a'],0,[0.5674827803959488],2018_Jul_09_0600,60.0202754471,go-nogo,001,27,
logos/1.jpg,properties1.xlsx,frogs/ab39.jpg,0,0,400,l,0,2,2,0,0,58,58,38,,,['l'],0,[0.2841454680165043],2018_Jul_09_0600,60.0202754471,go-nogo,001,27,
logos/1.jpg,properties1.xlsx,frogs/ab48.jpg,0,0,400,l,0,2,2,0,0,59,59,47,,,['l'],0,[0.3008467561157886],2018_Jul_09_0600,60.0202754471,go-nogo,001,27,
logos/1.jpg,properties1.xlsx,frogs/ab75.jpg,0,0,400,l,0,2,2,0,0,60,60,73,,,['l'],0,[0.26751914962369483],2018_Jul_09_0600,60.0202754471,go-nogo,001,27,
logos/1.jpg,properties1.xlsx,frogs/ab18.jpg,0,0,400,l,0,2,2,0,0,61,61,17,,,['l'],0,[0.3175480442077969],2018_Jul_09_0600,60.0202754471,go-nogo,001,27,
logos/1.jpg,properties1.xlsx,frogs/ab27.jpg,0,0,400,l,0,2,2,0,0,62,62,26,,,['l'],0,[0.26755083325406304],2018_Jul_09_0600,60.0202754471,go-nogo,001,27,
logos/1.jpg,properties1.xlsx,frogs/ab33.jpg,0,0,400,l,0,2,2,0,0,63,63,32,,,['l'],0,[0.21806546908192104],2018_Jul_09_0600,60.0202754471,go-nogo,001,27,
logos/1.jpg,properties1.xlsx,frogs/ab54.jpg,0,0,400,l,0,2,2,0,0,64,64,53,,,['l'],0,[0.367803632907453],2018_Jul_09_0600,60.0202754471,go-nogo,001,27,
logos/1.jpg,properties1.xlsx,frogs/ab43.jpg,0,0,400,l,0,2,2,0,0,65,65,42,,,['l'],0,[0.25086694883793825],2018_Jul_09_0600,60.0202754471,go-nogo,001,27,
logos/1.jpg,properties1.xlsx,frogs/ab56.jpg,0,0,400,l,0,2,2,0,0,66,66,55,,,['l'],0,[0.78140572670236],2018_Jul_09_0600,60.0202754471,go-nogo,001,27,
logos/1.jpg,properties1.xlsx,frogs/ab80.jpg,0,0,400,l,0,2,2,0,0,67,67,78,,,['l'],0,[0.3010145454609301],2018_Jul_09_0600,60.0202754471,go-nogo,001,27,
logos/1.jpg,properties1.xlsx,frogs/ab57.jpg,0,0,400,l,0,2,2,0,0,68,68,56,,,['l'],0,[0.31774573218717705],2018_Jul_09_0600,60.0202754471,go-nogo,001,27,
logos/1.jpg,properties1.xlsx,frogs/ab52.jpg,0,0,400,l,0,2,2,0,0,69,69,51,,,['l'],0,[0.33441667541046627],2018_Jul_09_0600,60.0202754471,go-nogo,001,27,
logos/1.jpg,properties1.xlsx,frogs/ab9.jpg,0,0,400,l,0,2,2,0,0,70,70,8,,,['l'],0,[0.06801225397794042],2018_Jul_09_0600,60.0202754471,go-nogo,001,27,
logos/1.jpg,properties1.xlsx,logos/1.jpg,0,0,400,a,0,2,2,0,0,71,71,82,,,['l'],0,[0.1845366046327399],2018_Jul_09_0600,60.0202754471,go-nogo,001,27,
logos/1.jpg,properties1.xlsx,frogs/ab58.jpg,0,0,400,l,0,2,2,0,0,72,72,57,,,['l'],0,[0.13423148237052374],2018_Jul_09_0600,60.0202754471,go-nogo,001,27,
logos/1.jpg,properties1.xlsx,frogs/ab28.jpg,0,0,400,l,0,2,2,0,0,73,73,27,,,['l'],0,[0.3002586008806247],2018_Jul_09_0600,60.0202754471,go-nogo,001,27,
logos/1.jpg,properties1.xlsx,frogs/ab42.jpg,0,0,400,l,0,2,2,0,0,74,74,41,,,['l'],0,[0.251046340657922],2018_Jul_09_0600,60.0202754471,go-nogo,001,27,
logos/1.jpg,properties1.xlsx,frogs/ab62.jpg,0,0,400,l,0,2,2,0,0,75,75,60,,,['l'],0,[0.2515577411832055],2018_Jul_09_0600,60.0202754471,go-nogo,001,27,
logos/1.jpg,properties1.xlsx,frogs/ab35.jpg,0,0,400,l,0,2,2,0,0,76,76,34,,,['l'],0,[0.2844261581849423],2018_Jul_09_0600,60.0202754471,go-nogo,001,27,
logos/1.jpg,properties1.xlsx,frogs/ab32.jpg,0,0,400,l,0,2,2,0,0,77,77,31,,,['l'],0,[0.3003067956888117],2018_Jul_09_0600,60.0202754471,go-nogo,001,27,
logos/1.jpg,properties1.xlsx,frogs/ab21.jpg,0,0,400,l,0,2,2,0,0,78,78,20,,,['l'],0,[0.2342946264980128],2018_Jul_09_0600,60.0202754471,go-nogo,001,27,
logos/1.jpg,properties1.xlsx,frogs/ab23.jpg,0,0,400,l,0,2,2,0,0,79,79,22,,,['l'],0,[0.33424219232983887],2018_Jul_09_0600,60.0202754471,go-nogo,001,27,
logos/1.jpg,properties1.xlsx,frogs/ab77.jpg,0,0,400,l,0,2,2,0,0,80,80,75,,,['l'],0,[0.2841842916168389],2018_Jul_09_0600,60.0202754471,go-nogo,001,27,
logos/1.jpg,properties1.xlsx,frogs/ab71.jpg,0,0,400,l,0,2,2,0,0,81,81,69,,,['l'],0,[0.18425725321139907],2018_Jul_09_0600,60.0202754471,go-nogo,001,27,
logos/1.jpg,properties1.xlsx,frogs/ab11.jpg,0,0,400,l,0,2,2,0,0,82,82,10,,,['l'],0,[0.2342540179088246],2018_Jul_09_0600,60.0202754471,go-nogo,001,27,
logos/1.jpg,properties1.xlsx,frogs/ab66.jpg,0,0,400,l,0,2,2,0,0,83,83,64,,,['l'],0,[0.050947273535712156],2018_Jul_09_0600,60.0202754471,go-nogo,001,27,
logos/1.jpg,properties1.xlsx,frogs/ab20.jpg,0,0,400,l,0,2,2,0,0,84,84,19,,,['l'],0,[0.0842552450922085],2018_Jul_09_0600,60.0202754471,go-nogo,001,27,
logos/1.jpg,properties1.xlsx,frogs/ab1.jpg,0,0,400,l,0,2,2,0,0,85,85,0,,,['l'],0,[0.30195836057828274],2018_Jul_09_0600,60.0202754471,go-nogo,001,27,
logos/1.jpg,properties1.xlsx,frogs/ab73.jpg,0,0,400,l,0,2,2,0,0,86,86,71,,,['l'],0,[0.15117552952870028],2018_Jul_09_0600,60.0202754471,go-nogo,001,27,
logos/1.jpg,properties1.xlsx,frogs/ab34.jpg,0,0,400,l,0,2,2,0,0,87,87,33,,,['l'],0,[0.06696714051213348],2018_Jul_09_0600,60.0202754471,go-nogo,001,27,
logos/1.jpg,properties1.xlsx,frogs/ab64.jpg,0,0,400,l,0,2,2,0,0,88,88,62,,,['l'],0,[0.30094716197345406],2018_Jul_09_0600,60.0202754471,go-nogo,001,27,
logos/1.jpg,properties1.xlsx,frogs/ab3.jpg,0,0,400,l,0,2,2,0,0,89,89,2,,,['l'],0,[0.1509546366360155],2018_Jul_09_0600,60.0202754471,go-nogo,001,27,
logos/1.jpg,properties1.xlsx,,,,,,0,2,2,0,,,,,,,,,,2018_Jul_09_0600,60.0202754471,go-nogo,001,27,
logos/2.jpg,properties2.xlsx,frogs/ab41.jpg,0,0,400,l,0,3,3,1,0,0,0,40,space,1.39429203826,['l'],0,[0.3675818475167034],2018_Jul_09_0600,60.0202754471,go-nogo,001,27,
logos/2.jpg,properties2.xlsx,frogs/ab8.jpg,0,0,400,l,0,3,3,1,0,1,1,7,,,['l'],0,[0.2342687441050657],2018_Jul_09_0600,60.0202754471,go-nogo,001,27,
logos/2.jpg,properties2.xlsx,frogs/ab61.jpg,0,0,400,l,0,3,3,1,0,2,2,59,,,['l'],0,[0.23430042772815796],2018_Jul_09_0600,60.0202754471,go-nogo,001,27,
logos/2.jpg,properties2.xlsx,frogs/ab40.jpg,0,0,400,l,0,3,3,1,0,3,3,39,,,['l'],0,[0.0678038560290588],2018_Jul_09_0600,60.0202754471,go-nogo,001,27,
logos/2.jpg,properties2.xlsx,frogs/ab58.jpg,0,0,400,l,0,3,3,1,0,4,4,57,,,['l'],0,[0.001037081005051732],2018_Jul_09_0600,60.0202754471,go-nogo,001,27,
logos/2.jpg,properties2.xlsx,frogs/ab36.jpg,0,0,400,l,0,3,3,1,0,5,5,35,,,['l'],0,[0.0009737137443153188],2018_Jul_09_0600,60.0202754471,go-nogo,001,27,
logos/2.jpg,properties2.xlsx,logos/2.jpg,0,0,400,a,0,3,3,1,0,6,6,88,,,['a'],0,[0.1843085717628128],2018_Jul_09_0600,60.0202754471,go-nogo,001,27,
logos/2.jpg,properties2.xlsx,frogs/ab44.jpg,0,0,400,l,0,3,3,1,0,7,7,43,,,['l'],0,[0.21751390620920574],2018_Jul_09_0600,60.0202754471,go-nogo,001,27,
logos/2.jpg,properties2.xlsx,frogs/ab78.jpg,0,0,400,l,0,3,3,1,0,8,8,76,,,['l'],0,[0.1174837844519061],2018_Jul_09_0600,60.0202754471,go-nogo,001,27,
logos/2.jpg,properties2.xlsx,frogs/ab29.jpg,0,0,400,l,0,3,3,1,0,9,9,28,,,['l'],0,[0.33422969737875974],2018_Jul_09_0600,60.0202754471,go-nogo,001,27,
logos/2.jpg,properties2.xlsx,frogs/ab55.jpg,0,0,400,l,0,3,3,1,0,10,10,54,,,['l'],0,[0.3175458129699109],2018_Jul_09_0600,60.0202754471,go-nogo,001,27,
logos/2.jpg,properties2.xlsx,logos/2.jpg,0,0,400,a,0,3,3,1,0,11,11,82,,,['a'],0,[0.0009737137443153188],2018_Jul_09_0600,60.0202754471,go-nogo,001,27,
logos/2.jpg,properties2.xlsx,frogs/ab76.jpg,0,0,400,l,0,3,3,1,0,12,12,74,,,['l'],0,[0.3009395757544553],2018_Jul_09_0600,60.0202754471,go-nogo,001,27,
logos/2.jpg,properties2.xlsx,logos/2.jpg,0,0,400,a,0,3,3,1,0,13,13,89,,,['a'],0,[0.06793282178841764],2018_Jul_09_0600,60.0202754471,go-nogo,001,27,
logos/2.jpg,properties2.xlsx,frogs/ab32.jpg,0,0,400,l,0,3,3,1,0,14,14,31,,,['l'],0,[0.3175105593545595],2018_Jul_09_0600,60.0202754471,go-nogo,001,27,
logos/2.jpg,properties2.xlsx,frogs/ab60.jpg,0,0,400,l,0,3,3,1,0,15,15,58,,,['l'],0,[0.2509401335628354],2018_Jul_09_0600,60.0202754471,go-nogo,001,27,
logos/2.jpg,properties2.xlsx,frogs/ab13.jpg,0,0,400,l,0,3,3,1,0,16,16,12,,,['l'],0,[0.10091235460276948],2018_Jul_09_0600,60.0202754471,go-nogo,001,27,
logos/2.jpg,properties2.xlsx,frogs/ab81.jpg,0,0,400,l,0,3,3,1,0,17,17,79,,,['l'],0,[0.15093410920962924],2018_Jul_09_0600,60.0202754471,go-nogo,001,27,
logos/2.jpg,properties2.xlsx,frogs/ab31.jpg,0,0,400,l,0,3,3,1,0,18,18,30,,,['l'],0,[0.1509305392173701],2018_Jul_09_0600,60.0202754471,go-nogo,001,27,
logos/2.jpg,properties2.xlsx,frogs/ab34.jpg,0,0,400,l,0,3,3,1,0,19,19,33,,,['l'],0,[0.16757158380642068],2018_Jul_09_0600,60.0202754471,go-nogo,001,27,
logos/2.jpg,properties2.xlsx,frogs/ab30.jpg,0,0,400,l,0,3,3,1,0,20,20,29,,,['l'],0,[0.21747374386177398],2018_Jul_09_0600,60.0202754471,go-nogo,001,27,
logos/2.jpg,properties2.xlsx,frogs/ab39.jpg,0,0,400,l,0,3,3,1,0,21,21,38,,,['l'],0,[0.20098486995266285],2018_Jul_09_0600,60.0202754471,go-nogo,001,27,
logos/2.jpg,properties2.xlsx,frogs/ab53.jpg,0,0,400,l,0,3,3,1,0,22,22,52,,,['l'],0,[0.21758218220202252],2018_Jul_09_0600,60.0202754471,go-nogo,001,27,
logos/2.jpg,properties2.xlsx,logos/2.jpg,0,0,400,a,0,3,3,1,0,23,23,87,,,['l'],0,[0.3009382370073581],2018_Jul_09_0600,60.0202754471,go-nogo,001,27,
logos/2.jpg,properties2.xlsx,frogs/ab42.jpg,0,0,400,l,0,3,3,1,0,24,24,41,,,['l'],0,[0.2011419493428548],2018_Jul_09_0600,60.0202754471,go-nogo,001,27,
logos/2.jpg,properties2.xlsx,frogs/ab27.jpg,0,0,400,l,0,3,3,1,0,25,25,26,,,['l'],0,[0.25103741568455007],2018_Jul_09_0600,60.0202754471,go-nogo,001,27,
logos/2.jpg,properties2.xlsx,frogs/ab64.jpg,0,0,400,l,0,3,3,1,0,26,26,62,,,['l'],0,[0.017588429676834494],2018_Jul_09_0600,60.0202754471,go-nogo,001,27,
logos/2.jpg,properties2.xlsx,frogs/ab23.jpg,0,0,400,l,0,3,3,1,0,27,27,22,,,['l'],0,[0.1506203966710018],2018_Jul_09_0600,60.0202754471,go-nogo,001,27,
logos/2.jpg,properties2.xlsx,frogs/ab74.jpg,0,0,400,l,0,3,3,1,0,28,28,72,,,['l'],0,[0.2178387749590911],2018_Jul_09_0600,60.0202754471,go-nogo,001,27,
logos/2.jpg,properties2.xlsx,frogs/ab68.jpg,0,0,400,l,0,3,3,1,0,29,29,66,,,['l'],0,[0.20122450527560432],2018_Jul_09_0600,60.0202754471,go-nogo,001,27,
logos/2.jpg,properties2.xlsx,logos/2.jpg,0,0,400,a,0,3,3,1,0,30,30,81,,,['a'],0,[0.06778555985511048],2018_Jul_09_0600,60.0202754471,go-nogo,001,27,
logos/2.jpg,properties2.xlsx,frogs/ab79.jpg,0,0,400,l,0,3,3,1,0,31,31,77,,,['l'],0,[0.01797621943114791],2018_Jul_09_0600,60.0202754471,go-nogo,001,27,
logos/2.jpg,properties2.xlsx,logos/2.jpg,0,0,400,a,0,3,3,1,0,32,32,86,,,['a'],0,[0.017868673596240114],2018_Jul_09_0600,60.0202754471,go-nogo,001,27,
logos/2.jpg,properties2.xlsx,frogs/ab80.jpg,0,0,400,l,0,3,3,1,0,33,33,78,,,['l'],0,[0.03384034574992256],2018_Jul_09_0600,60.0202754471,go-nogo,001,27,
logos/2.jpg,properties2.xlsx,frogs/ab73.jpg,0,0,400,l,0,3,3,1,0,34,34,71,,,['l'],0,[0.18447591486619785],2018_Jul_09_0600,60.0202754471,go-nogo,001,27,
logos/2.jpg,properties2.xlsx,frogs/ab71.jpg,0,0,400,l,0,3,3,1,0,35,35,69,,,['l'],0,[0.11845303571317345],2018_Jul_09_0600,60.0202754471,go-nogo,001,27,
logos/2.jpg,properties2.xlsx,frogs/ab43.jpg,0,0,400,l,0,3,3,1,0,36,36,42,,,['l'],0,[0.08439224331232253],2018_Jul_09_0600,60.0202754471,go-nogo,001,27,
logos/2.jpg,properties2.xlsx,frogs/ab77.jpg,0,0,400,l,0,3,3,1,0,37,37,75,,,['l'],0,[0.017579504710738547],2018_Jul_09_0600,60.0202754471,go-nogo,001,27,
logos/2.jpg,properties2.xlsx,frogs/ab20.jpg,0,0,400,l,0,3,3,1,0,38,38,19,,,['l'],0,[0.2677137138816761],2018_Jul_09_0600,60.0202754471,go-nogo,001,27,
logos/2.jpg,properties2.xlsx,frogs/ab14.jpg,0,0,400,l,0,3,3,1,0,39,39,13,,,['l'],0,[0.05114005279028788],2018_Jul_09_0600,60.0202754471,go-nogo,001,27,
logos/2.jpg,properties2.xlsx,logos/2.jpg,0,0,400,a,0,3,3,1,0,40,40,85,,,['a'],0,[0.017856178637885023],2018_Jul_09_0600,60.0202754471,go-nogo,001,27,
logos/2.jpg,properties2.xlsx,frogs/ab72.jpg,0,0,400,l,0,3,3,1,0,41,41,70,,,['l'],0,[0.017829403739597183],2018_Jul_09_0600,60.0202754471,go-nogo,001,27,
logos/2.jpg,properties2.xlsx,logos/2.jpg,0,0,400,a,0,3,3,1,0,42,42,83,,,['a'],0,[0.06784401837649057],2018_Jul_09_0600,60.0202754471,go-nogo,001,27,
logos/2.jpg,properties2.xlsx,frogs/ab45.jpg,0,0,400,l,0,3,3,1,0,43,43,44,,,['l'],0,[0.1677295556946774],2018_Jul_09_0600,60.0202754471,go-nogo,001,27,
logos/2.jpg,properties2.xlsx,frogs/ab19.jpg,0,0,400,l,0,3,3,1,0,44,44,18,,,['l'],0,[0.0676360666839173],2018_Jul_09_0600,60.0202754471,go-nogo,001,27,
logos/2.jpg,properties2.xlsx,frogs/ab25.jpg,0,0,400,l,0,3,3,1,0,45,45,24,,,['l'],0,[0.050970032199984416],2018_Jul_09_0600,60.0202754471,go-nogo,001,27,
logos/2.jpg,properties2.xlsx,frogs/ab12.jpg,0,0,400,l,0,3,3,1,0,46,46,11,,,['l'],0,[0.25098386589525035],2018_Jul_09_0600,60.0202754471,go-nogo,001,27,
logos/2.jpg,properties2.xlsx,frogs/ab33.jpg,0,0,400,l,0,3,3,1,0,47,47,32,,,['l'],0,[0.08477601683262037],2018_Jul_09_0600,60.0202754471,go-nogo,001,27,
logos/2.jpg,properties2.xlsx,frogs/ab22.jpg,0,0,400,l,0,3,3,1,0,48,48,21,,,['l'],0,[0.15142408982501365],2018_Jul_09_0600,60.0202754471,go-nogo,001,27,
logos/2.jpg,properties2.xlsx,frogs/ab66.jpg,0,0,400,l,0,3,3,1,0,49,49,64,,,['l'],0,[0.11766942373651545],2018_Jul_09_0600,60.0202754471,go-nogo,001,27,
logos/2.jpg,properties2.xlsx,frogs/ab67.jpg,0,0,400,l,0,3,3,1,0,50,50,65,,,['l'],0,[0.06786945452768123],2018_Jul_09_0600,60.0202754471,go-nogo,001,27,
logos/2.jpg,properties2.xlsx,frogs/ab38.jpg,0,0,400,l,0,3,3,1,0,51,51,37,,,['l'],0,[0.06788775070890551],2018_Jul_09_0600,60.0202754471,go-nogo,001,27,
logos/2.jpg,properties2.xlsx,frogs/ab51.jpg,0,0,400,l,0,3,3,1,0,52,52,50,,,['l'],0,[0.05112889657902997],2018_Jul_09_0600,60.0202754471,go-nogo,001,27,
logos/2.jpg,properties2.xlsx,frogs/ab1.jpg,0,0,400,l,0,3,3,1,0,53,53,0,,,['l'],0,[0.017808430071454495],2018_Jul_09_0600,60.0202754471,go-nogo,001,27,
logos/2.jpg,properties2.xlsx,logos/2.jpg,0,0,400,a,0,3,3,1,0,54,54,84,,,['l'],0,[0.2678895357021247],2018_Jul_09_0600,60.0202754471,go-nogo,001,27,
logos/2.jpg,properties2.xlsx,frogs/ab5.jpg,0,0,400,l,0,3,3,1,0,55,55,4,,,['l'],0,[0.03444054969440913],2018_Jul_09_0600,60.0202754471,go-nogo,001,27,
logos/2.jpg,properties2.xlsx,frogs/ab65.jpg,0,0,400,l,0,3,3,1,0,56,56,63,,,['l'],0,[0.017722750402754173],2018_Jul_09_0600,60.0202754471,go-nogo,001,27,
logos/2.jpg,properties2.xlsx,frogs/ab26.jpg,0,0,400,l,0,3,3,1,0,57,57,25,,,['l'],0,[1.200679636131099],2018_Jul_09_0600,60.0202754471,go-nogo,001,27,
logos/2.jpg,properties2.xlsx,frogs/ab10.jpg,0,0,400,l,0,3,3,1,0,58,58,9,,,['l'],0,[0.21779325763782253],2018_Jul_09_0600,60.0202754471,go-nogo,001,27,
logos/2.jpg,properties2.xlsx,frogs/ab2.jpg,0,0,400,l,0,3,3,1,0,59,59,1,,,['l'],0,[0.5291237245692173],2018_Jul_09_0600,60.0202754471,go-nogo,001,27,
logos/2.jpg,properties2.xlsx,frogs/ab47.jpg,0,0,400,l,0,3,3,1,0,60,60,46,,,['l'],0,[0.053290969495719764],2018_Jul_09_0600,60.0202754471,go-nogo,001,27,
logos/2.jpg,properties2.xlsx,frogs/ab9.jpg,0,0,400,l,0,3,3,1,0,61,61,8,,,['l'],0,[0.3368835358924116],2018_Jul_09_0600,60.0202754471,go-nogo,001,27,
logos/2.jpg,properties2.xlsx,frogs/ab49.jpg,0,0,400,l,0,3,3,1,0,62,62,48,,,['l'],0,[0.11786220299836714],2018_Jul_09_0600,60.0202754471,go-nogo,001,27,
logos/2.jpg,properties2.xlsx,frogs/ab50.jpg,0,0,400,l,0,3,3,1,0,63,63,49,,,['l'],0,[0.1341667763699661],2018_Jul_09_0600,60.0202754471,go-nogo,001,27,
logos/2.jpg,properties2.xlsx,frogs/ab7.jpg,0,0,400,l,0,3,3,1,0,64,64,6,,,['l'],0,[0.10098375433153706],2018_Jul_09_0600,60.0202754471,go-nogo,001,27,
logos/2.jpg,properties2.xlsx,frogs/ab75.jpg,0,0,400,l,0,3,3,1,0,65,65,73,,,['l'],0,[0.13421050870238105],2018_Jul_09_0600,60.0202754471,go-nogo,001,27,
logos/2.jpg,properties2.xlsx,frogs/ab15.jpg,0,0,400,l,0,3,3,1,0,66,66,14,,,['l'],0,[0.200287830135494],2018_Jul_09_0600,60.0202754471,go-nogo,001,27,
logos/2.jpg,properties2.xlsx,frogs/ab69.jpg,0,0,400,l,0,3,3,1,0,67,67,67,,,['l'],0,[0.20084608673641924],2018_Jul_09_0600,60.0202754471,go-nogo,001,27,
logos/2.jpg,properties2.xlsx,frogs/ab18.jpg,0,0,400,l,0,3,3,1,0,68,68,17,,,['l'],0,[0.14988140951754758],2018_Jul_09_0600,60.0202754471,go-nogo,001,27,
logos/2.jpg,properties2.xlsx,frogs/ab54.jpg,0,0,400,l,0,3,3,1,0,69,69,53,,,['l'],0,[0.2343062289583031],2018_Jul_09_0600,60.0202754471,go-nogo,001,27,
logos/2.jpg,properties2.xlsx,frogs/ab3.jpg,0,0,400,l,0,3,3,1,0,70,70,2,,,['l'],0,[0.07872444391978206],2018_Jul_09_0600,60.0202754471,go-nogo,001,27,
logos/2.jpg,properties2.xlsx,frogs/ab24.jpg,0,0,400,l,0,3,3,1,0,71,71,23,,,['l'],0,[0.2540785977107589],2018_Jul_09_0600,60.0202754471,go-nogo,001,27,
logos/2.jpg,properties2.xlsx,frogs/ab21.jpg,0,0,400,l,0,3,3,1,0,72,72,20,,,['l'],0,[0.08428425122838235],2018_Jul_09_0600,60.0202754471,go-nogo,001,27,
logos/2.jpg,properties2.xlsx,frogs/ab70.jpg,0,0,400,l,0,3,3,1,0,73,73,68,,,['l'],0,[0.18430232428363524],2018_Jul_09_0600,60.0202754471,go-nogo,001,27,
logos/2.jpg,properties2.xlsx,frogs/ab28.jpg,0,0,400,l,0,3,3,1,0,74,74,27,,,['l'],0,[0.01690209982189117],2018_Jul_09_0600,60.0202754471,go-nogo,001,27,
logos/2.jpg,properties2.xlsx,frogs/ab17.jpg,0,0,400,l,0,3,3,1,0,75,75,16,,,['l'],0,[0.10109174641547725],2018_Jul_09_0600,60.0202754471,go-nogo,001,27,
logos/2.jpg,properties2.xlsx,frogs/ab56.jpg,0,0,400,l,0,3,3,1,0,76,76,55,,,['l'],0,[0.9935405561627704],2018_Jul_09_0600,60.0202754471,go-nogo,001,27,
logos/2.jpg,properties2.xlsx,frogs/ab52.jpg,0,0,400,l,0,3,3,1,0,77,77,51,,,['l'],0,[0.31746013329393463],2018_Jul_09_0600,60.0202754471,go-nogo,001,27,
logos/2.jpg,properties2.xlsx,logos/2.jpg,0,0,400,a,0,3,3,1,0,78,78,80,,,['a'],0,[0.03438967738475185],2018_Jul_09_0600,60.0202754471,go-nogo,001,27,
logos/2.jpg,properties2.xlsx,frogs/ab37.jpg,0,0,400,l,0,3,3,1,0,79,79,36,,,['l'],0,[0.26747318606066983],2018_Jul_09_0600,60.0202754471,go-nogo,001,27,
logos/2.jpg,properties2.xlsx,frogs/ab63.jpg,0,0,400,l,0,3,3,1,0,80,80,61,,,['l'],0,[0.26763338918681256],2018_Jul_09_0600,60.0202754471,go-nogo,001,27,
logos/2.jpg,properties2.xlsx,frogs/ab57.jpg,0,0,400,l,0,3,3,1,0,81,81,56,,,['l'],0,[0.30097438311349833],2018_Jul_09_0600,60.0202754471,go-nogo,001,27,
logos/2.jpg,properties2.xlsx,frogs/ab4.jpg,0,0,400,l,0,3,3,1,0,82,82,3,,,['l'],0,[0.45190090611140477],2018_Jul_09_0600,60.0202754471,go-nogo,001,27,
logos/2.jpg,properties2.xlsx,frogs/ab46.jpg,0,0,400,l,0,3,3,1,0,83,83,45,,,['l'],0,[1.3841309649506002],2018_Jul_09_0600,60.0202754471,go-nogo,001,27,
logos/2.jpg,properties2.xlsx,frogs/ab16.jpg,0,0,400,l,0,3,3,1,0,84,84,15,,,['l'],0,[0.16782773031445686],2018_Jul_09_0600,60.0202754471,go-nogo,001,27,
logos/2.jpg,properties2.xlsx,frogs/ab6.jpg,0,0,400,l,0,3,3,1,0,85,85,5,,,['l'],0,[0.1843768477483536],2018_Jul_09_0600,60.0202754471,go-nogo,001,27,
logos/2.jpg,properties2.xlsx,frogs/ab48.jpg,0,0,400,l,0,3,3,1,0,86,86,47,,,['l'],0,[0.20041947338177124],2018_Jul_09_0600,60.0202754471,go-nogo,001,27,
logos/2.jpg,properties2.xlsx,frogs/ab11.jpg,0,0,400,l,0,3,3,1,0,87,87,10,,,['l'],0,[0.06774138127366314],2018_Jul_09_0600,60.0202754471,go-nogo,001,27,
logos/2.jpg,properties2.xlsx,frogs/ab62.jpg,0,0,400,l,0,3,3,1,0,88,88,60,,,['l'],0,[0.08459617877088021],2018_Jul_09_0600,60.0202754471,go-nogo,001,27,
logos/2.jpg,properties2.xlsx,frogs/ab35.jpg,0,0,400,l,0,3,3,1,0,89,89,34,,,['l'],0,[0.1511545558605576],2018_Jul_09_0600,60.0202754471,go-nogo,001,27,
logos/2.jpg,properties2.xlsx,,,,,,0,3,3,1,,,,,,,,,,2018_Jul_09_0600,60.0202754471,go-nogo,001,27,
