pix,source,image1,x,y,size,answer,trials_2.thisRepN,trials_2.thisTrialN,trials_2.thisN,trials_2.thisIndex,trials.thisRepN,trials.thisTrialN,trials.thisN,trials.thisIndex,key_resp_3.keys,key_resp_3.rt,key_resp_2.keys,key_resp_2.corr,key_resp_2.rt,date,frameRate,expName,session,participant,
logos/4.jpg,properties4.xlsx,frogs/ab8.jpg,0,0,400,l,0,0,0,3,0,0,0,7,space,18.6467401786,['l'],0,[2.0833525333491707],2018_Jul_09_1259,60.1833426911,go-nogo,001,28,
logos/4.jpg,properties4.xlsx,frogs/ab5.jpg,0,0,400,l,0,0,0,3,0,1,1,4,,,['a'],0,[0.7007425712999975],2018_Jul_09_1259,60.1833426911,go-nogo,001,28,
logos/4.jpg,properties4.xlsx,frogs/ab63.jpg,0,0,400,l,0,0,0,3,0,2,2,61,,,['l'],0,[0.284254678119396],2018_Jul_09_1259,60.1833426911,go-nogo,001,28,
logos/4.jpg,properties4.xlsx,frogs/ab70.jpg,0,0,400,l,0,0,0,3,0,3,3,68,,,['l'],0,[0.2508915918733692],2018_Jul_09_1259,60.1833426911,go-nogo,001,28,
logos/4.jpg,properties4.xlsx,frogs/ab31.jpg,0,0,400,l,0,0,0,3,0,4,4,30,,,['l'],0,[0.5175886372308014],2018_Jul_09_1259,60.1833426911,go-nogo,001,28,
logos/4.jpg,properties4.xlsx,frogs/ab3.jpg,0,0,400,l,0,0,0,3,0,5,5,2,,,['l'],0,[0.35090518832839734],2018_Jul_09_1259,60.1833426911,go-nogo,001,28,
logos/4.jpg,properties4.xlsx,frogs/ab66.jpg,0,0,400,l,0,0,0,3,0,6,6,64,,,['l'],0,[0.4841305464578909],2018_Jul_09_1259,60.1833426911,go-nogo,001,28,
logos/4.jpg,properties4.xlsx,logos/4.jpg,0,0,400,a,0,0,0,3,0,7,7,87,,,['a'],0,[0.3674166335276823],2018_Jul_09_1259,60.1833426911,go-nogo,001,28,
logos/4.jpg,properties4.xlsx,frogs/ab21.jpg,0,0,400,l,0,0,0,3,0,8,8,20,,,['l'],0,[0.4340534903931257],2018_Jul_09_1259,60.1833426911,go-nogo,001,28,
logos/4.jpg,properties4.xlsx,logos/4.jpg,0,0,400,a,0,0,0,3,0,9,9,88,,,['a'],0,[0.434310628390449],2018_Jul_09_1259,60.1833426911,go-nogo,001,28,
logos/4.jpg,properties4.xlsx,frogs/ab56.jpg,0,0,400,l,0,0,0,3,0,10,10,55,,,['l'],0,[0.6506854263643618],2018_Jul_09_1259,60.1833426911,go-nogo,001,28,
logos/4.jpg,properties4.xlsx,frogs/ab81.jpg,0,0,400,l,0,0,0,3,0,11,11,79,,,['l'],0,[0.5174543793400517],2018_Jul_09_1259,60.1833426911,go-nogo,001,28,
logos/4.jpg,properties4.xlsx,frogs/ab62.jpg,0,0,400,l,0,0,0,3,0,12,12,60,,,['l'],0,[0.35009736541724124],2018_Jul_09_1259,60.1833426911,go-nogo,001,28,
logos/4.jpg,properties4.xlsx,frogs/ab10.jpg,0,0,400,l,0,0,0,3,0,13,13,9,,,['l'],0,[0.48423692877076974],2018_Jul_09_1259,60.1833426911,go-nogo,001,28,
logos/4.jpg,properties4.xlsx,frogs/ab18.jpg,0,0,400,l,0,0,0,3,0,14,14,17,,,['l'],0,[0.4673887010612816],2018_Jul_09_1259,60.1833426911,go-nogo,001,28,
logos/4.jpg,properties4.xlsx,frogs/ab45.jpg,0,0,400,l,0,0,0,3,0,15,15,44,,,['l'],0,[0.43385551689061685],2018_Jul_09_1259,60.1833426911,go-nogo,001,28,
logos/4.jpg,properties4.xlsx,frogs/ab37.jpg,0,0,400,l,0,0,0,3,0,16,16,36,,,['l'],0,[0.3858702670549974],2018_Jul_09_1259,60.1833426911,go-nogo,001,28,
logos/4.jpg,properties4.xlsx,frogs/ab64.jpg,0,0,400,l,0,0,0,3,0,17,17,62,,,['l'],0,[0.43325249415465805],2018_Jul_09_1259,60.1833426911,go-nogo,001,28,
logos/4.jpg,properties4.xlsx,logos/4.jpg,0,0,400,a,0,0,0,3,0,18,18,86,,,['a'],0,[0.4506787134669139],2018_Jul_09_1259,60.1833426911,go-nogo,001,28,
logos/4.jpg,properties4.xlsx,frogs/ab32.jpg,0,0,400,l,0,0,0,3,0,19,19,31,,,['l'],0,[0.36745588689700526],2018_Jul_09_1259,60.1833426911,go-nogo,001,28,
logos/4.jpg,properties4.xlsx,frogs/ab41.jpg,0,0,400,l,0,0,0,3,0,20,20,40,,,['l'],0,[0.3838563986682857],2018_Jul_09_1259,60.1833426911,go-nogo,001,28,
logos/4.jpg,properties4.xlsx,frogs/ab43.jpg,0,0,400,l,0,0,0,3,0,21,21,42,,,['l'],0,[0.36813741636615305],2018_Jul_09_1259,60.1833426911,go-nogo,001,28,
logos/4.jpg,properties4.xlsx,frogs/ab27.jpg,0,0,400,l,0,0,0,3,0,22,22,26,,,['l'],0,[0.38405949217485613],2018_Jul_09_1259,60.1833426911,go-nogo,001,28,
logos/4.jpg,properties4.xlsx,frogs/ab7.jpg,0,0,400,l,0,0,0,3,0,23,23,6,,,['l'],0,[0.4508004557937966],2018_Jul_09_1259,60.1833426911,go-nogo,001,28,
logos/4.jpg,properties4.xlsx,frogs/ab19.jpg,0,0,400,l,0,0,0,3,0,24,24,18,,,['l'],0,[0.31739362195366994],2018_Jul_09_1259,60.1833426911,go-nogo,001,28,
logos/4.jpg,properties4.xlsx,frogs/ab71.jpg,0,0,400,l,0,0,0,3,0,25,25,69,,,['l'],0,[0.3341940629561577],2018_Jul_09_1259,60.1833426911,go-nogo,001,28,
logos/4.jpg,properties4.xlsx,frogs/ab60.jpg,0,0,400,l,0,0,0,3,0,26,26,58,,,['l'],0,[0.317627435486429],2018_Jul_09_1259,60.1833426911,go-nogo,001,28,
logos/4.jpg,properties4.xlsx,frogs/ab29.jpg,0,0,400,l,0,0,0,3,0,27,27,28,,,['l'],0,[0.3342071474125987],2018_Jul_09_1259,60.1833426911,go-nogo,001,28,
logos/4.jpg,properties4.xlsx,frogs/ab17.jpg,0,0,400,l,0,0,0,3,0,28,28,16,,,['l'],0,[0.38420512785523897],2018_Jul_09_1259,60.1833426911,go-nogo,001,28,
logos/4.jpg,properties4.xlsx,frogs/ab26.jpg,0,0,400,l,0,0,0,3,0,29,29,25,,,['l'],0,[2.0663626521854894],2018_Jul_09_1259,60.1833426911,go-nogo,001,28,
logos/4.jpg,properties4.xlsx,logos/4.jpg,0,0,400,a,0,0,0,3,0,30,30,84,,,['a'],0,[0.46746379445721686],2018_Jul_09_1259,60.1833426911,go-nogo,001,28,
logos/4.jpg,properties4.xlsx,frogs/ab36.jpg,0,0,400,l,0,0,0,3,0,31,31,35,,,['l'],0,[0.3842517767843674],2018_Jul_09_1259,60.1833426911,go-nogo,001,28,
logos/4.jpg,properties4.xlsx,frogs/ab77.jpg,0,0,400,l,0,0,0,3,0,32,32,75,,,['l'],0,[0.41675413340817613],2018_Jul_09_1259,60.1833426911,go-nogo,001,28,
logos/4.jpg,properties4.xlsx,frogs/ab73.jpg,0,0,400,l,0,0,0,3,0,33,33,71,,,['l'],0,[0.4341866105060035],2018_Jul_09_1259,60.1833426911,go-nogo,001,28,
logos/4.jpg,properties4.xlsx,frogs/ab42.jpg,0,0,400,l,0,0,0,3,0,34,34,41,,,['l'],0,[0.41883968185538833],2018_Jul_09_1259,60.1833426911,go-nogo,001,28,
logos/4.jpg,properties4.xlsx,logos/4.jpg,0,0,400,a,0,0,0,3,0,35,35,89,,,['a'],0,[0.4342070905240689],2018_Jul_09_1259,60.1833426911,go-nogo,001,28,
logos/4.jpg,properties4.xlsx,frogs/ab38.jpg,0,0,400,l,0,0,0,3,0,36,36,37,,,['l'],0,[0.4506576645599125],2018_Jul_09_1259,60.1833426911,go-nogo,001,28,
logos/4.jpg,properties4.xlsx,frogs/ab68.jpg,0,0,400,l,0,0,0,3,0,37,37,66,,,['l'],0,[0.3853559910585318],2018_Jul_09_1259,60.1833426911,go-nogo,001,28,
logos/4.jpg,properties4.xlsx,frogs/ab15.jpg,0,0,400,l,0,0,0,3,0,38,38,14,,,['l'],0,[0.4176251030403364],2018_Jul_09_1259,60.1833426911,go-nogo,001,28,
logos/4.jpg,properties4.xlsx,frogs/ab11.jpg,0,0,400,l,0,0,0,3,0,39,39,10,,,['l'],0,[0.4841498886980844],2018_Jul_09_1259,60.1833426911,go-nogo,001,28,
logos/4.jpg,properties4.xlsx,frogs/ab61.jpg,0,0,400,l,0,0,0,3,0,40,40,59,,,['l'],0,[0.400793373120905],2018_Jul_09_1259,60.1833426911,go-nogo,001,28,
logos/4.jpg,properties4.xlsx,frogs/ab79.jpg,0,0,400,l,0,0,0,3,0,41,41,77,,,['l'],0,[0.35084773050039075],2018_Jul_09_1259,60.1833426911,go-nogo,001,28,
logos/4.jpg,properties4.xlsx,frogs/ab20.jpg,0,0,400,l,0,0,0,3,0,42,42,19,,,['l'],0,[0.31737371082635946],2018_Jul_09_1259,60.1833426911,go-nogo,001,28,
logos/4.jpg,properties4.xlsx,frogs/ab67.jpg,0,0,400,l,0,0,0,3,0,43,43,65,,,['l'],0,[0.3342657430184772],2018_Jul_09_1259,60.1833426911,go-nogo,001,28,
logos/4.jpg,properties4.xlsx,frogs/ab2.jpg,0,0,400,l,0,0,0,3,0,44,44,1,,,['l'],0,[0.4341342726820585],2018_Jul_09_1259,60.1833426911,go-nogo,001,28,
logos/4.jpg,properties4.xlsx,frogs/ab44.jpg,0,0,400,l,0,0,0,3,0,45,45,43,,,['l'],0,[0.36743142465093115],2018_Jul_09_1259,60.1833426911,go-nogo,001,28,
logos/4.jpg,properties4.xlsx,frogs/ab55.jpg,0,0,400,l,0,0,0,3,0,46,46,54,,,['l'],0,[0.40111934673404903],2018_Jul_09_1259,60.1833426911,go-nogo,001,28,
logos/4.jpg,properties4.xlsx,frogs/ab39.jpg,0,0,400,l,0,0,0,3,0,47,47,38,,,['l'],0,[0.3834229049643909],2018_Jul_09_1259,60.1833426911,go-nogo,001,28,
logos/4.jpg,properties4.xlsx,logos/4.jpg,0,0,400,a,0,0,0,3,0,48,48,83,,,['a'],0,[0.4833540124618594],2018_Jul_09_1259,60.1833426911,go-nogo,001,28,
logos/4.jpg,properties4.xlsx,logos/4.jpg,0,0,400,a,0,0,0,3,0,49,49,80,,,['a'],0,[0.3342350229922886],2018_Jul_09_1259,60.1833426911,go-nogo,001,28,
logos/4.jpg,properties4.xlsx,frogs/ab4.jpg,0,0,400,l,0,0,0,3,0,50,50,3,,,['l'],0,[0.3175546176462376],2018_Jul_09_1259,60.1833426911,go-nogo,001,28,
logos/4.jpg,properties4.xlsx,frogs/ab76.jpg,0,0,400,l,0,0,0,3,0,51,51,74,,,['l'],0,[0.30091972345144313],2018_Jul_09_1259,60.1833426911,go-nogo,001,28,
logos/4.jpg,properties4.xlsx,frogs/ab80.jpg,0,0,400,l,0,0,0,3,0,52,52,78,,,['l'],0,[0.36739330906311807],2018_Jul_09_1259,60.1833426911,go-nogo,001,28,
logos/4.jpg,properties4.xlsx,frogs/ab13.jpg,0,0,400,l,0,0,0,3,0,53,53,12,,,['l'],0,[0.33422648965097324],2018_Jul_09_1259,60.1833426911,go-nogo,001,28,
logos/4.jpg,properties4.xlsx,frogs/ab16.jpg,0,0,400,l,0,0,0,3,0,54,54,15,,,['l'],0,[0.36722890003511566],2018_Jul_09_1259,60.1833426911,go-nogo,001,28,
logos/4.jpg,properties4.xlsx,frogs/ab78.jpg,0,0,400,l,0,0,0,3,0,55,55,76,,,['l'],0,[0.33344824898813386],2018_Jul_09_1259,60.1833426911,go-nogo,001,28,
logos/4.jpg,properties4.xlsx,frogs/ab47.jpg,0,0,400,l,0,0,0,3,0,56,56,46,,,['l'],0,[1.1171337532887264],2018_Jul_09_1259,60.1833426911,go-nogo,001,28,
logos/4.jpg,properties4.xlsx,frogs/ab9.jpg,0,0,400,l,0,0,0,3,0,57,57,8,,,['l'],0,[0.48411006644164445],2018_Jul_09_1259,60.1833426911,go-nogo,001,28,
logos/4.jpg,properties4.xlsx,frogs/ab49.jpg,0,0,400,l,0,0,0,3,0,58,58,48,,,['l'],0,[0.3175483598624851],2018_Jul_09_1259,60.1833426911,go-nogo,001,28,
logos/4.jpg,properties4.xlsx,frogs/ab50.jpg,0,0,400,l,0,0,0,3,0,59,59,49,,,['l'],0,[0.3515554288842395],2018_Jul_09_1259,60.1833426911,go-nogo,001,28,
logos/4.jpg,properties4.xlsx,frogs/ab57.jpg,0,0,400,l,0,0,0,3,0,60,60,56,,,['l'],0,[0.7171988342324767],2018_Jul_09_1259,60.1833426911,go-nogo,001,28,
logos/4.jpg,properties4.xlsx,frogs/ab54.jpg,0,0,400,l,0,0,0,3,0,61,61,53,,,['l'],0,[0.4504670866208471],2018_Jul_09_1259,60.1833426911,go-nogo,001,28,
logos/4.jpg,properties4.xlsx,frogs/ab34.jpg,0,0,400,l,0,0,0,3,0,62,62,33,,,['l'],0,[0.6340636166241893],2018_Jul_09_1259,60.1833426911,go-nogo,001,28,
logos/4.jpg,properties4.xlsx,logos/4.jpg,0,0,400,a,0,0,0,3,0,63,63,82,,,['a'],0,[0.3507214370602014],2018_Jul_09_1259,60.1833426911,go-nogo,001,28,
logos/4.jpg,properties4.xlsx,frogs/ab30.jpg,0,0,400,l,0,0,0,3,0,64,64,29,,,['l'],0,[0.33423559188122454],2018_Jul_09_1259,60.1833426911,go-nogo,001,28,
logos/4.jpg,properties4.xlsx,frogs/ab58.jpg,0,0,400,l,0,0,0,3,0,65,65,57,,,['l'],0,[0.35085171272658044],2018_Jul_09_1259,60.1833426911,go-nogo,001,28,
logos/4.jpg,properties4.xlsx,frogs/ab52.jpg,0,0,400,l,0,0,0,3,0,66,66,51,,,['l'],0,[0.5007887651172496],2018_Jul_09_1259,60.1833426911,go-nogo,001,28,
logos/4.jpg,properties4.xlsx,frogs/ab40.jpg,0,0,400,l,0,0,0,3,0,67,67,39,,,['l'],0,[0.33433059640628926],2018_Jul_09_1259,60.1833426911,go-nogo,001,28,
logos/4.jpg,properties4.xlsx,frogs/ab25.jpg,0,0,400,l,0,0,0,3,0,68,68,24,,,['l'],0,[0.4174595562326431],2018_Jul_09_1259,60.1833426911,go-nogo,001,28,
logos/4.jpg,properties4.xlsx,logos/4.jpg,0,0,400,a,0,0,0,3,0,69,69,85,,,['a'],0,[0.5019362149851077],2018_Jul_09_1259,60.1833426911,go-nogo,001,28,
logos/4.jpg,properties4.xlsx,frogs/ab72.jpg,0,0,400,l,0,0,0,3,0,70,70,70,,,['l'],0,[0.2842347669920855],2018_Jul_09_1259,60.1833426911,go-nogo,001,28,
logos/4.jpg,properties4.xlsx,frogs/ab35.jpg,0,0,400,l,0,0,0,3,0,71,71,34,,,['l'],0,[0.3731345406304172],2018_Jul_09_1259,60.1833426911,go-nogo,001,28,
logos/4.jpg,properties4.xlsx,frogs/ab12.jpg,0,0,400,l,0,0,0,3,0,72,72,11,,,['l'],0,[0.3841880611744273],2018_Jul_09_1259,60.1833426911,go-nogo,001,28,
logos/4.jpg,properties4.xlsx,frogs/ab28.jpg,0,0,400,l,0,0,0,3,0,73,73,27,,,['l'],0,[0.41745500511751743],2018_Jul_09_1259,60.1833426911,go-nogo,001,28,
logos/4.jpg,properties4.xlsx,frogs/ab6.jpg,0,0,400,l,0,0,0,3,0,74,74,5,,,['l'],0,[0.3841852167279285],2018_Jul_09_1259,60.1833426911,go-nogo,001,28,
logos/4.jpg,properties4.xlsx,logos/4.jpg,0,0,400,a,0,0,0,3,0,75,75,81,,,['a'],0,[0.4173469161360117],2018_Jul_09_1259,60.1833426911,go-nogo,001,28,
logos/4.jpg,properties4.xlsx,frogs/ab24.jpg,0,0,400,l,0,0,0,3,0,76,76,23,,,['l'],0,[0.35077832599745307],2018_Jul_09_1259,60.1833426911,go-nogo,001,28,
logos/4.jpg,properties4.xlsx,frogs/ab14.jpg,0,0,400,l,0,0,0,3,0,77,77,13,,,['l'],0,[0.3166296035233245],2018_Jul_09_1259,60.1833426911,go-nogo,001,28,
logos/4.jpg,properties4.xlsx,frogs/ab23.jpg,0,0,400,l,0,0,0,3,0,78,78,22,,,['l'],0,[0.3342674496871041],2018_Jul_09_1259,60.1833426911,go-nogo,001,28,
logos/4.jpg,properties4.xlsx,frogs/ab65.jpg,0,0,400,l,0,0,0,3,0,79,79,63,,,['l'],0,[0.2842580914566497],2018_Jul_09_1259,60.1833426911,go-nogo,001,28,
logos/4.jpg,properties4.xlsx,frogs/ab51.jpg,0,0,400,l,0,0,0,3,0,80,80,50,,,['l'],0,[0.25088021408373606],2018_Jul_09_1259,60.1833426911,go-nogo,001,28,
logos/4.jpg,properties4.xlsx,frogs/ab1.jpg,0,0,400,l,0,0,0,3,0,81,81,0,,,['l'],0,[0.40088837764596974],2018_Jul_09_1259,60.1833426911,go-nogo,001,28,
logos/4.jpg,properties4.xlsx,frogs/ab74.jpg,0,0,400,l,0,0,0,3,0,82,82,72,,,['l'],0,[0.6007488859740988],2018_Jul_09_1259,60.1833426911,go-nogo,001,28,
logos/4.jpg,properties4.xlsx,frogs/ab75.jpg,0,0,400,l,0,0,0,3,0,83,83,73,,,['l'],0,[0.36722378003105405],2018_Jul_09_1259,60.1833426911,go-nogo,001,28,
logos/4.jpg,properties4.xlsx,frogs/ab53.jpg,0,0,400,l,0,0,0,3,0,84,84,52,,,['l'],0,[0.883747456353376],2018_Jul_09_1259,60.1833426911,go-nogo,001,28,
logos/4.jpg,properties4.xlsx,frogs/ab48.jpg,0,0,400,l,0,0,0,3,0,85,85,47,,,['l'],0,[0.5340852913086565],2018_Jul_09_1259,60.1833426911,go-nogo,001,28,
logos/4.jpg,properties4.xlsx,frogs/ab46.jpg,0,0,400,l,0,0,0,3,0,86,86,45,,,['l'],0,[0.3843382479681168],2018_Jul_09_1259,60.1833426911,go-nogo,001,28,
logos/4.jpg,properties4.xlsx,frogs/ab22.jpg,0,0,400,l,0,0,0,3,0,87,87,21,,,['l'],0,[0.6840980059860158],2018_Jul_09_1259,60.1833426911,go-nogo,001,28,
logos/4.jpg,properties4.xlsx,frogs/ab33.jpg,0,0,400,l,0,0,0,3,0,88,88,32,,,['l'],0,[0.45103938933061727],2018_Jul_09_1259,60.1833426911,go-nogo,001,28,
logos/4.jpg,properties4.xlsx,frogs/ab69.jpg,0,0,400,l,0,0,0,3,0,89,89,67,,,['l'],0,[0.3840191010294802],2018_Jul_09_1259,60.1833426911,go-nogo,001,28,
logos/4.jpg,properties4.xlsx,,,,,,0,0,0,3,,,,,,,,,,2018_Jul_09_1259,60.1833426911,go-nogo,001,28,
logos/1.jpg,properties1.xlsx,frogs/ab2.jpg,0,0,400,l,0,1,1,0,0,0,0,1,space,14.8635467636,['l'],0,[1.4501462330135837],2018_Jul_09_1259,60.1833426911,go-nogo,001,28,
logos/1.jpg,properties1.xlsx,logos/1.jpg,0,0,400,a,0,1,1,0,0,1,1,86,,,['a'],0,[0.5508572878425184],2018_Jul_09_1259,60.1833426911,go-nogo,001,28,
logos/1.jpg,properties1.xlsx,frogs/ab49.jpg,0,0,400,l,0,1,1,0,0,2,2,48,,,['l'],0,[0.2507647295424249],2018_Jul_09_1259,60.1833426911,go-nogo,001,28,
logos/1.jpg,properties1.xlsx,frogs/ab24.jpg,0,0,400,l,0,1,1,0,0,3,3,23,,,['l'],0,[0.7673589481455565],2018_Jul_09_1259,60.1833426911,go-nogo,001,28,
logos/1.jpg,properties1.xlsx,frogs/ab57.jpg,0,0,400,l,0,1,1,0,0,4,4,56,,,['l'],0,[0.7013973629691463],2018_Jul_09_1259,60.1833426911,go-nogo,001,28,
logos/1.jpg,properties1.xlsx,frogs/ab5.jpg,0,0,400,l,0,1,1,0,0,5,5,4,,,['l'],0,[0.6672503471636446],2018_Jul_09_1259,60.1833426911,go-nogo,001,28,
logos/1.jpg,properties1.xlsx,logos/1.jpg,0,0,400,a,0,1,1,0,0,6,6,80,,,['a'],0,[0.5839706316546653],2018_Jul_09_1259,60.1833426911,go-nogo,001,28,
logos/1.jpg,properties1.xlsx,frogs/ab73.jpg,0,0,400,l,0,1,1,0,0,7,7,71,,,['l'],0,[0.4175340807396424],2018_Jul_09_1259,60.1833426911,go-nogo,001,28,
logos/1.jpg,properties1.xlsx,frogs/ab60.jpg,0,0,400,l,0,1,1,0,0,8,8,58,,,['l'],0,[0.9002941726957943],2018_Jul_09_1259,60.1833426911,go-nogo,001,28,
logos/1.jpg,properties1.xlsx,frogs/ab14.jpg,0,0,400,l,0,1,1,0,0,9,9,13,,,['l'],0,[0.567464875348378],2018_Jul_09_1259,60.1833426911,go-nogo,001,28,
logos/1.jpg,properties1.xlsx,frogs/ab26.jpg,0,0,400,l,0,1,1,0,0,10,10,25,,,['l'],0,[0.4501303041106439],2018_Jul_09_1259,60.1833426911,go-nogo,001,28,
logos/1.jpg,properties1.xlsx,logos/1.jpg,0,0,400,a,0,1,1,0,0,11,11,87,,,['a'],0,[0.45131643845707003],2018_Jul_09_1259,60.1833426911,go-nogo,001,28,
logos/1.jpg,properties1.xlsx,frogs/ab10.jpg,0,0,400,l,0,1,1,0,0,12,12,9,,,['l'],0,[0.3008326833787578],2018_Jul_09_1259,60.1833426911,go-nogo,001,28,
logos/1.jpg,properties1.xlsx,frogs/ab79.jpg,0,0,400,l,0,1,1,0,0,13,13,77,,,['l'],0,[0.4342127794170665],2018_Jul_09_1259,60.1833426911,go-nogo,001,28,
logos/1.jpg,properties1.xlsx,frogs/ab39.jpg,0,0,400,l,0,1,1,0,0,14,14,38,,,['l'],0,[0.30084349227581697],2018_Jul_09_1259,60.1833426911,go-nogo,001,28,
logos/1.jpg,properties1.xlsx,frogs/ab51.jpg,0,0,400,l,0,1,1,0,0,15,15,50,,,['l'],0,[0.21780839919665596],2018_Jul_09_1259,60.1833426911,go-nogo,001,28,
logos/1.jpg,properties1.xlsx,frogs/ab58.jpg,0,0,400,l,0,1,1,0,0,16,16,57,,,['l'],0,[0.45103711377487343],2018_Jul_09_1259,60.1833426911,go-nogo,001,28,
logos/1.jpg,properties1.xlsx,frogs/ab12.jpg,0,0,400,l,0,1,1,0,0,17,17,11,,,['l'],0,[0.28427458924852544],2018_Jul_09_1259,60.1833426911,go-nogo,001,28,
logos/1.jpg,properties1.xlsx,frogs/ab23.jpg,0,0,400,l,0,1,1,0,0,18,18,22,,,['l'],0,[0.28436447376770957],2018_Jul_09_1259,60.1833426911,go-nogo,001,28,
logos/1.jpg,properties1.xlsx,logos/1.jpg,0,0,400,a,0,1,1,0,0,19,19,84,,,['a'],0,[0.4508323135996761],2018_Jul_09_1259,60.1833426911,go-nogo,001,28,
logos/1.jpg,properties1.xlsx,frogs/ab53.jpg,0,0,400,l,0,1,1,0,0,20,20,52,,,['l'],0,[0.3176484843934304],2018_Jul_09_1259,60.1833426911,go-nogo,001,28,
logos/1.jpg,properties1.xlsx,frogs/ab30.jpg,0,0,400,l,0,1,1,0,0,21,21,29,,,['l'],0,[0.38420399007554806],2018_Jul_09_1259,60.1833426911,go-nogo,001,28,
logos/1.jpg,properties1.xlsx,frogs/ab76.jpg,0,0,400,l,0,1,1,0,0,22,22,74,,,['l'],0,[0.33425777856609784],2018_Jul_09_1259,60.1833426911,go-nogo,001,28,
logos/1.jpg,properties1.xlsx,frogs/ab75.jpg,0,0,400,l,0,1,1,0,0,23,23,73,,,['l'],0,[0.3672442600491195],2018_Jul_09_1259,60.1833426911,go-nogo,001,28,
logos/1.jpg,properties1.xlsx,frogs/ab6.jpg,0,0,400,l,0,1,1,0,0,24,24,5,,,['l'],0,[0.3341565162572806],2018_Jul_09_1259,60.1833426911,go-nogo,001,28,
logos/1.jpg,properties1.xlsx,frogs/ab38.jpg,0,0,400,l,0,1,1,0,0,25,25,37,,,['l'],0,[0.33425379633990815],2018_Jul_09_1259,60.1833426911,go-nogo,001,28,
logos/1.jpg,properties1.xlsx,frogs/ab44.jpg,0,0,400,l,0,1,1,0,0,26,26,43,,,['l'],0,[0.38432800795999356],2018_Jul_09_1259,60.1833426911,go-nogo,001,28,
logos/1.jpg,properties1.xlsx,frogs/ab4.jpg,0,0,400,l,0,1,1,0,0,27,27,3,,,['l'],0,[0.36762598481800524],2018_Jul_09_1259,60.1833426911,go-nogo,001,28,
logos/1.jpg,properties1.xlsx,frogs/ab31.jpg,0,0,400,l,0,1,1,0,0,28,28,30,,,['l'],0,[0.31764279549861385],2018_Jul_09_1259,60.1833426911,go-nogo,001,28,
logos/1.jpg,properties1.xlsx,frogs/ab28.jpg,0,0,400,l,0,1,1,0,0,29,29,27,,,['l'],0,[0.3010687724690797],2018_Jul_09_1259,60.1833426911,go-nogo,001,28,
logos/1.jpg,properties1.xlsx,frogs/ab1.jpg,0,0,400,l,0,1,1,0,0,30,30,0,,,['l'],0,[0.30092484345550474],2018_Jul_09_1259,60.1833426911,go-nogo,001,28,
logos/1.jpg,properties1.xlsx,frogs/ab33.jpg,0,0,400,l,0,1,1,0,0,31,31,32,,,['l'],0,[0.39027688414716977],2018_Jul_09_1259,60.1833426911,go-nogo,001,28,
logos/1.jpg,properties1.xlsx,frogs/ab19.jpg,0,0,400,l,0,1,1,0,0,32,32,18,,,['l'],0,[0.2841903936205199],2018_Jul_09_1259,60.1833426911,go-nogo,001,28,
logos/1.jpg,properties1.xlsx,frogs/ab56.jpg,0,0,400,l,0,1,1,0,0,33,33,55,,,['l'],0,[0.4006255507556489],2018_Jul_09_1259,60.1833426911,go-nogo,001,28,
logos/1.jpg,properties1.xlsx,frogs/ab37.jpg,0,0,400,l,0,1,1,0,0,34,34,36,,,['l'],0,[0.3331973687727441],2018_Jul_09_1259,60.1833426911,go-nogo,001,28,
logos/1.jpg,properties1.xlsx,frogs/ab32.jpg,0,0,400,l,0,1,1,0,0,35,35,31,,,['l'],0,[0.30080310113044106],2018_Jul_09_1259,60.1833426911,go-nogo,001,28,
logos/1.jpg,properties1.xlsx,frogs/ab42.jpg,0,0,400,l,0,1,1,0,0,36,36,41,,,['l'],0,[0.30089583009794296],2018_Jul_09_1259,60.1833426911,go-nogo,001,28,
logos/1.jpg,properties1.xlsx,frogs/ab74.jpg,0,0,400,l,0,1,1,0,0,37,37,72,,,['l'],0,[0.3510286373220879],2018_Jul_09_1259,60.1833426911,go-nogo,001,28,
logos/1.jpg,properties1.xlsx,frogs/ab11.jpg,0,0,400,l,0,1,1,0,0,38,38,10,,,['l'],0,[0.3507976682358276],2018_Jul_09_1259,60.1833426911,go-nogo,001,28,
logos/1.jpg,properties1.xlsx,frogs/ab66.jpg,0,0,400,l,0,1,1,0,0,39,39,64,,,['l'],0,[0.3175483598643041],2018_Jul_09_1259,60.1833426911,go-nogo,001,28,
logos/1.jpg,properties1.xlsx,frogs/ab72.jpg,0,0,400,l,0,1,1,0,0,40,40,70,,,['l'],0,[0.3842216256471147],2018_Jul_09_1259,60.1833426911,go-nogo,001,28,
logos/1.jpg,properties1.xlsx,frogs/ab52.jpg,0,0,400,l,0,1,1,0,0,41,41,51,,,['l'],0,[0.3007359721832472],2018_Jul_09_1259,60.1833426911,go-nogo,001,28,
logos/1.jpg,properties1.xlsx,frogs/ab34.jpg,0,0,400,l,0,1,1,0,0,42,42,33,,,['l'],0,[0.48399913301182096],2018_Jul_09_1259,60.1833426911,go-nogo,001,28,
logos/1.jpg,properties1.xlsx,logos/1.jpg,0,0,400,a,0,1,1,0,0,43,43,85,,,['a'],0,[0.31766725774286897],2018_Jul_09_1259,60.1833426911,go-nogo,001,28,
logos/1.jpg,properties1.xlsx,frogs/ab15.jpg,0,0,400,l,0,1,1,0,0,44,44,14,,,['l'],0,[0.41748344958614325],2018_Jul_09_1259,60.1833426911,go-nogo,001,28,
logos/1.jpg,properties1.xlsx,frogs/ab18.jpg,0,0,400,l,0,1,1,0,0,45,45,17,,,['l'],0,[0.3007376788518741],2018_Jul_09_1259,60.1833426911,go-nogo,001,28,
logos/1.jpg,properties1.xlsx,frogs/ab9.jpg,0,0,400,l,0,1,1,0,0,46,46,8,,,['l'],0,[0.2842074603013316],2018_Jul_09_1259,60.1833426911,go-nogo,001,28,
logos/1.jpg,properties1.xlsx,frogs/ab3.jpg,0,0,400,l,0,1,1,0,0,47,47,2,,,['l'],0,[0.3168002703368984],2018_Jul_09_1259,60.1833426911,go-nogo,001,28,
logos/1.jpg,properties1.xlsx,frogs/ab17.jpg,0,0,400,l,0,1,1,0,0,48,48,16,,,['l'],0,[0.2842370425496483],2018_Jul_09_1259,60.1833426911,go-nogo,001,28,
logos/1.jpg,properties1.xlsx,frogs/ab65.jpg,0,0,400,l,0,1,1,0,0,49,49,63,,,['l'],0,[0.35099393507152854],2018_Jul_09_1259,60.1833426911,go-nogo,001,28,
logos/1.jpg,properties1.xlsx,frogs/ab80.jpg,0,0,400,l,0,1,1,0,0,50,50,78,,,['l'],0,[0.40002935469055956],2018_Jul_09_1259,60.1833426911,go-nogo,001,28,
logos/1.jpg,properties1.xlsx,frogs/ab13.jpg,0,0,400,l,0,1,1,0,0,51,51,12,,,['l'],0,[0.4337804234910436],2018_Jul_09_1259,60.1833426911,go-nogo,001,28,
logos/1.jpg,properties1.xlsx,frogs/ab81.jpg,0,0,400,l,0,1,1,0,0,52,52,79,,,['l'],0,[0.5333007928602456],2018_Jul_09_1259,60.1833426911,go-nogo,001,28,
logos/1.jpg,properties1.xlsx,frogs/ab29.jpg,0,0,400,l,0,1,1,0,0,53,53,28,,,['l'],0,[0.8007425144114677],2018_Jul_09_1259,60.1833426911,go-nogo,001,28,
logos/1.jpg,properties1.xlsx,frogs/ab68.jpg,0,0,400,l,0,1,1,0,0,54,54,66,,,['l'],0,[0.31761150658530823],2018_Jul_09_1259,60.1833426911,go-nogo,001,28,
logos/1.jpg,properties1.xlsx,frogs/ab61.jpg,0,0,400,l,0,1,1,0,0,55,55,59,,,['l'],0,[0.4174891384809598],2018_Jul_09_1259,60.1833426911,go-nogo,001,28,
logos/1.jpg,properties1.xlsx,frogs/ab71.jpg,0,0,400,l,0,1,1,0,0,56,56,69,,,['l'],0,[0.2676015794640989],2018_Jul_09_1259,60.1833426911,go-nogo,001,28,
logos/1.jpg,properties1.xlsx,frogs/ab67.jpg,0,0,400,l,0,1,1,0,0,57,57,65,,,['l'],0,[0.35089210387195635],2018_Jul_09_1259,60.1833426911,go-nogo,001,28,
logos/1.jpg,properties1.xlsx,frogs/ab64.jpg,0,0,400,l,0,1,1,0,0,58,58,62,,,['l'],0,[0.8835967006689316],2018_Jul_09_1259,60.1833426911,go-nogo,001,28,
logos/1.jpg,properties1.xlsx,logos/1.jpg,0,0,400,a,0,1,1,0,0,59,59,81,,,['a'],0,[0.38421593675229815],2018_Jul_09_1259,60.1833426911,go-nogo,001,28,
logos/1.jpg,properties1.xlsx,frogs/ab40.jpg,0,0,400,l,0,1,1,0,0,60,60,39,,,['l'],0,[0.4008838265326631],2018_Jul_09_1259,60.1833426911,go-nogo,001,28,
logos/1.jpg,properties1.xlsx,frogs/ab8.jpg,0,0,400,l,0,1,1,0,0,61,61,7,,,['l'],0,[0.33418439183697046],2018_Jul_09_1259,60.1833426911,go-nogo,001,28,
logos/1.jpg,properties1.xlsx,frogs/ab45.jpg,0,0,400,l,0,1,1,0,0,62,62,44,,,['l'],0,[0.3343249075132917],2018_Jul_09_1259,60.1833426911,go-nogo,001,28,
logos/1.jpg,properties1.xlsx,frogs/ab46.jpg,0,0,400,l,0,1,1,0,0,63,63,45,,,['l'],0,[0.3675873003412562],2018_Jul_09_1259,60.1833426911,go-nogo,001,28,
logos/1.jpg,properties1.xlsx,logos/1.jpg,0,0,400,a,0,1,1,0,0,64,64,88,,,['a'],0,[0.40085936428840796],2018_Jul_09_1259,60.1833426911,go-nogo,001,28,
logos/1.jpg,properties1.xlsx,frogs/ab78.jpg,0,0,400,l,0,1,1,0,0,65,65,76,,,['l'],0,[0.3340034850152733],2018_Jul_09_1259,60.1833426911,go-nogo,001,28,
logos/1.jpg,properties1.xlsx,frogs/ab36.jpg,0,0,400,l,0,1,1,0,0,66,66,35,,,['l'],0,[0.4008781376378465],2018_Jul_09_1259,60.1833426911,go-nogo,001,28,
logos/1.jpg,properties1.xlsx,frogs/ab69.jpg,0,0,400,l,0,1,1,0,0,67,67,67,,,['l'],0,[0.4674410388834076],2018_Jul_09_1259,60.1833426911,go-nogo,001,28,
logos/1.jpg,properties1.xlsx,frogs/ab50.jpg,0,0,400,l,0,1,1,0,0,68,68,49,,,['l'],0,[0.3674007046265615],2018_Jul_09_1259,60.1833426911,go-nogo,001,28,
logos/1.jpg,properties1.xlsx,frogs/ab22.jpg,0,0,400,l,0,1,1,0,0,69,69,21,,,['l'],0,[0.33359843578182335],2018_Jul_09_1259,60.1833426911,go-nogo,001,28,
logos/1.jpg,properties1.xlsx,logos/1.jpg,0,0,400,a,0,1,1,0,0,70,70,89,,,['a'],0,[0.1510025821880845],2018_Jul_09_1259,60.1833426911,go-nogo,001,28,
logos/1.jpg,properties1.xlsx,frogs/ab7.jpg,0,0,400,l,0,1,1,0,0,71,71,6,,,['l'],0,[0.21755751898126618],2018_Jul_09_1259,60.1833426911,go-nogo,001,28,
logos/1.jpg,properties1.xlsx,frogs/ab63.jpg,0,0,400,l,0,1,1,0,0,72,72,61,,,['l'],0,[0.3841471011401154],2018_Jul_09_1259,60.1833426911,go-nogo,001,28,
logos/1.jpg,properties1.xlsx,frogs/ab43.jpg,0,0,400,l,0,1,1,0,0,73,73,42,,,['l'],0,[0.40082295536922175],2018_Jul_09_1259,60.1833426911,go-nogo,001,28,
logos/1.jpg,properties1.xlsx,frogs/ab54.jpg,0,0,400,l,0,1,1,0,0,74,74,53,,,['l'],0,[0.4508852203107381],2018_Jul_09_1259,60.1833426911,go-nogo,001,28,
logos/1.jpg,properties1.xlsx,frogs/ab35.jpg,0,0,400,l,0,1,1,0,0,75,75,34,,,['l'],0,[0.3175534798683657],2018_Jul_09_1259,60.1833426911,go-nogo,001,28,
logos/1.jpg,properties1.xlsx,frogs/ab70.jpg,0,0,400,l,0,1,1,0,0,76,76,68,,,['l'],0,[0.38422788342904823],2018_Jul_09_1259,60.1833426911,go-nogo,001,28,
logos/1.jpg,properties1.xlsx,frogs/ab41.jpg,0,0,400,l,0,1,1,0,0,77,77,40,,,['l'],0,[0.3341496895864111],2018_Jul_09_1259,60.1833426911,go-nogo,001,28,
logos/1.jpg,properties1.xlsx,frogs/ab16.jpg,0,0,400,l,0,1,1,0,0,78,78,15,,,['l'],0,[0.38425348345117527],2018_Jul_09_1259,60.1833426911,go-nogo,001,28,
logos/1.jpg,properties1.xlsx,frogs/ab47.jpg,0,0,400,l,0,1,1,0,0,79,79,46,,,['l'],0,[0.3835315628366516],2018_Jul_09_1259,60.1833426911,go-nogo,001,28,
logos/1.jpg,properties1.xlsx,frogs/ab21.jpg,0,0,400,l,0,1,1,0,0,80,80,20,,,['l'],0,[0.5343407226391719],2018_Jul_09_1259,60.1833426911,go-nogo,001,28,
logos/1.jpg,properties1.xlsx,logos/1.jpg,0,0,400,a,0,1,1,0,0,81,81,83,,,['a'],0,[0.45204177240884746],2018_Jul_09_1259,60.1833426911,go-nogo,001,28,
logos/1.jpg,properties1.xlsx,frogs/ab48.jpg,0,0,400,l,0,1,1,0,0,82,82,47,,,['l'],0,[0.10104613067051105],2018_Jul_09_1259,60.1833426911,go-nogo,001,28,
logos/1.jpg,properties1.xlsx,frogs/ab20.jpg,0,0,400,l,0,1,1,0,0,83,83,19,,,['l'],0,[0.3009111901119468],2018_Jul_09_1259,60.1833426911,go-nogo,001,28,
logos/1.jpg,properties1.xlsx,logos/1.jpg,0,0,400,a,0,1,1,0,0,84,84,82,,,['a'],0,[0.300882176752566],2018_Jul_09_1259,60.1833426911,go-nogo,001,28,
logos/1.jpg,properties1.xlsx,frogs/ab27.jpg,0,0,400,l,0,1,1,0,0,85,85,26,,,['l'],0,[0.18350436992477626],2018_Jul_09_1259,60.1833426911,go-nogo,001,28,
logos/1.jpg,properties1.xlsx,frogs/ab62.jpg,0,0,400,l,0,1,1,0,0,86,86,60,,,['l'],0,[0.30090607010788517],2018_Jul_09_1259,60.1833426911,go-nogo,001,28,
logos/1.jpg,properties1.xlsx,frogs/ab55.jpg,0,0,400,l,0,1,1,0,0,87,87,54,,,['l'],0,[0.017502450491519994],2018_Jul_09_1259,60.1833426911,go-nogo,001,28,
logos/1.jpg,properties1.xlsx,frogs/ab77.jpg,0,0,400,l,0,1,1,0,0,88,88,75,,,['l'],0,[0.7006270867568674],2018_Jul_09_1259,60.1833426911,go-nogo,001,28,
logos/1.jpg,properties1.xlsx,frogs/ab25.jpg,0,0,400,l,0,1,1,0,0,89,89,24,,,['l'],0,[0.03412881134499912],2018_Jul_09_1259,60.1833426911,go-nogo,001,28,
logos/1.jpg,properties1.xlsx,,,,,,0,1,1,0,,,,,,,,,,2018_Jul_09_1259,60.1833426911,go-nogo,001,28,
logos/3.jpg,properties3.xlsx,frogs/ab5.jpg,0,0,400,l,0,2,2,2,0,0,0,4,space,8.12795289141,['l'],0,[0.30114159030745213],2018_Jul_09_1259,60.1833426911,go-nogo,001,28,
logos/3.jpg,properties3.xlsx,frogs/ab55.jpg,0,0,400,l,0,2,2,2,0,1,1,54,,,['l'],0,[0.3341525340329099],2018_Jul_09_1259,60.1833426911,go-nogo,001,28,
logos/3.jpg,properties3.xlsx,frogs/ab66.jpg,0,0,400,l,0,2,2,2,0,2,2,64,,,['l'],0,[0.7331658523016813],2018_Jul_09_1259,60.1833426911,go-nogo,001,28,
logos/3.jpg,properties3.xlsx,frogs/ab42.jpg,0,0,400,l,0,2,2,2,0,3,3,41,,,['l'],0,[0.3164765722831362],2018_Jul_09_1259,60.1833426911,go-nogo,001,28,
logos/3.jpg,properties3.xlsx,frogs/ab24.jpg,0,0,400,l,0,2,2,2,0,4,4,23,,,['l'],0,[0.3009464612532611],2018_Jul_09_1259,60.1833426911,go-nogo,001,28,
logos/3.jpg,properties3.xlsx,frogs/ab9.jpg,0,0,400,l,0,2,2,2,0,5,5,8,,,['l'],0,[0.45106726491030713],2018_Jul_09_1259,60.1833426911,go-nogo,001,28,
logos/3.jpg,properties3.xlsx,frogs/ab62.jpg,0,0,400,l,0,2,2,2,0,6,6,60,,,['l'],0,[0.45072650017573324],2018_Jul_09_1259,60.1833426911,go-nogo,001,28,
logos/3.jpg,properties3.xlsx,frogs/ab73.jpg,0,0,400,l,0,2,2,2,0,7,7,71,,,['l'],0,[0.31757623544217495],2018_Jul_09_1259,60.1833426911,go-nogo,001,28,
logos/3.jpg,properties3.xlsx,frogs/ab57.jpg,0,0,400,l,0,2,2,2,0,8,8,56,,,['l'],0,[0.36763110482388583],2018_Jul_09_1259,60.1833426911,go-nogo,001,28,
logos/3.jpg,properties3.xlsx,frogs/ab32.jpg,0,0,400,l,0,2,2,2,0,9,9,31,,,['l'],0,[0.3173822441658558],2018_Jul_09_1259,60.1833426911,go-nogo,001,28,
logos/3.jpg,properties3.xlsx,frogs/ab80.jpg,0,0,400,l,0,2,2,2,0,10,10,78,,,['l'],0,[0.3009356523543829],2018_Jul_09_1259,60.1833426911,go-nogo,001,28,
logos/3.jpg,properties3.xlsx,frogs/ab78.jpg,0,0,400,l,0,2,2,2,0,11,11,76,,,['l'],0,[0.3174829375857371],2018_Jul_09_1259,60.1833426911,go-nogo,001,28,
logos/3.jpg,properties3.xlsx,logos/3.jpg,0,0,400,a,0,2,2,2,0,12,12,81,,,['a'],0,[0.5341347846824647],2018_Jul_09_1259,60.1833426911,go-nogo,001,28,
logos/3.jpg,properties3.xlsx,frogs/ab75.jpg,0,0,400,l,0,2,2,2,0,13,13,73,,,['l'],0,[0.050965092377737164],2018_Jul_09_1259,60.1833426911,go-nogo,001,28,
logos/3.jpg,properties3.xlsx,frogs/ab22.jpg,0,0,400,l,0,2,2,2,0,14,14,21,,,['l'],0,[0.08421326297320775],2018_Jul_09_1259,60.1833426911,go-nogo,001,28,
logos/3.jpg,properties3.xlsx,frogs/ab65.jpg,0,0,400,l,0,2,2,2,0,15,15,63,,,['l'],0,[0.7673248147839331],2018_Jul_09_1259,60.1833426911,go-nogo,001,28,
logos/3.jpg,properties3.xlsx,frogs/ab3.jpg,0,0,400,l,0,2,2,2,0,16,16,2,,,['l'],0,[0.36753325585050334],2018_Jul_09_1259,60.1833426911,go-nogo,001,28,
logos/3.jpg,properties3.xlsx,frogs/ab60.jpg,0,0,400,l,0,2,2,2,0,17,17,58,,,['l'],0,[0.3177309733509901],2018_Jul_09_1259,60.1833426911,go-nogo,001,28,
logos/3.jpg,properties3.xlsx,frogs/ab45.jpg,0,0,400,l,0,2,2,2,0,18,18,44,,,['l'],0,[0.3175927332358697],2018_Jul_09_1259,60.1833426911,go-nogo,001,28,
logos/3.jpg,properties3.xlsx,frogs/ab30.jpg,0,0,400,l,0,2,2,2,0,19,19,29,,,['l'],0,[0.23505484946872457],2018_Jul_09_1259,60.1833426911,go-nogo,001,28,
logos/3.jpg,properties3.xlsx,logos/3.jpg,0,0,400,a,0,2,2,2,0,20,20,85,,,['a'],0,[0.3171672039825353],2018_Jul_09_1259,60.1833426911,go-nogo,001,28,
logos/3.jpg,properties3.xlsx,frogs/ab7.jpg,0,0,400,l,0,2,2,2,0,21,21,6,,,['l'],0,[0.20023426864463545],2018_Jul_09_1259,60.1833426911,go-nogo,001,28,
logos/3.jpg,properties3.xlsx,frogs/ab49.jpg,0,0,400,l,0,2,2,2,0,22,22,48,,,['l'],0,[0.11755643809192406],2018_Jul_09_1259,60.1833426911,go-nogo,001,28,
logos/3.jpg,properties3.xlsx,frogs/ab26.jpg,0,0,400,l,0,2,2,2,0,23,23,25,,,['l'],0,[0.38486333286164154],2018_Jul_09_1259,60.1833426911,go-nogo,001,28,
logos/3.jpg,properties3.xlsx,frogs/ab61.jpg,0,0,400,l,0,2,2,2,0,24,24,59,,,['l'],0,[0.33416732515615877],2018_Jul_09_1259,60.1833426911,go-nogo,001,28,
logos/3.jpg,properties3.xlsx,frogs/ab34.jpg,0,0,400,l,0,2,2,2,0,25,25,33,,,['l'],0,[0.3342663119074132],2018_Jul_09_1259,60.1833426911,go-nogo,001,28,
logos/3.jpg,properties3.xlsx,frogs/ab46.jpg,0,0,400,l,0,2,2,2,0,26,26,45,,,['l'],0,[1.2503938136687793],2018_Jul_09_1259,60.1833426911,go-nogo,001,28,
logos/3.jpg,properties3.xlsx,frogs/ab76.jpg,0,0,400,l,0,2,2,2,0,27,27,74,,,['l'],0,[0.0011172987324243877],2018_Jul_09_1259,60.1833426911,go-nogo,001,28,
logos/3.jpg,properties3.xlsx,frogs/ab52.jpg,0,0,400,l,0,2,2,2,0,28,28,51,,,['l'],0,[0.15210964091238566],2018_Jul_09_1259,60.1833426911,go-nogo,001,28,
logos/3.jpg,properties3.xlsx,frogs/ab50.jpg,0,0,400,l,0,2,2,2,0,29,29,49,,,['l'],0,[0.8675426425252226],2018_Jul_09_1259,60.1833426911,go-nogo,001,28,
logos/3.jpg,properties3.xlsx,logos/3.jpg,0,0,400,a,0,2,2,2,0,30,30,83,,,['a'],0,[0.38418578561504546],2018_Jul_09_1259,60.1833426911,go-nogo,001,28,
logos/3.jpg,properties3.xlsx,frogs/ab79.jpg,0,0,400,l,0,2,2,2,0,31,31,77,,,['l'],0,[0.10119176635089389],2018_Jul_09_1259,60.1833426911,go-nogo,001,28,
logos/3.jpg,properties3.xlsx,frogs/ab71.jpg,0,0,400,l,0,2,2,2,0,32,32,69,,,['l'],0,[0.4341098104396224],2018_Jul_09_1259,60.1833426911,go-nogo,001,28,
logos/3.jpg,properties3.xlsx,frogs/ab67.jpg,0,0,400,l,0,2,2,2,0,33,33,65,,,['l'],0,[0.16752540517700254],2018_Jul_09_1259,60.1833426911,go-nogo,001,28,
logos/3.jpg,properties3.xlsx,frogs/ab4.jpg,0,0,400,l,0,2,2,2,0,34,34,3,,,['l'],0,[0.18436225510049553],2018_Jul_09_1259,60.1833426911,go-nogo,001,28,
logos/3.jpg,properties3.xlsx,logos/3.jpg,0,0,400,a,0,2,2,2,0,35,35,84,,,['a'],0,[0.28439974490902387],2018_Jul_09_1259,60.1833426911,go-nogo,001,28,
logos/3.jpg,properties3.xlsx,frogs/ab51.jpg,0,0,400,l,0,2,2,2,0,36,36,50,,,['l'],0,[0.6674158939731569],2018_Jul_09_1259,60.1833426911,go-nogo,001,28,
logos/3.jpg,properties3.xlsx,frogs/ab8.jpg,0,0,400,l,0,2,2,2,0,37,37,7,,,['l'],0,[0.9339132591612724],2018_Jul_09_1259,60.1833426911,go-nogo,001,28,
logos/3.jpg,properties3.xlsx,frogs/ab36.jpg,0,0,400,l,0,2,2,2,0,38,38,35,,,['l'],0,[0.05116591032856377],2018_Jul_09_1259,60.1833426911,go-nogo,001,28,
logos/3.jpg,properties3.xlsx,frogs/ab14.jpg,0,0,400,l,0,2,2,2,0,39,39,13,,,['l'],0,[0.01765377506308141],2018_Jul_09_1259,60.1833426911,go-nogo,001,28,
logos/3.jpg,properties3.xlsx,frogs/ab19.jpg,0,0,400,l,0,2,2,2,0,40,40,18,,,['l'],0,[0.050944612361490726],2018_Jul_09_1259,60.1833426911,go-nogo,001,28,
logos/3.jpg,properties3.xlsx,frogs/ab53.jpg,0,0,400,l,0,2,2,2,0,41,41,52,,,['l'],0,[0.6505323951205355],2018_Jul_09_1259,60.1833426911,go-nogo,001,28,
logos/3.jpg,properties3.xlsx,logos/3.jpg,0,0,400,a,0,2,2,2,0,42,42,80,,,['a'],0,[0.15095763992940192],2018_Jul_09_1259,60.1833426911,go-nogo,001,28,
logos/3.jpg,properties3.xlsx,frogs/ab13.jpg,0,0,400,l,0,2,2,2,0,43,43,12,,,['l'],0,[0.05098727906624845],2018_Jul_09_1259,60.1833426911,go-nogo,001,28,
logos/3.jpg,properties3.xlsx,frogs/ab21.jpg,0,0,400,l,0,2,2,2,0,44,44,20,,,['l'],0,[0.05033476295102446],2018_Jul_09_1259,60.1833426911,go-nogo,001,28,
logos/3.jpg,properties3.xlsx,frogs/ab56.jpg,0,0,400,l,0,2,2,2,0,45,45,55,,,['l'],0,[0.1345047903341765],2018_Jul_09_1259,60.1833426911,go-nogo,001,28,
logos/3.jpg,properties3.xlsx,frogs/ab16.jpg,0,0,400,l,0,2,2,2,0,46,46,15,,,['l'],0,[0.15112204895922332],2018_Jul_09_1259,60.1833426911,go-nogo,001,28,
logos/3.jpg,properties3.xlsx,frogs/ab33.jpg,0,0,400,l,0,2,2,2,0,47,47,32,,,['l'],0,[0.05082343892536301],2018_Jul_09_1259,60.1833426911,go-nogo,001,28,
logos/3.jpg,properties3.xlsx,frogs/ab64.jpg,0,0,400,l,0,2,2,2,0,48,48,62,,,['l'],0,[2.916327750821438],2018_Jul_09_1259,60.1833426911,go-nogo,001,28,
logos/3.jpg,properties3.xlsx,logos/3.jpg,0,0,400,a,0,2,2,2,0,49,49,86,,,['a'],0,[0.06771945334185148],2018_Jul_09_1259,60.1833426911,go-nogo,001,28,
logos/3.jpg,properties3.xlsx,frogs/ab11.jpg,0,0,400,l,0,2,2,2,0,50,50,10,,,['l'],0,[0.6173297356781404],2018_Jul_09_1259,60.1833426911,go-nogo,001,28,
logos/3.jpg,properties3.xlsx,frogs/ab72.jpg,0,0,400,l,0,2,2,2,0,51,51,70,,,['l'],0,[0.8665055571964331],2018_Jul_09_1259,60.1833426911,go-nogo,001,28,
logos/3.jpg,properties3.xlsx,frogs/ab15.jpg,0,0,400,l,0,2,2,2,0,52,52,14,,,['l'],0,[0.4508271935937955],2018_Jul_09_1259,60.1833426911,go-nogo,001,28,
logos/3.jpg,properties3.xlsx,logos/3.jpg,0,0,400,a,0,2,2,2,0,53,53,87,,,['a'],0,[0.26756175720765896],2018_Jul_09_1259,60.1833426911,go-nogo,001,28,
logos/3.jpg,properties3.xlsx,frogs/ab54.jpg,0,0,400,l,0,2,2,2,0,54,54,53,,,['l'],0,[0.26761125058328616],2018_Jul_09_1259,60.1833426911,go-nogo,001,28,
logos/3.jpg,properties3.xlsx,frogs/ab40.jpg,0,0,400,l,0,2,2,2,0,55,55,39,,,['l'],0,[0.084314525280206],2018_Jul_09_1259,60.1833426911,go-nogo,001,28,
logos/3.jpg,properties3.xlsx,frogs/ab1.jpg,0,0,400,l,0,2,2,2,0,56,56,0,,,['l'],0,[0.017793152961530723],2018_Jul_09_1259,60.1833426911,go-nogo,001,28,
logos/3.jpg,properties3.xlsx,frogs/ab20.jpg,0,0,400,l,0,2,2,2,0,57,57,19,,,['l'],0,[0.017748779589965125],2018_Jul_09_1259,60.1833426911,go-nogo,001,28,
logos/3.jpg,properties3.xlsx,frogs/ab28.jpg,0,0,400,l,0,2,2,2,0,58,58,27,,,['l'],0,[0.18417167715961114],2018_Jul_09_1259,60.1833426911,go-nogo,001,28,
logos/3.jpg,properties3.xlsx,logos/3.jpg,0,0,400,a,0,2,2,2,0,59,59,89,,,['a'],0,[0.06736389748402871],2018_Jul_09_1259,60.1833426911,go-nogo,001,28,
logos/3.jpg,properties3.xlsx,frogs/ab10.jpg,0,0,400,l,0,2,2,2,0,60,60,9,,,['l'],0,[2.3656803831581783],2018_Jul_09_1259,60.1833426911,go-nogo,001,28,
logos/3.jpg,properties3.xlsx,frogs/ab29.jpg,0,0,400,l,0,2,2,2,0,61,61,28,,,['l'],0,[0.10098753506463254],2018_Jul_09_1259,60.1833426911,go-nogo,001,28,
logos/3.jpg,properties3.xlsx,frogs/ab35.jpg,0,0,400,l,0,2,2,2,0,62,62,34,,,['l'],0,[0.08435719198496372],2018_Jul_09_1259,60.1833426911,go-nogo,001,28,
logos/3.jpg,properties3.xlsx,frogs/ab63.jpg,0,0,400,l,0,2,2,2,0,63,63,61,,,['l'],0,[0.4008656220721605],2018_Jul_09_1259,60.1833426911,go-nogo,001,28,
logos/3.jpg,properties3.xlsx,frogs/ab74.jpg,0,0,400,l,0,2,2,2,0,64,64,72,,,['l'],0,[0.28403565570988576],2018_Jul_09_1259,60.1833426911,go-nogo,001,28,
logos/3.jpg,properties3.xlsx,frogs/ab18.jpg,0,0,400,l,0,2,2,2,0,65,65,17,,,['l'],0,[0.2176030301307037],2018_Jul_09_1259,60.1833426911,go-nogo,001,28,
logos/3.jpg,properties3.xlsx,frogs/ab47.jpg,0,0,400,l,0,2,2,2,0,66,66,46,,,['l'],0,[0.23422711543025798],2018_Jul_09_1259,60.1833426911,go-nogo,001,28,
logos/3.jpg,properties3.xlsx,frogs/ab6.jpg,0,0,400,l,0,2,2,2,0,67,67,5,,,['l'],0,[0.01786710858141305],2018_Jul_09_1259,60.1833426911,go-nogo,001,28,
logos/3.jpg,properties3.xlsx,frogs/ab39.jpg,0,0,400,l,0,2,2,2,0,68,68,38,,,['l'],0,[0.7674055970746849],2018_Jul_09_1259,60.1833426911,go-nogo,001,28,
logos/3.jpg,properties3.xlsx,frogs/ab38.jpg,0,0,400,l,0,2,2,2,0,69,69,37,,,['l'],0,[0.2676749661932263],2018_Jul_09_1259,60.1833426911,go-nogo,001,28,
logos/3.jpg,properties3.xlsx,frogs/ab58.jpg,0,0,400,l,0,2,2,2,0,70,70,57,,,['l'],0,[0.3675662514342548],2018_Jul_09_1259,60.1833426911,go-nogo,001,28,
logos/3.jpg,properties3.xlsx,logos/3.jpg,0,0,400,a,0,2,2,2,0,71,71,88,,,['a'],0,[0.2009266070126614],2018_Jul_09_1259,60.1833426911,go-nogo,001,28,
logos/3.jpg,properties3.xlsx,frogs/ab25.jpg,0,0,400,l,0,2,2,2,0,72,72,24,,,['l'],0,[0.134289750149037],2018_Jul_09_1259,60.1833426911,go-nogo,001,28,
logos/3.jpg,properties3.xlsx,logos/3.jpg,0,0,400,a,0,2,2,2,0,73,73,82,,,['a'],0,[0.051984542138598044],2018_Jul_09_1259,60.1833426911,go-nogo,001,28,
logos/3.jpg,properties3.xlsx,frogs/ab81.jpg,0,0,400,l,0,2,2,2,0,74,74,79,,,['l'],0,[0.733834866205143],2018_Jul_09_1259,60.1833426911,go-nogo,001,28,
logos/3.jpg,properties3.xlsx,frogs/ab41.jpg,0,0,400,l,0,2,2,2,0,75,75,40,,,['l'],0,[0.33391701383152395],2018_Jul_09_1259,60.1833426911,go-nogo,001,28,
logos/3.jpg,properties3.xlsx,frogs/ab69.jpg,0,0,400,l,0,2,2,2,0,76,76,67,,,['l'],0,[0.9006059240728064],2018_Jul_09_1259,60.1833426911,go-nogo,001,28,
logos/3.jpg,properties3.xlsx,frogs/ab48.jpg,0,0,400,l,0,2,2,2,0,77,77,47,,,['l'],0,[0.3008833145322569],2018_Jul_09_1259,60.1833426911,go-nogo,001,28,
logos/3.jpg,properties3.xlsx,frogs/ab68.jpg,0,0,400,l,0,2,2,2,0,78,78,66,,,['l'],0,[1.6168410597038019],2018_Jul_09_1259,60.1833426911,go-nogo,001,28,
logos/3.jpg,properties3.xlsx,frogs/ab31.jpg,0,0,400,l,0,2,2,2,0,79,79,30,,,['l'],0,[0.2834371840890526],2018_Jul_09_1259,60.1833426911,go-nogo,001,28,
logos/3.jpg,properties3.xlsx,frogs/ab44.jpg,0,0,400,l,0,2,2,2,0,80,80,43,,,['l'],0,[0.2342606799029454],2018_Jul_09_1259,60.1833426911,go-nogo,001,28,
logos/3.jpg,properties3.xlsx,frogs/ab12.jpg,0,0,400,l,0,2,2,2,0,81,81,11,,,['l'],0,[0.267743801809047],2018_Jul_09_1259,60.1833426911,go-nogo,001,28,
logos/3.jpg,properties3.xlsx,frogs/ab17.jpg,0,0,400,l,0,2,2,2,0,82,82,16,,,['l'],0,[0.33421340519635123],2018_Jul_09_1259,60.1833426911,go-nogo,001,28,
logos/3.jpg,properties3.xlsx,frogs/ab2.jpg,0,0,400,l,0,2,2,2,0,83,83,1,,,['l'],0,[0.3174408397717343],2018_Jul_09_1259,60.1833426911,go-nogo,001,28,
logos/3.jpg,properties3.xlsx,frogs/ab77.jpg,0,0,400,l,0,2,2,2,0,84,84,75,,,['l'],0,[0.30099936796432303],2018_Jul_09_1259,60.1833426911,go-nogo,001,28,
logos/3.jpg,properties3.xlsx,frogs/ab37.jpg,0,0,400,l,0,2,2,2,0,85,85,36,,,['l'],0,[0.3176097999148624],2018_Jul_09_1259,60.1833426911,go-nogo,001,28,
logos/3.jpg,properties3.xlsx,frogs/ab70.jpg,0,0,400,l,0,2,2,2,0,86,86,68,,,['l'],0,[0.2840532912796334],2018_Jul_09_1259,60.1833426911,go-nogo,001,28,
logos/3.jpg,properties3.xlsx,frogs/ab23.jpg,0,0,400,l,0,2,2,2,0,87,87,22,,,['l'],0,[0.3341855296148424],2018_Jul_09_1259,60.1833426911,go-nogo,001,28,
logos/3.jpg,properties3.xlsx,frogs/ab43.jpg,0,0,400,l,0,2,2,2,0,88,88,42,,,['l'],0,[0.36747978024868644],2018_Jul_09_1259,60.1833426911,go-nogo,001,28,
logos/3.jpg,properties3.xlsx,frogs/ab27.jpg,0,0,400,l,0,2,2,2,0,89,89,26,,,['l'],0,[0.3505479258019477],2018_Jul_09_1259,60.1833426911,go-nogo,001,28,
logos/3.jpg,properties3.xlsx,,,,,,0,2,2,2,,,,,,,,,,2018_Jul_09_1259,60.1833426911,go-nogo,001,28,
logos/2.jpg,properties2.xlsx,frogs/ab38.jpg,0,0,400,l,0,3,3,1,0,0,0,37,space,2.0100653597,['l'],0,[0.6009656328242272],2018_Jul_09_1259,60.1833426911,go-nogo,001,28,
logos/2.jpg,properties2.xlsx,frogs/ab46.jpg,0,0,400,l,0,3,3,1,0,1,1,45,,,['l'],0,[0.23433065329663805],2018_Jul_09_1259,60.1833426911,go-nogo,001,28,
logos/2.jpg,properties2.xlsx,frogs/ab21.jpg,0,0,400,l,0,3,3,1,0,2,2,20,,,['l'],0,[0.2509217430088029],2018_Jul_09_1259,60.1833426911,go-nogo,001,28,
logos/2.jpg,properties2.xlsx,frogs/ab37.jpg,0,0,400,l,0,3,3,1,0,3,3,36,,,['l'],0,[0.2668051343407569],2018_Jul_09_1259,60.1833426911,go-nogo,001,28,
logos/2.jpg,properties2.xlsx,frogs/ab61.jpg,0,0,400,l,0,3,3,1,0,4,4,59,,,['l'],0,[0.20060916674265172],2018_Jul_09_1259,60.1833426911,go-nogo,001,28,
logos/2.jpg,properties2.xlsx,frogs/ab80.jpg,0,0,400,l,0,3,3,1,0,5,5,78,,,['l'],0,[0.1502675771171198],2018_Jul_09_1259,60.1833426911,go-nogo,001,28,
logos/2.jpg,properties2.xlsx,frogs/ab34.jpg,0,0,400,l,0,3,3,1,0,6,6,33,,,['l'],0,[0.18427180168873747],2018_Jul_09_1259,60.1833426911,go-nogo,001,28,
logos/2.jpg,properties2.xlsx,frogs/ab44.jpg,0,0,400,l,0,3,3,1,0,7,7,43,,,['l'],0,[0.33409450731596735],2018_Jul_09_1259,60.1833426911,go-nogo,001,28,
logos/2.jpg,properties2.xlsx,frogs/ab27.jpg,0,0,400,l,0,3,3,1,0,8,8,26,,,['l'],0,[0.28401119346744963],2018_Jul_09_1259,60.1833426911,go-nogo,001,28,
logos/2.jpg,properties2.xlsx,frogs/ab7.jpg,0,0,400,l,0,3,3,1,0,9,9,6,,,['l'],0,[0.30020519839854387],2018_Jul_09_1259,60.1833426911,go-nogo,001,28,
logos/2.jpg,properties2.xlsx,frogs/ab56.jpg,0,0,400,l,0,3,3,1,0,10,10,55,,,['l'],0,[0.4007529819755291],2018_Jul_09_1259,60.1833426911,go-nogo,001,28,
logos/2.jpg,properties2.xlsx,frogs/ab8.jpg,0,0,400,l,0,3,3,1,0,11,11,7,,,['l'],0,[0.2842831225880218],2018_Jul_09_1259,60.1833426911,go-nogo,001,28,
logos/2.jpg,properties2.xlsx,frogs/ab29.jpg,0,0,400,l,0,3,3,1,0,12,12,28,,,['l'],0,[0.30090379454850336],2018_Jul_09_1259,60.1833426911,go-nogo,001,28,
logos/2.jpg,properties2.xlsx,frogs/ab42.jpg,0,0,400,l,0,3,3,1,0,13,13,41,,,['l'],0,[0.2841653624891478],2018_Jul_09_1259,60.1833426911,go-nogo,001,28,
logos/2.jpg,properties2.xlsx,frogs/ab24.jpg,0,0,400,l,0,3,3,1,0,14,14,23,,,['l'],0,[0.3499323874984839],2018_Jul_09_1259,60.1833426911,go-nogo,001,28,
logos/2.jpg,properties2.xlsx,frogs/ab60.jpg,0,0,400,l,0,3,3,1,0,15,15,58,,,['l'],0,[0.2852399945168145],2018_Jul_09_1259,60.1833426911,go-nogo,001,28,
logos/2.jpg,properties2.xlsx,frogs/ab13.jpg,0,0,400,l,0,3,3,1,0,16,16,12,,,['l'],0,[0.31752787984623865],2018_Jul_09_1259,60.1833426911,go-nogo,001,28,
logos/2.jpg,properties2.xlsx,frogs/ab19.jpg,0,0,400,l,0,3,3,1,0,17,17,18,,,['l'],0,[0.2343664933268883],2018_Jul_09_1259,60.1833426911,go-nogo,001,28,
logos/2.jpg,properties2.xlsx,frogs/ab25.jpg,0,0,400,l,0,3,3,1,0,18,18,24,,,['l'],0,[0.3343237697336008],2018_Jul_09_1259,60.1833426911,go-nogo,001,28,
logos/2.jpg,properties2.xlsx,frogs/ab16.jpg,0,0,400,l,0,3,3,1,0,19,19,15,,,['l'],0,[0.26739848595934745],2018_Jul_09_1259,60.1833426911,go-nogo,001,28,
logos/2.jpg,properties2.xlsx,frogs/ab39.jpg,0,0,400,l,0,3,3,1,0,20,20,38,,,['l'],0,[0.2675048682704073],2018_Jul_09_1259,60.1833426911,go-nogo,001,28,
logos/2.jpg,properties2.xlsx,frogs/ab28.jpg,0,0,400,l,0,3,3,1,0,21,21,27,,,['l'],0,[0.2501645512511459],2018_Jul_09_1259,60.1833426911,go-nogo,001,28,
logos/2.jpg,properties2.xlsx,logos/2.jpg,0,0,400,a,0,3,3,1,0,22,22,84,,,['a'],0,[0.3671998866775539],2018_Jul_09_1259,60.1833426911,go-nogo,001,28,
logos/2.jpg,properties2.xlsx,frogs/ab72.jpg,0,0,400,l,0,3,3,1,0,23,23,70,,,['l'],0,[0.3508693482963281],2018_Jul_09_1259,60.1833426911,go-nogo,001,28,
logos/2.jpg,properties2.xlsx,frogs/ab4.jpg,0,0,400,l,0,3,3,1,0,24,24,3,,,['l'],0,[0.31671436804208497],2018_Jul_09_1259,60.1833426911,go-nogo,001,28,
logos/2.jpg,properties2.xlsx,frogs/ab43.jpg,0,0,400,l,0,3,3,1,0,25,25,42,,,['l'],0,[0.33432149417603796],2018_Jul_09_1259,60.1833426911,go-nogo,001,28,
logos/2.jpg,properties2.xlsx,frogs/ab12.jpg,0,0,400,l,0,3,3,1,0,26,26,11,,,['l'],0,[0.38383876309853804],2018_Jul_09_1259,60.1833426911,go-nogo,001,28,
logos/2.jpg,properties2.xlsx,frogs/ab50.jpg,0,0,400,l,0,3,3,1,0,27,27,49,,,['l'],0,[0.2840089179098868],2018_Jul_09_1259,60.1833426911,go-nogo,001,28,
logos/2.jpg,properties2.xlsx,logos/2.jpg,0,0,400,a,0,3,3,1,0,28,28,87,,,['a'],0,[0.3009174478938803],2018_Jul_09_1259,60.1833426911,go-nogo,001,28,
logos/2.jpg,properties2.xlsx,frogs/ab77.jpg,0,0,400,l,0,3,3,1,0,29,29,75,,,['l'],0,[0.31738053749722894],2018_Jul_09_1259,60.1833426911,go-nogo,001,28,
logos/2.jpg,properties2.xlsx,frogs/ab47.jpg,0,0,400,l,0,3,3,1,0,30,30,46,,,['l'],0,[0.3677244026803237],2018_Jul_09_1259,60.1833426911,go-nogo,001,28,
logos/2.jpg,properties2.xlsx,frogs/ab55.jpg,0,0,400,l,0,3,3,1,0,31,31,54,,,['l'],0,[0.28444923828647006],2018_Jul_09_1259,60.1833426911,go-nogo,001,28,
logos/2.jpg,properties2.xlsx,frogs/ab18.jpg,0,0,400,l,0,3,3,1,0,32,32,17,,,['l'],0,[0.26762035281353747],2018_Jul_09_1259,60.1833426911,go-nogo,001,28,
logos/2.jpg,properties2.xlsx,frogs/ab9.jpg,0,0,400,l,0,3,3,1,0,33,33,8,,,['l'],0,[0.05100207018949732],2018_Jul_09_1259,60.1833426911,go-nogo,001,28,
logos/2.jpg,properties2.xlsx,frogs/ab45.jpg,0,0,400,l,0,3,3,1,0,34,34,44,,,['l'],0,[0.35072257483989233],2018_Jul_09_1259,60.1833426911,go-nogo,001,28,
logos/2.jpg,properties2.xlsx,frogs/ab64.jpg,0,0,400,l,0,3,3,1,0,35,35,62,,,['l'],0,[0.4840389552682609],2018_Jul_09_1259,60.1833426911,go-nogo,001,28,
logos/2.jpg,properties2.xlsx,frogs/ab75.jpg,0,0,400,l,0,3,3,1,0,36,36,73,,,['l'],0,[0.4175181518385216],2018_Jul_09_1259,60.1833426911,go-nogo,001,28,
logos/2.jpg,properties2.xlsx,frogs/ab49.jpg,0,0,400,l,0,3,3,1,0,37,37,48,,,['l'],0,[0.31758249322592746],2018_Jul_09_1259,60.1833426911,go-nogo,001,28,
logos/2.jpg,properties2.xlsx,frogs/ab33.jpg,0,0,400,l,0,3,3,1,0,38,38,32,,,['l'],0,[0.4175221340628923],2018_Jul_09_1259,60.1833426911,go-nogo,001,28,
logos/2.jpg,properties2.xlsx,frogs/ab36.jpg,0,0,400,l,0,3,3,1,0,39,39,35,,,['l'],0,[0.40083091982160113],2018_Jul_09_1259,60.1833426911,go-nogo,001,28,
logos/2.jpg,properties2.xlsx,frogs/ab71.jpg,0,0,400,l,0,3,3,1,0,40,40,69,,,['l'],0,[0.38415677225930267],2018_Jul_09_1259,60.1833426911,go-nogo,001,28,
logos/2.jpg,properties2.xlsx,logos/2.jpg,0,0,400,a,0,3,3,1,0,41,41,89,,,['l'],0,[0.4009333199082903],2018_Jul_09_1259,60.1833426911,go-nogo,001,28,
logos/2.jpg,properties2.xlsx,frogs/ab58.jpg,0,0,400,l,0,3,3,1,0,42,42,57,,,['l'],0,[0.0510441680016811],2018_Jul_09_1259,60.1833426911,go-nogo,001,28,
logos/2.jpg,properties2.xlsx,frogs/ab53.jpg,0,0,400,l,0,3,3,1,0,43,43,52,,,['l'],0,[0.5000310044706566],2018_Jul_09_1259,60.1833426911,go-nogo,001,28,
logos/2.jpg,properties2.xlsx,frogs/ab26.jpg,0,0,400,l,0,3,3,1,0,44,44,25,,,['l'],0,[0.4008246620360296],2018_Jul_09_1259,60.1833426911,go-nogo,001,28,
logos/2.jpg,properties2.xlsx,frogs/ab66.jpg,0,0,400,l,0,3,3,1,0,45,45,64,,,['l'],0,[0.4340921748698747],2018_Jul_09_1259,60.1833426911,go-nogo,001,28,
logos/2.jpg,properties2.xlsx,logos/2.jpg,0,0,400,a,0,3,3,1,0,46,46,86,,,['a'],0,[0.016969970036370796],2018_Jul_09_1259,60.1833426911,go-nogo,001,28,
logos/2.jpg,properties2.xlsx,frogs/ab63.jpg,0,0,400,l,0,3,3,1,0,47,47,61,,,['l'],0,[0.4339516591935535],2018_Jul_09_1259,60.1833426911,go-nogo,001,28,
logos/2.jpg,properties2.xlsx,frogs/ab67.jpg,0,0,400,l,0,3,3,1,0,48,48,65,,,['l'],0,[0.4008394531610975],2018_Jul_09_1259,60.1833426911,go-nogo,001,28,
logos/2.jpg,properties2.xlsx,frogs/ab74.jpg,0,0,400,l,0,3,3,1,0,49,49,72,,,['l'],0,[0.3676237092622614],2018_Jul_09_1259,60.1833426911,go-nogo,001,28,
logos/2.jpg,properties2.xlsx,frogs/ab70.jpg,0,0,400,l,0,3,3,1,0,50,50,68,,,['l'],0,[0.4009720043850393],2018_Jul_09_1259,60.1833426911,go-nogo,001,28,
logos/2.jpg,properties2.xlsx,frogs/ab54.jpg,0,0,400,l,0,3,3,1,0,51,51,53,,,['l'],0,[0.41748060513964447],2018_Jul_09_1259,60.1833426911,go-nogo,001,28,
logos/2.jpg,properties2.xlsx,frogs/ab65.jpg,0,0,400,l,0,3,3,1,0,52,52,63,,,['l'],0,[0.400623844087022],2018_Jul_09_1259,60.1833426911,go-nogo,001,28,
logos/2.jpg,properties2.xlsx,frogs/ab76.jpg,0,0,400,l,0,3,3,1,0,53,53,74,,,['l'],0,[0.38419488784711575],2018_Jul_09_1259,60.1833426911,go-nogo,001,28,
logos/2.jpg,properties2.xlsx,frogs/ab68.jpg,0,0,400,l,0,3,3,1,0,54,54,66,,,['l'],0,[0.41678656010117265],2018_Jul_09_1259,60.1833426911,go-nogo,001,28,
logos/2.jpg,properties2.xlsx,frogs/ab30.jpg,0,0,400,l,0,3,3,1,0,55,55,29,,,['l'],0,[0.3841903367319901],2018_Jul_09_1259,60.1833426911,go-nogo,001,28,
logos/2.jpg,properties2.xlsx,frogs/ab57.jpg,0,0,400,l,0,3,3,1,0,56,56,56,,,['l'],0,[0.5175527972005511],2018_Jul_09_1259,60.1833426911,go-nogo,001,28,
logos/2.jpg,properties2.xlsx,frogs/ab23.jpg,0,0,400,l,0,3,3,1,0,57,57,22,,,['l'],0,[0.4007791508865921],2018_Jul_09_1259,60.1833426911,go-nogo,001,28,
logos/2.jpg,properties2.xlsx,frogs/ab79.jpg,0,0,400,l,0,3,3,1,0,58,58,77,,,['l'],0,[0.4167666489738622],2018_Jul_09_1259,60.1833426911,go-nogo,001,28,
logos/2.jpg,properties2.xlsx,frogs/ab35.jpg,0,0,400,l,0,3,3,1,0,59,59,34,,,['l'],0,[0.3842688434651791],2018_Jul_09_1259,60.1833426911,go-nogo,001,28,
logos/2.jpg,properties2.xlsx,frogs/ab15.jpg,0,0,400,l,0,3,3,1,0,60,60,14,,,['l'],0,[0.3676134692523192],2018_Jul_09_1259,60.1833426911,go-nogo,001,28,
logos/2.jpg,properties2.xlsx,frogs/ab81.jpg,0,0,400,l,0,3,3,1,0,61,61,79,,,['l'],0,[0.36758786923019215],2018_Jul_09_1259,60.1833426911,go-nogo,001,28,
logos/2.jpg,properties2.xlsx,frogs/ab11.jpg,0,0,400,l,0,3,3,1,0,62,62,10,,,['l'],0,[0.40088155097510025],2018_Jul_09_1259,60.1833426911,go-nogo,001,28,
logos/2.jpg,properties2.xlsx,frogs/ab40.jpg,0,0,400,l,0,3,3,1,0,63,63,39,,,['l'],0,[0.3509671972697106],2018_Jul_09_1259,60.1833426911,go-nogo,001,28,
logos/2.jpg,properties2.xlsx,logos/2.jpg,0,0,400,a,0,3,3,1,0,64,64,83,,,['a'],0,[0.16720170712324034],2018_Jul_09_1259,60.1833426911,go-nogo,001,28,
logos/2.jpg,properties2.xlsx,frogs/ab2.jpg,0,0,400,l,0,3,3,1,0,65,65,1,,,['l'],0,[0.06752659984340426],2018_Jul_09_1259,60.1833426911,go-nogo,001,28,
logos/2.jpg,properties2.xlsx,frogs/ab6.jpg,0,0,400,l,0,3,3,1,0,66,66,5,,,['l'],0,[0.03417375360731967],2018_Jul_09_1259,60.1833426911,go-nogo,001,28,
logos/2.jpg,properties2.xlsx,frogs/ab73.jpg,0,0,400,l,0,3,3,1,0,67,67,71,,,['l'],0,[0.38447307475144044],2018_Jul_09_1259,60.1833426911,go-nogo,001,28,
logos/2.jpg,properties2.xlsx,logos/2.jpg,0,0,400,a,0,3,3,1,0,68,68,82,,,['l'],0,[1.8667518862948782],2018_Jul_09_1259,60.1833426911,go-nogo,001,28,
logos/2.jpg,properties2.xlsx,frogs/ab17.jpg,0,0,400,l,0,3,3,1,0,69,69,16,,,['l'],0,[0.16757262299506692],2018_Jul_09_1259,60.1833426911,go-nogo,001,28,
logos/2.jpg,properties2.xlsx,frogs/ab14.jpg,0,0,400,l,0,3,3,1,0,70,70,13,,,['l'],0,[0.48410096421139315],2018_Jul_09_1259,60.1833426911,go-nogo,001,28,
logos/2.jpg,properties2.xlsx,frogs/ab20.jpg,0,0,400,l,0,3,3,1,0,71,71,19,,,['l'],0,[0.617296740094389],2018_Jul_09_1259,60.1833426911,go-nogo,001,28,
logos/2.jpg,properties2.xlsx,frogs/ab22.jpg,0,0,400,l,0,3,3,1,0,72,72,21,,,['l'],0,[0.33418325405727956],2018_Jul_09_1259,60.1833426911,go-nogo,001,28,
logos/2.jpg,properties2.xlsx,frogs/ab69.jpg,0,0,400,l,0,3,3,1,0,73,73,67,,,['l'],0,[0.38421309230579936],2018_Jul_09_1259,60.1833426911,go-nogo,001,28,
logos/2.jpg,properties2.xlsx,logos/2.jpg,0,0,400,a,0,3,3,1,0,74,74,81,,,['l'],0,[1.3329009774097358],2018_Jul_09_1259,60.1833426911,go-nogo,001,28,
logos/2.jpg,properties2.xlsx,frogs/ab41.jpg,0,0,400,l,0,3,3,1,0,75,75,40,,,['l'],0,[0.13426187456934713],2018_Jul_09_1259,60.1833426911,go-nogo,001,28,
logos/2.jpg,properties2.xlsx,frogs/ab32.jpg,0,0,400,l,0,3,3,1,0,76,76,31,,,['l'],0,[0.4507566513129859],2018_Jul_09_1259,60.1833426911,go-nogo,001,28,
logos/2.jpg,properties2.xlsx,frogs/ab5.jpg,0,0,400,l,0,3,3,1,0,77,77,4,,,['l'],0,[0.3342776896934083],2018_Jul_09_1259,60.1833426911,go-nogo,001,28,
logos/2.jpg,properties2.xlsx,logos/2.jpg,0,0,400,a,0,3,3,1,0,78,78,88,,,['a'],0,[0.30083325226769375],2018_Jul_09_1259,60.1833426911,go-nogo,001,28,
logos/2.jpg,properties2.xlsx,frogs/ab10.jpg,0,0,400,l,0,3,3,1,0,79,79,9,,,['l'],0,[0.6340613410666265],2018_Jul_09_1259,60.1833426911,go-nogo,001,28,
logos/2.jpg,properties2.xlsx,frogs/ab51.jpg,0,0,400,l,0,3,3,1,0,80,80,50,,,['l'],0,[0.2675441216379113],2018_Jul_09_1259,60.1833426911,go-nogo,001,28,
logos/2.jpg,properties2.xlsx,logos/2.jpg,0,0,400,a,0,3,3,1,0,81,81,80,,,['a'],0,[0.1841511971415457],2018_Jul_09_1259,60.1833426911,go-nogo,001,28,
logos/2.jpg,properties2.xlsx,frogs/ab1.jpg,0,0,400,l,0,3,3,1,0,82,82,0,,,['l'],0,[0.8342176718651899],2018_Jul_09_1259,60.1833426911,go-nogo,001,28,
logos/2.jpg,properties2.xlsx,frogs/ab52.jpg,0,0,400,l,0,3,3,1,0,83,83,51,,,['l'],0,[0.25092856968149135],2018_Jul_09_1259,60.1833426911,go-nogo,001,28,
logos/2.jpg,properties2.xlsx,frogs/ab31.jpg,0,0,400,l,0,3,3,1,0,84,84,30,,,['l'],0,[0.4841538709224551],2018_Jul_09_1259,60.1833426911,go-nogo,001,28,
logos/2.jpg,properties2.xlsx,logos/2.jpg,0,0,400,a,0,3,3,1,0,85,85,85,,,['a'],0,[0.6506723419079208],2018_Jul_09_1259,60.1833426911,go-nogo,001,28,
logos/2.jpg,properties2.xlsx,frogs/ab48.jpg,0,0,400,l,0,3,3,1,0,86,86,47,,,['l'],0,[0.26753843274491373],2018_Jul_09_1259,60.1833426911,go-nogo,001,28,
logos/2.jpg,properties2.xlsx,frogs/ab62.jpg,0,0,400,l,0,3,3,1,0,87,87,60,,,['l'],0,[0.2341787598325027],2018_Jul_09_1259,60.1833426911,go-nogo,001,28,
logos/2.jpg,properties2.xlsx,frogs/ab78.jpg,0,0,400,l,0,3,3,1,0,88,88,76,,,['l'],0,[0.3341343295724073],2018_Jul_09_1259,60.1833426911,go-nogo,001,28,
logos/2.jpg,properties2.xlsx,frogs/ab3.jpg,0,0,400,l,0,3,3,1,0,89,89,2,,,['l'],0,[0.3009305323503213],2018_Jul_09_1259,60.1833426911,go-nogo,001,28,
logos/2.jpg,properties2.xlsx,,,,,,0,3,3,1,,,,,,,,,,2018_Jul_09_1259,60.1833426911,go-nogo,001,28,
