pix,source,image1,x,y,size,answer,trials_2.thisRepN,trials_2.thisTrialN,trials_2.thisN,trials_2.thisIndex,trials.thisRepN,trials.thisTrialN,trials.thisN,trials.thisIndex,key_resp_3.keys,key_resp_3.rt,key_resp_2.keys,key_resp_2.corr,key_resp_2.rt,date,frameRate,expName,session,participant,
logos/3.jpg,properties3.xlsx,frogs/ab72.jpg,0,0,400,l,0,0,0,2,0,0,0,70,space,16.4666189937,['l'],0,[0.8176225999268354],2018_Jul_09_1309,59.9960066624,go-nogo,001,29,
logos/3.jpg,properties3.xlsx,frogs/ab49.jpg,0,0,400,l,0,0,0,2,0,1,1,48,,,['l'],0,[2.699597965878638],2018_Jul_09_1309,59.9960066624,go-nogo,001,29,
logos/3.jpg,properties3.xlsx,frogs/ab32.jpg,0,0,400,l,0,0,0,2,0,2,2,31,,,['l'],0,[0.034348971534200246],2018_Jul_09_1309,59.9960066624,go-nogo,001,29,
logos/3.jpg,properties3.xlsx,frogs/ab31.jpg,0,0,400,l,0,0,0,2,0,3,3,30,,,['l'],0,[0.05096281682017434],2018_Jul_09_1309,59.9960066624,go-nogo,001,29,
logos/3.jpg,properties3.xlsx,frogs/ab29.jpg,0,0,400,l,0,0,0,2,0,4,4,28,,,['l'],0,[1.6182211853265471],2018_Jul_09_1309,59.9960066624,go-nogo,001,29,
logos/3.jpg,properties3.xlsx,frogs/ab35.jpg,0,0,400,l,0,0,0,2,0,5,5,34,,,['l'],0,[0.0017408014846296282],2018_Jul_09_1309,59.9960066624,go-nogo,001,29,
logos/3.jpg,properties3.xlsx,frogs/ab10.jpg,0,0,400,l,0,0,0,2,0,6,6,9,,,['l'],0,[0.7339093907139613],2018_Jul_09_1309,59.9960066624,go-nogo,001,29,
logos/3.jpg,properties3.xlsx,frogs/ab79.jpg,0,0,400,l,0,0,0,2,0,7,7,77,,,['l'],0,[0.9338711613490887],2018_Jul_09_1309,59.9960066624,go-nogo,001,29,
logos/3.jpg,properties3.xlsx,frogs/ab46.jpg,0,0,400,l,0,0,0,2,0,8,8,45,,,['l'],0,[0.48484507151260914],2018_Jul_09_1309,59.9960066624,go-nogo,001,29,
logos/3.jpg,properties3.xlsx,frogs/ab51.jpg,0,0,400,l,0,0,0,2,0,9,9,50,,,['l'],0,[0.4676105679172906],2018_Jul_09_1309,59.9960066624,go-nogo,001,29,
logos/3.jpg,properties3.xlsx,frogs/ab65.jpg,0,0,400,l,0,0,0,2,0,10,10,63,,,['l'],0,[0.0011008009405486519],2018_Jul_09_1309,59.9960066624,go-nogo,001,29,
logos/3.jpg,properties3.xlsx,logos/3.jpg,0,0,400,a,0,0,0,2,0,11,11,82,,,['a'],0,[0.06741794197296258],2018_Jul_09_1309,59.9960066624,go-nogo,001,29,
logos/3.jpg,properties3.xlsx,frogs/ab76.jpg,0,0,400,l,0,0,0,2,0,12,12,74,,,['l'],0,[0.21752679895507754],2018_Jul_09_1309,59.9960066624,go-nogo,001,29,
logos/3.jpg,properties3.xlsx,frogs/ab26.jpg,0,0,400,l,0,0,0,2,0,13,13,25,,,['l'],0,[1.317130795063349],2018_Jul_09_1309,59.9960066624,go-nogo,001,29,
logos/3.jpg,properties3.xlsx,frogs/ab14.jpg,0,0,400,l,0,0,0,2,0,14,14,13,,,['l'],0,[0.6008490105014062],2018_Jul_09_1309,59.9960066624,go-nogo,001,29,
logos/3.jpg,properties3.xlsx,frogs/ab55.jpg,0,0,400,l,0,0,0,2,0,15,15,54,,,['l'],0,[0.3008861589787557],2018_Jul_09_1309,59.9960066624,go-nogo,001,29,
logos/3.jpg,properties3.xlsx,frogs/ab4.jpg,0,0,400,l,0,0,0,2,0,16,16,3,,,['l'],0,[0.6174406691043259],2018_Jul_09_1309,59.9960066624,go-nogo,001,29,
logos/3.jpg,properties3.xlsx,frogs/ab24.jpg,0,0,400,l,0,0,0,2,0,17,17,23,,,['l'],0,[0.45089489142992534],2018_Jul_09_1309,59.9960066624,go-nogo,001,29,
logos/3.jpg,properties3.xlsx,frogs/ab34.jpg,0,0,400,l,0,0,0,2,0,18,18,33,,,['l'],0,[0.3341798407236638],2018_Jul_09_1309,59.9960066624,go-nogo,001,29,
logos/3.jpg,properties3.xlsx,logos/3.jpg,0,0,400,a,0,0,0,2,0,19,19,81,,,['a'],0,[0.7504964982017555],2018_Jul_09_1309,59.9960066624,go-nogo,001,29,
logos/3.jpg,properties3.xlsx,frogs/ab53.jpg,0,0,400,l,0,0,0,2,0,20,20,52,,,['l'],0,[0.5173411703526654],2018_Jul_09_1309,59.9960066624,go-nogo,001,29,
logos/3.jpg,properties3.xlsx,frogs/ab16.jpg,0,0,400,l,0,0,0,2,0,21,21,15,,,['l'],0,[0.16764544083525834],2018_Jul_09_1309,59.9960066624,go-nogo,001,29,
logos/3.jpg,properties3.xlsx,frogs/ab7.jpg,0,0,400,l,0,0,0,2,0,22,22,6,,,['l'],0,[0.7174542655611731],2018_Jul_09_1309,59.9960066624,go-nogo,001,29,
logos/3.jpg,properties3.xlsx,frogs/ab63.jpg,0,0,400,l,0,0,0,2,0,23,23,61,,,['l'],0,[0.4680269949385547],2018_Jul_09_1309,59.9960066624,go-nogo,001,29,
logos/3.jpg,properties3.xlsx,frogs/ab3.jpg,0,0,400,l,0,0,0,2,0,24,24,2,,,['l'],0,[0.5671064750422374],2018_Jul_09_1309,59.9960066624,go-nogo,001,29,
logos/3.jpg,properties3.xlsx,frogs/ab18.jpg,0,0,400,l,0,0,0,2,0,25,25,17,,,['l'],0,[0.5507122210528905],2018_Jul_09_1309,59.9960066624,go-nogo,001,29,
logos/3.jpg,properties3.xlsx,frogs/ab15.jpg,0,0,400,l,0,0,0,2,0,26,26,14,,,['l'],0,[0.46754457674978767],2018_Jul_09_1309,59.9960066624,go-nogo,001,29,
logos/3.jpg,properties3.xlsx,frogs/ab6.jpg,0,0,400,l,0,0,0,2,0,27,27,5,,,['l'],0,[0.4507503935292334],2018_Jul_09_1309,59.9960066624,go-nogo,001,29,
logos/3.jpg,properties3.xlsx,logos/3.jpg,0,0,400,a,0,0,0,2,0,28,28,80,,,['a'],0,[0.6173559045892034],2018_Jul_09_1309,59.9960066624,go-nogo,001,29,
logos/3.jpg,properties3.xlsx,frogs/ab66.jpg,0,0,400,l,0,0,0,2,0,29,29,64,,,['l'],0,[0.8851560264447471],2018_Jul_09_1309,59.9960066624,go-nogo,001,29,
logos/3.jpg,properties3.xlsx,frogs/ab48.jpg,0,0,400,l,0,0,0,2,0,30,30,47,,,['l'],0,[0.7171891631132894],2018_Jul_09_1309,59.9960066624,go-nogo,001,29,
logos/3.jpg,properties3.xlsx,frogs/ab80.jpg,0,0,400,l,0,0,0,2,0,31,31,78,,,['l'],0,[0.7005383400137362],2018_Jul_09_1309,59.9960066624,go-nogo,001,29,
logos/3.jpg,properties3.xlsx,frogs/ab52.jpg,0,0,400,l,0,0,0,2,0,32,32,51,,,['l'],0,[0.5840582406181056],2018_Jul_09_1309,59.9960066624,go-nogo,001,29,
logos/3.jpg,properties3.xlsx,frogs/ab75.jpg,0,0,400,l,0,0,0,2,0,33,33,73,,,['l'],0,[0.550562034257382],2018_Jul_09_1309,59.9960066624,go-nogo,001,29,
logos/3.jpg,properties3.xlsx,frogs/ab54.jpg,0,0,400,l,0,0,0,2,0,34,34,53,,,['l'],0,[0.5340551401714038],2018_Jul_09_1309,59.9960066624,go-nogo,001,29,
logos/3.jpg,properties3.xlsx,frogs/ab30.jpg,0,0,400,l,0,0,0,2,0,35,35,29,,,['l'],0,[0.8837241318888118],2018_Jul_09_1309,59.9960066624,go-nogo,001,29,
logos/3.jpg,properties3.xlsx,frogs/ab23.jpg,0,0,400,l,0,0,0,2,0,36,36,22,,,['l'],0,[0.3508141660277033],2018_Jul_09_1309,59.9960066624,go-nogo,001,29,
logos/3.jpg,properties3.xlsx,frogs/ab68.jpg,0,0,400,l,0,0,0,2,0,37,37,66,,,['l'],0,[0.43408534819718625],2018_Jul_09_1309,59.9960066624,go-nogo,001,29,
logos/3.jpg,properties3.xlsx,frogs/ab28.jpg,0,0,400,l,0,0,0,2,0,38,38,27,,,['l'],0,[0.46779830140985723],2018_Jul_09_1309,59.9960066624,go-nogo,001,29,
logos/3.jpg,properties3.xlsx,logos/3.jpg,0,0,400,a,0,0,0,2,0,39,39,85,,,['a'],0,[0.48419881318295666],2018_Jul_09_1309,59.9960066624,go-nogo,001,29,
logos/3.jpg,properties3.xlsx,logos/3.jpg,0,0,400,a,0,0,0,2,0,40,40,87,,,['a'],0,[0.4507048823779769],2018_Jul_09_1309,59.9960066624,go-nogo,001,29,
logos/3.jpg,properties3.xlsx,frogs/ab9.jpg,0,0,400,l,0,0,0,2,0,41,41,8,,,['l'],0,[0.466835740589886],2018_Jul_09_1309,59.9960066624,go-nogo,001,29,
logos/3.jpg,properties3.xlsx,frogs/ab71.jpg,0,0,400,l,0,0,0,2,0,42,42,69,,,['l'],0,[0.31756713321374264],2018_Jul_09_1309,59.9960066624,go-nogo,001,29,
logos/3.jpg,properties3.xlsx,frogs/ab58.jpg,0,0,400,l,0,0,0,2,0,43,43,57,,,['l'],0,[0.5507423721901432],2018_Jul_09_1309,59.9960066624,go-nogo,001,29,
logos/3.jpg,properties3.xlsx,frogs/ab19.jpg,0,0,400,l,0,0,0,2,0,44,44,18,,,['l'],0,[0.46925579598791956],2018_Jul_09_1309,59.9960066624,go-nogo,001,29,
logos/3.jpg,properties3.xlsx,frogs/ab36.jpg,0,0,400,l,0,0,0,2,0,45,45,35,,,['l'],0,[0.46751101227710024],2018_Jul_09_1309,59.9960066624,go-nogo,001,29,
logos/3.jpg,properties3.xlsx,frogs/ab37.jpg,0,0,400,l,0,0,0,2,0,46,46,36,,,['l'],0,[0.4675366122974083],2018_Jul_09_1309,59.9960066624,go-nogo,001,29,
logos/3.jpg,properties3.xlsx,frogs/ab44.jpg,0,0,400,l,0,0,0,2,0,47,47,43,,,['l'],0,[0.45084653583398904],2018_Jul_09_1309,59.9960066624,go-nogo,001,29,
logos/3.jpg,properties3.xlsx,frogs/ab42.jpg,0,0,400,l,0,0,0,2,0,48,48,41,,,['l'],0,[0.3842933057076152],2018_Jul_09_1309,59.9960066624,go-nogo,001,29,
logos/3.jpg,properties3.xlsx,logos/3.jpg,0,0,400,a,0,0,0,2,0,49,49,86,,,['a'],0,[0.2685846203039546],2018_Jul_09_1309,59.9960066624,go-nogo,001,29,
logos/3.jpg,properties3.xlsx,frogs/ab5.jpg,0,0,400,l,0,0,0,2,0,50,50,4,,,['l'],0,[0.45088010030667647],2018_Jul_09_1309,59.9960066624,go-nogo,001,29,
logos/3.jpg,properties3.xlsx,frogs/ab61.jpg,0,0,400,l,0,0,0,2,0,51,51,59,,,['l'],0,[0.5342280825425405],2018_Jul_09_1309,59.9960066624,go-nogo,001,29,
logos/3.jpg,properties3.xlsx,frogs/ab39.jpg,0,0,400,l,0,0,0,2,0,52,52,38,,,['l'],0,[0.7673191258909355],2018_Jul_09_1309,59.9960066624,go-nogo,001,29,
logos/3.jpg,properties3.xlsx,frogs/ab73.jpg,0,0,400,l,0,0,0,2,0,53,53,71,,,['l'],0,[0.5508134833598888],2018_Jul_09_1309,59.9960066624,go-nogo,001,29,
logos/3.jpg,properties3.xlsx,frogs/ab62.jpg,0,0,400,l,0,0,0,2,0,54,54,60,,,['l'],0,[0.6507150086108595],2018_Jul_09_1309,59.9960066624,go-nogo,001,29,
logos/3.jpg,properties3.xlsx,frogs/ab33.jpg,0,0,400,l,0,0,0,2,0,55,55,32,,,['l'],0,[0.400806457577346],2018_Jul_09_1309,59.9960066624,go-nogo,001,29,
logos/3.jpg,properties3.xlsx,frogs/ab40.jpg,0,0,400,l,0,0,0,2,0,56,56,39,,,['l'],0,[0.43415190825362515],2018_Jul_09_1309,59.9960066624,go-nogo,001,29,
logos/3.jpg,properties3.xlsx,frogs/ab8.jpg,0,0,400,l,0,0,0,2,0,57,57,7,,,['l'],0,[0.46762592792947544],2018_Jul_09_1309,59.9960066624,go-nogo,001,29,
logos/3.jpg,properties3.xlsx,frogs/ab17.jpg,0,0,400,l,0,0,0,2,0,58,58,16,,,['l'],0,[0.5338918689212733],2018_Jul_09_1309,59.9960066624,go-nogo,001,29,
logos/3.jpg,properties3.xlsx,frogs/ab64.jpg,0,0,400,l,0,0,0,2,0,59,59,62,,,['l'],0,[0.46748199891771947],2018_Jul_09_1309,59.9960066624,go-nogo,001,29,
logos/3.jpg,properties3.xlsx,frogs/ab70.jpg,0,0,400,l,0,0,0,2,0,60,60,68,,,['l'],0,[0.6508242353702371],2018_Jul_09_1309,59.9960066624,go-nogo,001,29,
logos/3.jpg,properties3.xlsx,frogs/ab11.jpg,0,0,400,l,0,0,0,2,0,61,61,10,,,['l'],0,[0.5499908693254838],2018_Jul_09_1309,59.9960066624,go-nogo,001,29,
logos/3.jpg,properties3.xlsx,frogs/ab13.jpg,0,0,400,l,0,0,0,2,0,62,62,12,,,['l'],0,[0.5173599437021039],2018_Jul_09_1309,59.9960066624,go-nogo,001,29,
logos/3.jpg,properties3.xlsx,frogs/ab25.jpg,0,0,400,l,0,0,0,2,0,63,63,24,,,['l'],0,[0.48405033305607503],2018_Jul_09_1309,59.9960066624,go-nogo,001,29,
logos/3.jpg,properties3.xlsx,frogs/ab57.jpg,0,0,400,l,0,0,0,2,0,64,64,56,,,['l'],0,[0.38412434556448716],2018_Jul_09_1309,59.9960066624,go-nogo,001,29,
logos/3.jpg,properties3.xlsx,logos/3.jpg,0,0,400,a,0,0,0,2,0,65,65,83,,,['a'],0,[0.4341945749583829],2018_Jul_09_1309,59.9960066624,go-nogo,001,29,
logos/3.jpg,properties3.xlsx,frogs/ab67.jpg,0,0,400,l,0,0,0,2,0,66,66,65,,,['l'],0,[0.3674763669114327],2018_Jul_09_1309,59.9960066624,go-nogo,001,29,
logos/3.jpg,properties3.xlsx,frogs/ab41.jpg,0,0,400,l,0,0,0,2,0,67,67,40,,,['l'],0,[0.4509409714682988],2018_Jul_09_1309,59.9960066624,go-nogo,001,29,
logos/3.jpg,properties3.xlsx,frogs/ab2.jpg,0,0,400,l,0,0,0,2,0,68,68,1,,,['l'],0,[0.3509814195040235],2018_Jul_09_1309,59.9960066624,go-nogo,001,29,
logos/3.jpg,properties3.xlsx,frogs/ab81.jpg,0,0,400,l,0,0,0,2,0,69,69,79,,,['l'],0,[0.43394312585223815],2018_Jul_09_1309,59.9960066624,go-nogo,001,29,
logos/3.jpg,properties3.xlsx,frogs/ab22.jpg,0,0,400,l,0,0,0,2,0,70,70,21,,,['l'],0,[0.6342012878521928],2018_Jul_09_1309,59.9960066624,go-nogo,001,29,
logos/3.jpg,properties3.xlsx,frogs/ab43.jpg,0,0,400,l,0,0,0,2,0,71,71,42,,,['l'],0,[0.40072396861796733],2018_Jul_09_1309,59.9960066624,go-nogo,001,29,
logos/3.jpg,properties3.xlsx,frogs/ab74.jpg,0,0,400,l,0,0,0,2,0,72,72,72,,,['l'],0,[0.4841641109323973],2018_Jul_09_1309,59.9960066624,go-nogo,001,29,
logos/3.jpg,properties3.xlsx,frogs/ab1.jpg,0,0,400,l,0,0,0,2,0,73,73,0,,,['l'],0,[0.4507521001978603],2018_Jul_09_1309,59.9960066624,go-nogo,001,29,
logos/3.jpg,properties3.xlsx,frogs/ab45.jpg,0,0,400,l,0,0,0,2,0,74,74,44,,,['l'],0,[0.4843785822249629],2018_Jul_09_1309,59.9960066624,go-nogo,001,29,
logos/3.jpg,properties3.xlsx,logos/3.jpg,0,0,400,a,0,0,0,2,0,75,75,84,,,['a'],0,[0.4341513393646892],2018_Jul_09_1309,59.9960066624,go-nogo,001,29,
logos/3.jpg,properties3.xlsx,logos/3.jpg,0,0,400,a,0,0,0,2,0,76,76,89,,,['a'],0,[0.3509660594900197],2018_Jul_09_1309,59.9960066624,go-nogo,001,29,
logos/3.jpg,properties3.xlsx,frogs/ab78.jpg,0,0,400,l,0,0,0,2,0,77,77,76,,,['l'],0,[0.6007790371095325],2018_Jul_09_1309,59.9960066624,go-nogo,001,29,
logos/3.jpg,properties3.xlsx,frogs/ab69.jpg,0,0,400,l,0,0,0,2,0,78,78,67,,,['l'],0,[0.4508186602542992],2018_Jul_09_1309,59.9960066624,go-nogo,001,29,
logos/3.jpg,properties3.xlsx,frogs/ab27.jpg,0,0,400,l,0,0,0,2,0,79,79,26,,,['l'],0,[0.4841823153910809],2018_Jul_09_1309,59.9960066624,go-nogo,001,29,
logos/3.jpg,properties3.xlsx,frogs/ab56.jpg,0,0,400,l,0,0,0,2,0,80,80,55,,,['l'],0,[0.4007882531168434],2018_Jul_09_1309,59.9960066624,go-nogo,001,29,
logos/3.jpg,properties3.xlsx,frogs/ab12.jpg,0,0,400,l,0,0,0,2,0,81,81,11,,,['l'],0,[0.6840149481358822],2018_Jul_09_1309,59.9960066624,go-nogo,001,29,
logos/3.jpg,properties3.xlsx,frogs/ab38.jpg,0,0,400,l,0,0,0,2,0,82,82,37,,,['l'],0,[1.0497254824331321],2018_Jul_09_1309,59.9960066624,go-nogo,001,29,
logos/3.jpg,properties3.xlsx,frogs/ab50.jpg,0,0,400,l,0,0,0,2,0,83,83,49,,,['l'],0,[0.28444810050677916],2018_Jul_09_1309,59.9960066624,go-nogo,001,29,
logos/3.jpg,properties3.xlsx,frogs/ab77.jpg,0,0,400,l,0,0,0,2,0,84,84,75,,,['l'],0,[0.6506091951869166],2018_Jul_09_1309,59.9960066624,go-nogo,001,29,
logos/3.jpg,properties3.xlsx,frogs/ab20.jpg,0,0,400,l,0,0,0,2,0,85,85,19,,,['l'],0,[0.4508431224985543],2018_Jul_09_1309,59.9960066624,go-nogo,001,29,
logos/3.jpg,properties3.xlsx,frogs/ab60.jpg,0,0,400,l,0,0,0,2,0,86,86,58,,,['l'],0,[0.7006561001162481],2018_Jul_09_1309,59.9960066624,go-nogo,001,29,
logos/3.jpg,properties3.xlsx,frogs/ab47.jpg,0,0,400,l,0,0,0,2,0,87,87,46,,,['l'],0,[0.4341058282152517],2018_Jul_09_1309,59.9960066624,go-nogo,001,29,
logos/3.jpg,properties3.xlsx,logos/3.jpg,0,0,400,a,0,0,0,2,0,88,88,88,,,['a'],0,[0.3835577317458956],2018_Jul_09_1309,59.9960066624,go-nogo,001,29,
logos/3.jpg,properties3.xlsx,frogs/ab21.jpg,0,0,400,l,0,0,0,2,0,89,89,20,,,['l'],0,[0.46871136885602027],2018_Jul_09_1309,59.9960066624,go-nogo,001,29,
logos/3.jpg,properties3.xlsx,,,,,,0,0,0,2,,,,,,,,,,2018_Jul_09_1309,59.9960066624,go-nogo,001,29,
logos/2.jpg,properties2.xlsx,frogs/ab6.jpg,0,0,400,l,0,1,1,1,0,0,0,5,space,2.33761479476,['l'],0,[0.7339503507482732],2018_Jul_09_1309,59.9960066624,go-nogo,001,29,
logos/2.jpg,properties2.xlsx,frogs/ab9.jpg,0,0,400,l,0,1,1,1,0,1,1,8,,,['l'],0,[0.3341735829380923],2018_Jul_09_1309,59.9960066624,go-nogo,001,29,
logos/2.jpg,properties2.xlsx,frogs/ab11.jpg,0,0,400,l,0,1,1,1,0,2,2,10,,,['l'],0,[0.6340141232485621],2018_Jul_09_1309,59.9960066624,go-nogo,001,29,
logos/2.jpg,properties2.xlsx,frogs/ab54.jpg,0,0,400,l,0,1,1,1,0,3,3,53,,,['l'],0,[0.3337543114703294],2018_Jul_09_1309,59.9960066624,go-nogo,001,29,
logos/2.jpg,properties2.xlsx,frogs/ab61.jpg,0,0,400,l,0,1,1,1,0,4,4,59,,,['l'],0,[0.3507231437288283],2018_Jul_09_1309,59.9960066624,go-nogo,001,29,
logos/2.jpg,properties2.xlsx,frogs/ab62.jpg,0,0,400,l,0,1,1,1,0,5,5,60,,,['l'],0,[0.38411638111392676],2018_Jul_09_1309,59.9960066624,go-nogo,001,29,
logos/2.jpg,properties2.xlsx,frogs/ab71.jpg,0,0,400,l,0,1,1,1,0,6,6,69,,,['l'],0,[0.35086309051439457],2018_Jul_09_1309,59.9960066624,go-nogo,001,29,
logos/2.jpg,properties2.xlsx,frogs/ab19.jpg,0,0,400,l,0,1,1,1,0,7,7,18,,,['l'],0,[0.36758559367262933],2018_Jul_09_1309,59.9960066624,go-nogo,001,29,
logos/2.jpg,properties2.xlsx,frogs/ab64.jpg,0,0,400,l,0,1,1,1,0,8,8,62,,,['l'],0,[0.3342532274527912],2018_Jul_09_1309,59.9960066624,go-nogo,001,29,
logos/2.jpg,properties2.xlsx,frogs/ab67.jpg,0,0,400,l,0,1,1,1,0,9,9,65,,,['l'],0,[0.4016040404803789],2018_Jul_09_1309,59.9960066624,go-nogo,001,29,
logos/2.jpg,properties2.xlsx,frogs/ab29.jpg,0,0,400,l,0,1,1,1,0,10,10,28,,,['l'],0,[0.31752503539973986],2018_Jul_09_1309,59.9960066624,go-nogo,001,29,
logos/2.jpg,properties2.xlsx,frogs/ab77.jpg,0,0,400,l,0,1,1,1,0,11,11,75,,,['l'],0,[0.3008497500577505],2018_Jul_09_1309,59.9960066624,go-nogo,001,29,
logos/2.jpg,properties2.xlsx,frogs/ab55.jpg,0,0,400,l,0,1,1,1,0,12,12,54,,,['l'],0,[0.300843492273998],2018_Jul_09_1309,59.9960066624,go-nogo,001,29,
logos/2.jpg,properties2.xlsx,frogs/ab10.jpg,0,0,400,l,0,1,1,1,0,13,13,9,,,['l'],0,[0.45073560240598454],2018_Jul_09_1309,59.9960066624,go-nogo,001,29,
logos/2.jpg,properties2.xlsx,frogs/ab5.jpg,0,0,400,l,0,1,1,1,0,14,14,4,,,['l'],0,[1.316961834918402],2018_Jul_09_1309,59.9960066624,go-nogo,001,29,
logos/2.jpg,properties2.xlsx,frogs/ab57.jpg,0,0,400,l,0,1,1,1,0,15,15,56,,,['l'],0,[0.31767522219524835],2018_Jul_09_1309,59.9960066624,go-nogo,001,29,
logos/2.jpg,properties2.xlsx,frogs/ab26.jpg,0,0,400,l,0,1,1,1,0,16,16,25,,,['l'],0,[0.30100448796838464],2018_Jul_09_1309,59.9960066624,go-nogo,001,29,
logos/2.jpg,properties2.xlsx,frogs/ab38.jpg,0,0,400,l,0,1,1,1,0,17,17,37,,,['l'],0,[0.36745361133762344],2018_Jul_09_1309,59.9960066624,go-nogo,001,29,
logos/2.jpg,properties2.xlsx,frogs/ab32.jpg,0,0,400,l,0,1,1,1,0,18,18,31,,,['l'],0,[0.5173610814817948],2018_Jul_09_1309,59.9960066624,go-nogo,001,29,
logos/2.jpg,properties2.xlsx,logos/2.jpg,0,0,400,a,0,1,1,1,0,19,19,82,,,['a'],0,[0.3677090426663199],2018_Jul_09_1309,59.9960066624,go-nogo,001,29,
logos/2.jpg,properties2.xlsx,frogs/ab17.jpg,0,0,400,l,0,1,1,1,0,20,20,16,,,['l'],0,[0.40073022639990086],2018_Jul_09_1309,59.9960066624,go-nogo,001,29,
logos/2.jpg,properties2.xlsx,frogs/ab48.jpg,0,0,400,l,0,1,1,1,0,21,21,47,,,['l'],0,[0.31752901762411057],2018_Jul_09_1309,59.9960066624,go-nogo,001,29,
logos/2.jpg,properties2.xlsx,frogs/ab44.jpg,0,0,400,l,0,1,1,1,0,22,22,43,,,['l'],0,[0.41749141403670365],2018_Jul_09_1309,59.9960066624,go-nogo,001,29,
logos/2.jpg,properties2.xlsx,logos/2.jpg,0,0,400,a,0,1,1,1,0,23,23,84,,,['a'],0,[0.38408281663942034],2018_Jul_09_1309,59.9960066624,go-nogo,001,29,
logos/2.jpg,properties2.xlsx,logos/2.jpg,0,0,400,a,0,1,1,1,0,24,24,85,,,['a'],0,[0.33349546680437925],2018_Jul_09_1309,59.9960066624,go-nogo,001,29,
logos/2.jpg,properties2.xlsx,frogs/ab14.jpg,0,0,400,l,0,1,1,1,0,25,25,13,,,['l'],0,[0.48406455529038794],2018_Jul_09_1309,59.9960066624,go-nogo,001,29,
logos/2.jpg,properties2.xlsx,frogs/ab39.jpg,0,0,400,l,0,1,1,1,0,26,26,38,,,['l'],0,[0.30085828339906584],2018_Jul_09_1309,59.9960066624,go-nogo,001,29,
logos/2.jpg,properties2.xlsx,frogs/ab7.jpg,0,0,400,l,0,1,1,1,0,27,27,6,,,['l'],0,[0.28414033135595673],2018_Jul_09_1309,59.9960066624,go-nogo,001,29,
logos/2.jpg,properties2.xlsx,frogs/ab41.jpg,0,0,400,l,0,1,1,1,0,28,28,40,,,['l'],0,[0.36563145867148705],2018_Jul_09_1309,59.9960066624,go-nogo,001,29,
logos/2.jpg,properties2.xlsx,logos/2.jpg,0,0,400,a,0,1,1,1,0,29,29,81,,,['a'],0,[0.3177634000458056],2018_Jul_09_1309,59.9960066624,go-nogo,001,29,
logos/2.jpg,properties2.xlsx,frogs/ab72.jpg,0,0,400,l,0,1,1,1,0,30,30,70,,,['l'],0,[0.35166238008423534],2018_Jul_09_1309,59.9960066624,go-nogo,001,29,
logos/2.jpg,properties2.xlsx,frogs/ab81.jpg,0,0,400,l,0,1,1,1,0,31,31,79,,,['l'],0,[0.3507988060136995],2018_Jul_09_1309,59.9960066624,go-nogo,001,29,
logos/2.jpg,properties2.xlsx,frogs/ab65.jpg,0,0,400,l,0,1,1,1,0,32,32,63,,,['l'],0,[1.250501902650285],2018_Jul_09_1309,59.9960066624,go-nogo,001,29,
logos/2.jpg,properties2.xlsx,frogs/ab50.jpg,0,0,400,l,0,1,1,1,0,33,33,49,,,['l'],0,[0.3176103688056173],2018_Jul_09_1309,59.9960066624,go-nogo,001,29,
logos/2.jpg,properties2.xlsx,logos/2.jpg,0,0,400,a,0,1,1,1,0,34,34,89,,,['a'],0,[0.3675406514121278],2018_Jul_09_1309,59.9960066624,go-nogo,001,29,
logos/2.jpg,properties2.xlsx,frogs/ab56.jpg,0,0,400,l,0,1,1,1,0,35,35,55,,,['l'],0,[0.3842921679279243],2018_Jul_09_1309,59.9960066624,go-nogo,001,29,
logos/2.jpg,properties2.xlsx,frogs/ab73.jpg,0,0,400,l,0,1,1,1,0,36,36,71,,,['l'],0,[0.35089608609632705],2018_Jul_09_1309,59.9960066624,go-nogo,001,29,
logos/2.jpg,properties2.xlsx,frogs/ab33.jpg,0,0,400,l,0,1,1,1,0,37,37,32,,,['l'],0,[0.3508744683003897],2018_Jul_09_1309,59.9960066624,go-nogo,001,29,
logos/2.jpg,properties2.xlsx,frogs/ab63.jpg,0,0,400,l,0,1,1,1,0,38,38,61,,,['l'],0,[0.4667248071600625],2018_Jul_09_1309,59.9960066624,go-nogo,001,29,
logos/2.jpg,properties2.xlsx,logos/2.jpg,0,0,400,a,0,1,1,1,0,39,39,83,,,['a'],0,[0.30092313678869687],2018_Jul_09_1309,59.9960066624,go-nogo,001,29,
logos/2.jpg,properties2.xlsx,frogs/ab22.jpg,0,0,400,l,0,1,1,1,0,40,40,21,,,['l'],0,[0.3800556487585709],2018_Jul_09_1309,59.9960066624,go-nogo,001,29,
logos/2.jpg,properties2.xlsx,frogs/ab43.jpg,0,0,400,l,0,1,1,1,0,41,41,42,,,['l'],0,[0.3507464681933925],2018_Jul_09_1309,59.9960066624,go-nogo,001,29,
logos/2.jpg,properties2.xlsx,frogs/ab74.jpg,0,0,400,l,0,1,1,1,0,42,42,72,,,['l'],0,[0.6173342867914471],2018_Jul_09_1309,59.9960066624,go-nogo,001,29,
logos/2.jpg,properties2.xlsx,frogs/ab3.jpg,0,0,400,l,0,1,1,1,0,43,43,2,,,['l'],0,[0.5004474314919207],2018_Jul_09_1309,59.9960066624,go-nogo,001,29,
logos/2.jpg,properties2.xlsx,logos/2.jpg,0,0,400,a,0,1,1,1,0,44,44,80,,,['a'],0,[0.30078887889612815],2018_Jul_09_1309,59.9960066624,go-nogo,001,29,
logos/2.jpg,properties2.xlsx,frogs/ab42.jpg,0,0,400,l,0,1,1,1,0,45,45,41,,,['l'],0,[0.3675662514342548],2018_Jul_09_1309,59.9960066624,go-nogo,001,29,
logos/2.jpg,properties2.xlsx,frogs/ab25.jpg,0,0,400,l,0,1,1,1,0,46,46,24,,,['l'],0,[0.30132306601808523],2018_Jul_09_1309,59.9960066624,go-nogo,001,29,
logos/2.jpg,properties2.xlsx,frogs/ab60.jpg,0,0,400,l,0,1,1,1,0,47,47,58,,,['l'],0,[0.36722434891999],2018_Jul_09_1309,59.9960066624,go-nogo,001,29,
logos/2.jpg,properties2.xlsx,frogs/ab27.jpg,0,0,400,l,0,1,1,1,0,48,48,26,,,['l'],0,[0.33401372502521554],2018_Jul_09_1309,59.9960066624,go-nogo,001,29,
logos/2.jpg,properties2.xlsx,frogs/ab70.jpg,0,0,400,l,0,1,1,1,0,49,49,68,,,['l'],0,[0.4500455395955214],2018_Jul_09_1309,59.9960066624,go-nogo,001,29,
logos/2.jpg,properties2.xlsx,frogs/ab76.jpg,0,0,400,l,0,1,1,1,0,50,50,74,,,['l'],0,[0.35087674385795253],2018_Jul_09_1309,59.9960066624,go-nogo,001,29,
logos/2.jpg,properties2.xlsx,frogs/ab4.jpg,0,0,400,l,0,1,1,1,0,51,51,3,,,['l'],0,[0.3840532343929226],2018_Jul_09_1309,59.9960066624,go-nogo,001,29,
logos/2.jpg,properties2.xlsx,frogs/ab78.jpg,0,0,400,l,0,1,1,1,0,52,52,76,,,['l'],0,[0.3675406514121278],2018_Jul_09_1309,59.9960066624,go-nogo,001,29,
logos/2.jpg,properties2.xlsx,frogs/ab24.jpg,0,0,400,l,0,1,1,1,0,53,53,23,,,['l'],0,[0.4340796593023697],2018_Jul_09_1309,59.9960066624,go-nogo,001,29,
logos/2.jpg,properties2.xlsx,frogs/ab30.jpg,0,0,400,l,0,1,1,1,0,54,54,29,,,['l'],0,[0.43647525245978613],2018_Jul_09_1309,59.9960066624,go-nogo,001,29,
logos/2.jpg,properties2.xlsx,frogs/ab79.jpg,0,0,400,l,0,1,1,1,0,55,55,77,,,['l'],0,[0.30075872775887547],2018_Jul_09_1309,59.9960066624,go-nogo,001,29,
logos/2.jpg,properties2.xlsx,frogs/ab20.jpg,0,0,400,l,0,1,1,1,0,56,56,19,,,['l'],0,[0.43421846831006405],2018_Jul_09_1309,59.9960066624,go-nogo,001,29,
logos/2.jpg,properties2.xlsx,frogs/ab36.jpg,0,0,400,l,0,1,1,1,0,57,57,35,,,['l'],0,[0.550679794358075],2018_Jul_09_1309,59.9960066624,go-nogo,001,29,
logos/2.jpg,properties2.xlsx,frogs/ab46.jpg,0,0,400,l,0,1,1,1,0,58,58,45,,,['l'],0,[0.38419488784529676],2018_Jul_09_1309,59.9960066624,go-nogo,001,29,
logos/2.jpg,properties2.xlsx,frogs/ab66.jpg,0,0,400,l,0,1,1,1,0,59,59,64,,,['l'],0,[0.41744817844482895],2018_Jul_09_1309,59.9960066624,go-nogo,001,29,
logos/2.jpg,properties2.xlsx,frogs/ab23.jpg,0,0,400,l,0,1,1,1,0,60,60,22,,,['l'],0,[0.4008218175913498],2018_Jul_09_1309,59.9960066624,go-nogo,001,29,
logos/2.jpg,properties2.xlsx,frogs/ab1.jpg,0,0,400,l,0,1,1,1,0,61,61,0,,,['l'],0,[0.4177138497816486],2018_Jul_09_1309,59.9960066624,go-nogo,001,29,
logos/2.jpg,properties2.xlsx,frogs/ab37.jpg,0,0,400,l,0,1,1,1,0,62,62,36,,,['l'],0,[0.3841118299969821],2018_Jul_09_1309,59.9960066624,go-nogo,001,29,
logos/2.jpg,properties2.xlsx,frogs/ab31.jpg,0,0,400,l,0,1,1,1,0,63,63,30,,,['l'],0,[0.3341565162590996],2018_Jul_09_1309,59.9960066624,go-nogo,001,29,
logos/2.jpg,properties2.xlsx,frogs/ab47.jpg,0,0,400,l,0,1,1,1,0,64,64,46,,,['l'],0,[0.3837727719310351],2018_Jul_09_1309,59.9960066624,go-nogo,001,29,
logos/2.jpg,properties2.xlsx,logos/2.jpg,0,0,400,a,0,1,1,1,0,65,65,86,,,['a'],0,[0.40083091981978214],2018_Jul_09_1309,59.9960066624,go-nogo,001,29,
logos/2.jpg,properties2.xlsx,frogs/ab28.jpg,0,0,400,l,0,1,1,1,0,66,66,27,,,['l'],0,[0.383565127309339],2018_Jul_09_1309,59.9960066624,go-nogo,001,29,
logos/2.jpg,properties2.xlsx,frogs/ab21.jpg,0,0,400,l,0,1,1,1,0,67,67,20,,,['l'],0,[0.33419918296021933],2018_Jul_09_1309,59.9960066624,go-nogo,001,29,
logos/2.jpg,properties2.xlsx,frogs/ab16.jpg,0,0,400,l,0,1,1,1,0,68,68,15,,,['l'],0,[0.4173782050511363],2018_Jul_09_1309,59.9960066624,go-nogo,001,29,
logos/2.jpg,properties2.xlsx,frogs/ab8.jpg,0,0,400,l,0,1,1,1,0,69,69,7,,,['l'],0,[0.31757509766430303],2018_Jul_09_1309,59.9960066624,go-nogo,001,29,
logos/2.jpg,properties2.xlsx,frogs/ab53.jpg,0,0,400,l,0,1,1,1,0,70,70,52,,,['l'],0,[0.46743762554797286],2018_Jul_09_1309,59.9960066624,go-nogo,001,29,
logos/2.jpg,properties2.xlsx,frogs/ab52.jpg,0,0,400,l,0,1,1,1,0,71,71,51,,,['l'],0,[0.3175284487351746],2018_Jul_09_1309,59.9960066624,go-nogo,001,29,
logos/2.jpg,properties2.xlsx,frogs/ab49.jpg,0,0,400,l,0,1,1,1,0,72,72,48,,,['l'],0,[0.3170130349608371],2018_Jul_09_1309,59.9960066624,go-nogo,001,29,
logos/2.jpg,properties2.xlsx,frogs/ab45.jpg,0,0,400,l,0,1,1,1,0,73,73,44,,,['l'],0,[0.3835600073052774],2018_Jul_09_1309,59.9960066624,go-nogo,001,29,
logos/2.jpg,properties2.xlsx,frogs/ab13.jpg,0,0,400,l,0,1,1,1,0,74,74,12,,,['l'],0,[0.317562582098617],2018_Jul_09_1309,59.9960066624,go-nogo,001,29,
logos/2.jpg,properties2.xlsx,frogs/ab18.jpg,0,0,400,l,0,1,1,1,0,75,75,17,,,['l'],0,[0.3343186497295392],2018_Jul_09_1309,59.9960066624,go-nogo,001,29,
logos/2.jpg,properties2.xlsx,frogs/ab2.jpg,0,0,400,l,0,1,1,1,0,76,76,1,,,['l'],0,[0.4174828806972073],2018_Jul_09_1309,59.9960066624,go-nogo,001,29,
logos/2.jpg,properties2.xlsx,frogs/ab80.jpg,0,0,400,l,0,1,1,1,0,77,77,78,,,['l'],0,[0.4339897747813666],2018_Jul_09_1309,59.9960066624,go-nogo,001,29,
logos/2.jpg,properties2.xlsx,frogs/ab68.jpg,0,0,400,l,0,1,1,1,0,78,78,66,,,['l'],0,[0.38416871893423377],2018_Jul_09_1309,59.9960066624,go-nogo,001,29,
logos/2.jpg,properties2.xlsx,frogs/ab34.jpg,0,0,400,l,0,1,1,1,0,79,79,33,,,['l'],0,[0.33434481864242116],2018_Jul_09_1309,59.9960066624,go-nogo,001,29,
logos/2.jpg,properties2.xlsx,frogs/ab40.jpg,0,0,400,l,0,1,1,1,0,80,80,39,,,['l'],0,[0.5340096290219662],2018_Jul_09_1309,59.9960066624,go-nogo,001,29,
logos/2.jpg,properties2.xlsx,frogs/ab75.jpg,0,0,400,l,0,1,1,1,0,81,81,73,,,['l'],0,[0.38426543012974435],2018_Jul_09_1309,59.9960066624,go-nogo,001,29,
logos/2.jpg,properties2.xlsx,frogs/ab35.jpg,0,0,400,l,0,1,1,1,0,82,82,34,,,['l'],0,[0.30160466625966365],2018_Jul_09_1309,59.9960066624,go-nogo,001,29,
logos/2.jpg,properties2.xlsx,logos/2.jpg,0,0,400,a,0,1,1,1,0,83,83,88,,,['a'],0,[0.3173890708385443],2018_Jul_09_1309,59.9960066624,go-nogo,001,29,
logos/2.jpg,properties2.xlsx,frogs/ab58.jpg,0,0,400,l,0,1,1,1,0,84,84,57,,,['l'],0,[0.9840688219610456],2018_Jul_09_1309,59.9960066624,go-nogo,001,29,
logos/2.jpg,properties2.xlsx,frogs/ab12.jpg,0,0,400,l,0,1,1,1,0,85,85,11,,,['l'],0,[0.1843013839370542],2018_Jul_09_1309,59.9960066624,go-nogo,001,29,
logos/2.jpg,properties2.xlsx,frogs/ab15.jpg,0,0,400,l,0,1,1,1,0,86,86,14,,,['l'],0,[0.8506124947434728],2018_Jul_09_1309,59.9960066624,go-nogo,001,29,
logos/2.jpg,properties2.xlsx,frogs/ab51.jpg,0,0,400,l,0,1,1,1,0,87,87,50,,,['l'],0,[0.3010443102248246],2018_Jul_09_1309,59.9960066624,go-nogo,001,29,
logos/2.jpg,properties2.xlsx,logos/2.jpg,0,0,400,a,0,1,1,1,0,88,88,87,,,['a'],0,[0.3341110051078431],2018_Jul_09_1309,59.9960066624,go-nogo,001,29,
logos/2.jpg,properties2.xlsx,frogs/ab69.jpg,0,0,400,l,0,1,1,1,0,89,89,67,,,['l'],0,[0.5673835241686902],2018_Jul_09_1309,59.9960066624,go-nogo,001,29,
logos/2.jpg,properties2.xlsx,,,,,,0,1,1,1,,,,,,,,,,2018_Jul_09_1309,59.9960066624,go-nogo,001,29,
logos/1.jpg,properties1.xlsx,frogs/ab81.jpg,0,0,400,l,0,2,2,0,0,0,0,79,space,2.5858690155,['l'],0,[0.06902050334247178],2018_Jul_09_1309,59.9960066624,go-nogo,001,29,
logos/1.jpg,properties1.xlsx,frogs/ab65.jpg,0,0,400,l,0,2,2,0,0,1,1,63,,,['l'],0,[0.5508447722768324],2018_Jul_09_1309,59.9960066624,go-nogo,001,29,
logos/1.jpg,properties1.xlsx,frogs/ab27.jpg,0,0,400,l,0,2,2,0,0,2,2,26,,,['l'],0,[0.3861063561453193],2018_Jul_09_1309,59.9960066624,go-nogo,001,29,
logos/1.jpg,properties1.xlsx,frogs/ab30.jpg,0,0,400,l,0,2,2,0,0,3,3,29,,,['l'],0,[0.4176808541997161],2018_Jul_09_1309,59.9960066624,go-nogo,001,29,
logos/1.jpg,properties1.xlsx,frogs/ab78.jpg,0,0,400,l,0,2,2,0,0,4,4,76,,,['l'],0,[0.3500313742497383],2018_Jul_09_1309,59.9960066624,go-nogo,001,29,
logos/1.jpg,properties1.xlsx,frogs/ab5.jpg,0,0,400,l,0,2,2,0,0,5,5,4,,,['l'],0,[0.36758673145232024],2018_Jul_09_1309,59.9960066624,go-nogo,001,29,
logos/1.jpg,properties1.xlsx,frogs/ab9.jpg,0,0,400,l,0,2,2,0,0,6,6,8,,,['l'],0,[0.4174697962407663],2018_Jul_09_1309,59.9960066624,go-nogo,001,29,
logos/1.jpg,properties1.xlsx,frogs/ab25.jpg,0,0,400,l,0,2,2,0,0,7,7,24,,,['l'],0,[0.3344068275819154],2018_Jul_09_1309,59.9960066624,go-nogo,001,29,
logos/1.jpg,properties1.xlsx,frogs/ab41.jpg,0,0,400,l,0,2,2,0,0,8,8,40,,,['l'],0,[0.4176393252728303],2018_Jul_09_1309,59.9960066624,go-nogo,001,29,
logos/1.jpg,properties1.xlsx,frogs/ab11.jpg,0,0,400,l,0,2,2,0,0,9,9,10,,,['l'],0,[0.36715437552629737],2018_Jul_09_1309,59.9960066624,go-nogo,001,29,
logos/1.jpg,properties1.xlsx,frogs/ab46.jpg,0,0,400,l,0,2,2,0,0,10,10,45,,,['l'],0,[0.4175204273942654],2018_Jul_09_1309,59.9960066624,go-nogo,001,29,
logos/1.jpg,properties1.xlsx,frogs/ab45.jpg,0,0,400,l,0,2,2,0,0,11,11,44,,,['l'],0,[0.4500290418018267],2018_Jul_09_1309,59.9960066624,go-nogo,001,29,
logos/1.jpg,properties1.xlsx,frogs/ab61.jpg,0,0,400,l,0,2,2,0,0,12,12,59,,,['l'],0,[0.28417275805077225],2018_Jul_09_1309,59.9960066624,go-nogo,001,29,
logos/1.jpg,properties1.xlsx,frogs/ab18.jpg,0,0,400,l,0,2,2,0,0,13,13,17,,,['l'],0,[1.7668412588154752],2018_Jul_09_1309,59.9960066624,go-nogo,001,29,
logos/1.jpg,properties1.xlsx,frogs/ab6.jpg,0,0,400,l,0,2,2,0,0,14,14,5,,,['l'],0,[0.3683274254162825],2018_Jul_09_1309,59.9960066624,go-nogo,001,29,
logos/1.jpg,properties1.xlsx,frogs/ab73.jpg,0,0,400,l,0,2,2,0,0,15,15,71,,,['l'],0,[0.134224327872289],2018_Jul_09_1309,59.9960066624,go-nogo,001,29,
logos/1.jpg,properties1.xlsx,frogs/ab48.jpg,0,0,400,l,0,2,2,0,0,16,16,47,,,['l'],0,[2.383158940296198],2018_Jul_09_1309,59.9960066624,go-nogo,001,29,
logos/1.jpg,properties1.xlsx,frogs/ab10.jpg,0,0,400,l,0,2,2,0,0,17,17,9,,,['l'],0,[0.36749627804238116],2018_Jul_09_1309,59.9960066624,go-nogo,001,29,
logos/1.jpg,properties1.xlsx,logos/1.jpg,0,0,400,a,0,2,2,0,0,18,18,84,,,['a'],0,[0.40082011092272296],2018_Jul_09_1309,59.9960066624,go-nogo,001,29,
logos/1.jpg,properties1.xlsx,logos/1.jpg,0,0,400,a,0,2,2,0,0,19,19,88,,,['a'],0,[0.3843797768931836],2018_Jul_09_1309,59.9960066624,go-nogo,001,29,
logos/1.jpg,properties1.xlsx,frogs/ab23.jpg,0,0,400,l,0,2,2,0,0,20,20,22,,,['l'],0,[0.20091181588941254],2018_Jul_09_1309,59.9960066624,go-nogo,001,29,
logos/1.jpg,properties1.xlsx,frogs/ab76.jpg,0,0,400,l,0,2,2,0,0,21,21,74,,,['l'],0,[1.2003810421028902],2018_Jul_09_1309,59.9960066624,go-nogo,001,29,
logos/1.jpg,properties1.xlsx,frogs/ab21.jpg,0,0,400,l,0,2,2,0,0,22,22,20,,,['l'],0,[0.36763736260581936],2018_Jul_09_1309,59.9960066624,go-nogo,001,29,
logos/1.jpg,properties1.xlsx,frogs/ab77.jpg,0,0,400,l,0,2,2,0,0,23,23,75,,,['l'],0,[0.4008565198419092],2018_Jul_09_1309,59.9960066624,go-nogo,001,29,
logos/1.jpg,properties1.xlsx,logos/1.jpg,0,0,400,a,0,2,2,0,0,24,24,81,,,['a'],0,[0.43339869872215786],2018_Jul_09_1309,59.9960066624,go-nogo,001,29,
logos/1.jpg,properties1.xlsx,frogs/ab38.jpg,0,0,400,l,0,2,2,0,0,25,25,37,,,['l'],0,[1.1838036057342833],2018_Jul_09_1309,59.9960066624,go-nogo,001,29,
logos/1.jpg,properties1.xlsx,frogs/ab72.jpg,0,0,400,l,0,2,2,0,0,26,26,70,,,['l'],0,[0.7831928461018833],2018_Jul_09_1309,59.9960066624,go-nogo,001,29,
logos/1.jpg,properties1.xlsx,frogs/ab7.jpg,0,0,400,l,0,2,2,0,0,27,27,6,,,['l'],0,[0.8006719721288391],2018_Jul_09_1309,59.9960066624,go-nogo,001,29,
logos/1.jpg,properties1.xlsx,frogs/ab74.jpg,0,0,400,l,0,2,2,0,0,28,28,72,,,['l'],0,[1.017149739078377],2018_Jul_09_1309,59.9960066624,go-nogo,001,29,
logos/1.jpg,properties1.xlsx,frogs/ab52.jpg,0,0,400,l,0,2,2,0,0,29,29,51,,,['l'],0,[1.5835109690397076],2018_Jul_09_1309,59.9960066624,go-nogo,001,29,
logos/1.jpg,properties1.xlsx,frogs/ab80.jpg,0,0,400,l,0,2,2,0,0,30,30,78,,,['l'],0,[1.4169276446682488],2018_Jul_09_1309,59.9960066624,go-nogo,001,29,
logos/1.jpg,properties1.xlsx,frogs/ab60.jpg,0,0,400,l,0,2,2,0,0,31,31,58,,,['l'],0,[3.6826245825050137],2018_Jul_09_1309,59.9960066624,go-nogo,001,29,
logos/1.jpg,properties1.xlsx,frogs/ab42.jpg,0,0,400,l,0,2,2,0,0,32,32,41,,,['l'],0,[2.383015011284442],2018_Jul_09_1309,59.9960066624,go-nogo,001,29,
logos/1.jpg,properties1.xlsx,frogs/ab47.jpg,0,0,400,l,0,2,2,0,0,33,33,46,,,['l'],0,[0.65068315080498],2018_Jul_09_1309,59.9960066624,go-nogo,001,29,
logos/1.jpg,properties1.xlsx,frogs/ab58.jpg,0,0,400,l,0,2,2,0,0,34,34,57,,,['l'],0,[0.4674478655542771],2018_Jul_09_1309,59.9960066624,go-nogo,001,29,
logos/1.jpg,properties1.xlsx,frogs/ab22.jpg,0,0,400,l,0,2,2,0,0,35,35,21,,,['l'],0,[0.43338049426165526],2018_Jul_09_1309,59.9960066624,go-nogo,001,29,
logos/1.jpg,properties1.xlsx,frogs/ab31.jpg,0,0,400,l,0,2,2,0,0,36,36,30,,,['l'],0,[0.3841738389382954],2018_Jul_09_1309,59.9960066624,go-nogo,001,29,
logos/1.jpg,properties1.xlsx,frogs/ab13.jpg,0,0,400,l,0,2,2,0,0,37,37,12,,,['l'],0,[0.39989509679980983],2018_Jul_09_1309,59.9960066624,go-nogo,001,29,
logos/1.jpg,properties1.xlsx,frogs/ab43.jpg,0,0,400,l,0,2,2,0,0,38,38,42,,,['l'],0,[0.26740246818371816],2018_Jul_09_1309,59.9960066624,go-nogo,001,29,
logos/1.jpg,properties1.xlsx,frogs/ab56.jpg,0,0,400,l,0,2,2,0,0,39,39,55,,,['l'],0,[0.3507373659613222],2018_Jul_09_1309,59.9960066624,go-nogo,001,29,
logos/1.jpg,properties1.xlsx,frogs/ab66.jpg,0,0,400,l,0,2,2,0,0,40,40,64,,,['l'],0,[0.41798748557084764],2018_Jul_09_1309,59.9960066624,go-nogo,001,29,
logos/1.jpg,properties1.xlsx,frogs/ab32.jpg,0,0,400,l,0,2,2,0,0,41,41,31,,,['l'],0,[0.3508756060818996],2018_Jul_09_1309,59.9960066624,go-nogo,001,29,
logos/1.jpg,properties1.xlsx,frogs/ab17.jpg,0,0,400,l,0,2,2,0,0,42,42,16,,,['l'],0,[0.3507584148683236],2018_Jul_09_1309,59.9960066624,go-nogo,001,29,
logos/1.jpg,properties1.xlsx,frogs/ab1.jpg,0,0,400,l,0,2,2,0,0,43,43,0,,,['l'],0,[1.5335522419645713],2018_Jul_09_1309,59.9960066624,go-nogo,001,29,
logos/1.jpg,properties1.xlsx,frogs/ab53.jpg,0,0,400,l,0,2,2,0,0,44,44,52,,,['l'],0,[0.42271097404591274],2018_Jul_09_1309,59.9960066624,go-nogo,001,29,
logos/1.jpg,properties1.xlsx,frogs/ab50.jpg,0,0,400,l,0,2,2,0,0,45,45,49,,,['l'],0,[0.41756821410308476],2018_Jul_09_1309,59.9960066624,go-nogo,001,29,
logos/1.jpg,properties1.xlsx,frogs/ab19.jpg,0,0,400,l,0,2,2,0,0,46,46,18,,,['l'],0,[0.43429697504325304],2018_Jul_09_1309,59.9960066624,go-nogo,001,29,
logos/1.jpg,properties1.xlsx,logos/1.jpg,0,0,400,a,0,2,2,0,0,47,47,83,,,['a'],0,[0.36750026026675187],2018_Jul_09_1309,59.9960066624,go-nogo,001,29,
logos/1.jpg,properties1.xlsx,frogs/ab63.jpg,0,0,400,l,0,2,2,0,0,48,48,61,,,['l'],0,[0.5340744824097783],2018_Jul_09_1309,59.9960066624,go-nogo,001,29,
logos/1.jpg,properties1.xlsx,frogs/ab79.jpg,0,0,400,l,0,2,2,0,0,49,49,77,,,['l'],0,[0.41758414300602453],2018_Jul_09_1309,59.9960066624,go-nogo,001,29,
logos/1.jpg,properties1.xlsx,frogs/ab15.jpg,0,0,400,l,0,2,2,0,0,50,50,14,,,['l'],0,[0.350596281397884],2018_Jul_09_1309,59.9960066624,go-nogo,001,29,
logos/1.jpg,properties1.xlsx,frogs/ab20.jpg,0,0,400,l,0,2,2,0,0,51,51,19,,,['l'],0,[1.041074381717408],2018_Jul_09_1309,59.9960066624,go-nogo,001,29,
logos/1.jpg,properties1.xlsx,frogs/ab39.jpg,0,0,400,l,0,2,2,0,0,52,52,38,,,['l'],0,[0.5172086191287235],2018_Jul_09_1309,59.9960066624,go-nogo,001,29,
logos/1.jpg,properties1.xlsx,frogs/ab14.jpg,0,0,400,l,0,2,2,0,0,53,53,13,,,['l'],0,[0.550666709903453],2018_Jul_09_1309,59.9960066624,go-nogo,001,29,
logos/1.jpg,properties1.xlsx,frogs/ab16.jpg,0,0,400,l,0,2,2,0,0,54,54,15,,,['l'],0,[0.48419881318295666],2018_Jul_09_1309,59.9960066624,go-nogo,001,29,
logos/1.jpg,properties1.xlsx,logos/1.jpg,0,0,400,a,0,2,2,0,0,55,55,85,,,['a'],0,[0.4341496326978813],2018_Jul_09_1309,59.9960066624,go-nogo,001,29,
logos/1.jpg,properties1.xlsx,frogs/ab8.jpg,0,0,400,l,0,2,2,0,0,56,56,7,,,['l'],0,[0.3516288156115479],2018_Jul_09_1309,59.9960066624,go-nogo,001,29,
logos/1.jpg,properties1.xlsx,frogs/ab24.jpg,0,0,400,l,0,2,2,0,0,57,57,23,,,['l'],0,[0.9579038929678063],2018_Jul_09_1309,59.9960066624,go-nogo,001,29,
logos/1.jpg,properties1.xlsx,logos/1.jpg,0,0,400,a,0,2,2,0,0,58,58,87,,,['a'],0,[0.48414021757707815],2018_Jul_09_1309,59.9960066624,go-nogo,001,29,
logos/1.jpg,properties1.xlsx,frogs/ab40.jpg,0,0,400,l,0,2,2,0,0,59,59,39,,,['l'],0,[0.16798961890708597],2018_Jul_09_1309,59.9960066624,go-nogo,001,29,
logos/1.jpg,properties1.xlsx,frogs/ab69.jpg,0,0,400,l,0,2,2,0,0,60,60,67,,,['l'],0,[0.5507309944023291],2018_Jul_09_1309,59.9960066624,go-nogo,001,29,
logos/1.jpg,properties1.xlsx,frogs/ab12.jpg,0,0,400,l,0,2,2,0,0,61,61,11,,,['l'],0,[0.28424614477808063],2018_Jul_09_1309,59.9960066624,go-nogo,001,29,
logos/1.jpg,properties1.xlsx,frogs/ab44.jpg,0,0,400,l,0,2,2,0,0,62,62,43,,,['l'],0,[0.45079419801186305],2018_Jul_09_1309,59.9960066624,go-nogo,001,29,
logos/1.jpg,properties1.xlsx,frogs/ab57.jpg,0,0,400,l,0,2,2,0,0,63,63,56,,,['l'],0,[0.400727950844157],2018_Jul_09_1309,59.9960066624,go-nogo,001,29,
logos/1.jpg,properties1.xlsx,logos/1.jpg,0,0,400,a,0,2,2,0,0,64,64,82,,,['a'],0,[0.35103034399071475],2018_Jul_09_1309,59.9960066624,go-nogo,001,29,
logos/1.jpg,properties1.xlsx,frogs/ab3.jpg,0,0,400,l,0,2,2,0,0,65,65,2,,,['l'],0,[0.3675167580586276],2018_Jul_09_1309,59.9960066624,go-nogo,001,29,
logos/1.jpg,properties1.xlsx,frogs/ab2.jpg,0,0,400,l,0,2,2,0,0,66,66,1,,,['l'],0,[0.484246599889957],2018_Jul_09_1309,59.9960066624,go-nogo,001,29,
logos/1.jpg,properties1.xlsx,frogs/ab55.jpg,0,0,400,l,0,2,2,0,0,67,67,54,,,['l'],0,[0.4507907846746093],2018_Jul_09_1309,59.9960066624,go-nogo,001,29,
logos/1.jpg,properties1.xlsx,frogs/ab75.jpg,0,0,400,l,0,2,2,0,0,68,68,73,,,['l'],0,[0.36745474911731435],2018_Jul_09_1309,59.9960066624,go-nogo,001,29,
logos/1.jpg,properties1.xlsx,frogs/ab49.jpg,0,0,400,l,0,2,2,0,0,69,69,48,,,['l'],0,[0.3842711190227419],2018_Jul_09_1309,59.9960066624,go-nogo,001,29,
logos/1.jpg,properties1.xlsx,frogs/ab26.jpg,0,0,400,l,0,2,2,0,0,70,70,25,,,['l'],0,[0.36748717581212986],2018_Jul_09_1309,59.9960066624,go-nogo,001,29,
logos/1.jpg,properties1.xlsx,logos/1.jpg,0,0,400,a,0,2,2,0,0,71,71,80,,,['a'],0,[0.3510075884150865],2018_Jul_09_1309,59.9960066624,go-nogo,001,29,
logos/1.jpg,properties1.xlsx,frogs/ab37.jpg,0,0,400,l,0,2,2,0,0,72,72,36,,,['l'],0,[0.3508824327527691],2018_Jul_09_1309,59.9960066624,go-nogo,001,29,
logos/1.jpg,properties1.xlsx,frogs/ab28.jpg,0,0,400,l,0,2,2,0,0,73,73,27,,,['l'],0,[0.41751473850126786],2018_Jul_09_1309,59.9960066624,go-nogo,001,29,
logos/1.jpg,properties1.xlsx,frogs/ab4.jpg,0,0,400,l,0,2,2,0,0,74,74,3,,,['l'],0,[0.3838677764560998],2018_Jul_09_1309,59.9960066624,go-nogo,001,29,
logos/1.jpg,properties1.xlsx,frogs/ab36.jpg,0,0,400,l,0,2,2,0,0,75,75,35,,,['l'],0,[0.30086454118099937],2018_Jul_09_1309,59.9960066624,go-nogo,001,29,
logos/1.jpg,properties1.xlsx,frogs/ab54.jpg,0,0,400,l,0,2,2,0,0,76,76,53,,,['l'],0,[0.3168144925693923],2018_Jul_09_1309,59.9960066624,go-nogo,001,29,
logos/1.jpg,properties1.xlsx,logos/1.jpg,0,0,400,a,0,2,2,0,0,77,77,89,,,['a'],0,[0.4014043603092432],2018_Jul_09_1309,59.9960066624,go-nogo,001,29,
logos/1.jpg,properties1.xlsx,frogs/ab34.jpg,0,0,400,l,0,2,2,0,0,78,78,33,,,['l'],0,[0.34993409416529175],2018_Jul_09_1309,59.9960066624,go-nogo,001,29,
logos/1.jpg,properties1.xlsx,frogs/ab71.jpg,0,0,400,l,0,2,2,0,0,79,79,69,,,['l'],0,[0.35096492171214777],2018_Jul_09_1309,59.9960066624,go-nogo,001,29,
logos/1.jpg,properties1.xlsx,frogs/ab70.jpg,0,0,400,l,0,2,2,0,0,80,80,68,,,['l'],0,[0.3673642957073753],2018_Jul_09_1309,59.9960066624,go-nogo,001,29,
logos/1.jpg,properties1.xlsx,frogs/ab67.jpg,0,0,400,l,0,2,2,0,0,81,81,65,,,['l'],0,[0.35079197934283],2018_Jul_09_1309,59.9960066624,go-nogo,001,29,
logos/1.jpg,properties1.xlsx,frogs/ab64.jpg,0,0,400,l,0,2,2,0,0,82,82,62,,,['l'],0,[0.4008690354094142],2018_Jul_09_1309,59.9960066624,go-nogo,001,29,
logos/1.jpg,properties1.xlsx,frogs/ab29.jpg,0,0,400,l,0,2,2,0,0,83,83,28,,,['l'],0,[0.4674814300269645],2018_Jul_09_1309,59.9960066624,go-nogo,001,29,
logos/1.jpg,properties1.xlsx,logos/1.jpg,0,0,400,a,0,2,2,0,0,84,84,86,,,['a'],0,[0.384204558966303],2018_Jul_09_1309,59.9960066624,go-nogo,001,29,
logos/1.jpg,properties1.xlsx,frogs/ab51.jpg,0,0,400,l,0,2,2,0,0,85,85,50,,,['l'],0,[0.4675178389497887],2018_Jul_09_1309,59.9960066624,go-nogo,001,29,
logos/1.jpg,properties1.xlsx,frogs/ab62.jpg,0,0,400,l,0,2,2,0,0,86,86,60,,,['l'],0,[0.35090120610220765],2018_Jul_09_1309,59.9960066624,go-nogo,001,29,
logos/1.jpg,properties1.xlsx,frogs/ab33.jpg,0,0,400,l,0,2,2,0,0,87,87,32,,,['l'],0,[0.300986283509701],2018_Jul_09_1309,59.9960066624,go-nogo,001,29,
logos/1.jpg,properties1.xlsx,frogs/ab35.jpg,0,0,400,l,0,2,2,0,0,88,88,34,,,['l'],0,[0.3340808539724094],2018_Jul_09_1309,59.9960066624,go-nogo,001,29,
logos/1.jpg,properties1.xlsx,frogs/ab68.jpg,0,0,400,l,0,2,2,0,0,89,89,66,,,['l'],0,[0.3675275669556868],2018_Jul_09_1309,59.9960066624,go-nogo,001,29,
logos/1.jpg,properties1.xlsx,,,,,,0,2,2,0,,,,,,,,,,2018_Jul_09_1309,59.9960066624,go-nogo,001,29,
logos/4.jpg,properties4.xlsx,frogs/ab35.jpg,0,0,400,l,0,3,3,3,0,0,0,34,space,1.54376096179,['l'],0,[0.18424165055330377],2018_Jul_09_1309,59.9960066624,go-nogo,001,29,
logos/4.jpg,properties4.xlsx,frogs/ab48.jpg,0,0,400,l,0,3,3,3,0,1,1,47,,,['l'],0,[0.7005895400579902],2018_Jul_09_1309,59.9960066624,go-nogo,001,29,
logos/4.jpg,properties4.xlsx,frogs/ab16.jpg,0,0,400,l,0,3,3,3,0,2,2,15,,,['l'],0,[0.7675034460480674],2018_Jul_09_1309,59.9960066624,go-nogo,001,29,
logos/4.jpg,properties4.xlsx,frogs/ab33.jpg,0,0,400,l,0,3,3,3,0,3,3,32,,,['l'],0,[0.751833388230807],2018_Jul_09_1309,59.9960066624,go-nogo,001,29,
logos/4.jpg,properties4.xlsx,frogs/ab72.jpg,0,0,400,l,0,3,3,3,0,4,4,70,,,['l'],0,[0.5507270121761394],2018_Jul_09_1309,59.9960066624,go-nogo,001,29,
logos/4.jpg,properties4.xlsx,frogs/ab13.jpg,0,0,400,l,0,3,3,3,0,5,5,12,,,['l'],0,[0.46880068448626844],2018_Jul_09_1309,59.9960066624,go-nogo,001,29,
logos/4.jpg,properties4.xlsx,frogs/ab18.jpg,0,0,400,l,0,3,3,3,0,6,6,17,,,['l'],0,[0.36734097124281107],2018_Jul_09_1309,59.9960066624,go-nogo,001,29,
logos/4.jpg,properties4.xlsx,logos/4.jpg,0,0,400,a,0,3,3,3,0,7,7,80,,,['a'],0,[0.6873998399132688],2018_Jul_09_1309,59.9960066624,go-nogo,001,29,
logos/4.jpg,properties4.xlsx,frogs/ab37.jpg,0,0,400,l,0,3,3,3,0,8,8,36,,,['l'],0,[0.9170058669551509],2018_Jul_09_1309,59.9960066624,go-nogo,001,29,
logos/4.jpg,properties4.xlsx,frogs/ab76.jpg,0,0,400,l,0,3,3,3,0,9,9,74,,,['l'],0,[0.9839174973858462],2018_Jul_09_1309,59.9960066624,go-nogo,001,29,
logos/4.jpg,properties4.xlsx,frogs/ab11.jpg,0,0,400,l,0,3,3,3,0,10,10,10,,,['l'],0,[0.4333861831564718],2018_Jul_09_1309,59.9960066624,go-nogo,001,29,
logos/4.jpg,properties4.xlsx,frogs/ab25.jpg,0,0,400,l,0,3,3,3,0,11,11,24,,,['l'],0,[0.48450942678209685],2018_Jul_09_1309,59.9960066624,go-nogo,001,29,
logos/4.jpg,properties4.xlsx,frogs/ab73.jpg,0,0,400,l,0,3,3,3,0,12,12,71,,,['l'],0,[1.2670679612310778],2018_Jul_09_1309,59.9960066624,go-nogo,001,29,
logos/4.jpg,properties4.xlsx,frogs/ab69.jpg,0,0,400,l,0,3,3,3,0,13,13,67,,,['l'],0,[0.434153614922252],2018_Jul_09_1309,59.9960066624,go-nogo,001,29,
logos/4.jpg,properties4.xlsx,frogs/ab7.jpg,0,0,400,l,0,3,3,3,0,14,14,6,,,['l'],0,[0.43421050385950366],2018_Jul_09_1309,59.9960066624,go-nogo,001,29,
logos/4.jpg,properties4.xlsx,frogs/ab17.jpg,0,0,400,l,0,3,3,3,0,15,15,16,,,['l'],0,[1.016418147344666],2018_Jul_09_1309,59.9960066624,go-nogo,001,29,
logos/4.jpg,properties4.xlsx,frogs/ab51.jpg,0,0,400,l,0,3,3,3,0,16,16,50,,,['l'],0,[0.5508095011355181],2018_Jul_09_1309,59.9960066624,go-nogo,001,29,
logos/4.jpg,properties4.xlsx,frogs/ab31.jpg,0,0,400,l,0,3,3,3,0,17,17,30,,,['l'],0,[0.41751360072339594],2018_Jul_09_1309,59.9960066624,go-nogo,001,29,
logos/4.jpg,properties4.xlsx,frogs/ab26.jpg,0,0,400,l,0,3,3,3,0,18,18,25,,,['l'],0,[0.6011345929691743],2018_Jul_09_1309,59.9960066624,go-nogo,001,29,
logos/4.jpg,properties4.xlsx,frogs/ab12.jpg,0,0,400,l,0,3,3,3,0,19,19,11,,,['l'],0,[0.467318158778653],2018_Jul_09_1309,59.9960066624,go-nogo,001,29,
logos/4.jpg,properties4.xlsx,frogs/ab66.jpg,0,0,400,l,0,3,3,3,0,20,20,64,,,['l'],0,[0.5840832717512967],2018_Jul_09_1309,59.9960066624,go-nogo,001,29,
logos/4.jpg,properties4.xlsx,frogs/ab70.jpg,0,0,400,l,0,3,3,3,0,21,21,68,,,['l'],0,[0.41723939604344196],2018_Jul_09_1309,59.9960066624,go-nogo,001,29,
logos/4.jpg,properties4.xlsx,frogs/ab57.jpg,0,0,400,l,0,3,3,3,0,22,22,56,,,['l'],0,[0.40079678645815875],2018_Jul_09_1309,59.9960066624,go-nogo,001,29,
logos/4.jpg,properties4.xlsx,frogs/ab47.jpg,0,0,400,l,0,3,3,3,0,23,23,46,,,['l'],0,[0.5341194246702798],2018_Jul_09_1309,59.9960066624,go-nogo,001,29,
logos/4.jpg,properties4.xlsx,frogs/ab20.jpg,0,0,400,l,0,3,3,3,0,24,24,19,,,['l'],0,[0.45082548692698765],2018_Jul_09_1309,59.9960066624,go-nogo,001,29,
logos/4.jpg,properties4.xlsx,frogs/ab80.jpg,0,0,400,l,0,3,3,3,0,25,25,78,,,['l'],0,[0.8838453053249395],2018_Jul_09_1309,59.9960066624,go-nogo,001,29,
logos/4.jpg,properties4.xlsx,frogs/ab34.jpg,0,0,400,l,0,3,3,3,0,26,26,33,,,['l'],0,[0.5665819590394676],2018_Jul_09_1309,59.9960066624,go-nogo,001,29,
logos/4.jpg,properties4.xlsx,frogs/ab64.jpg,0,0,400,l,0,3,3,3,0,27,27,62,,,['l'],0,[0.8506011169574776],2018_Jul_09_1309,59.9960066624,go-nogo,001,29,
logos/4.jpg,properties4.xlsx,frogs/ab29.jpg,0,0,400,l,0,3,3,3,0,28,28,28,,,['l'],0,[0.5841083028844878],2018_Jul_09_1309,59.9960066624,go-nogo,001,29,
logos/4.jpg,properties4.xlsx,frogs/ab9.jpg,0,0,400,l,0,3,3,3,0,29,29,8,,,['l'],0,[0.397896019538166],2018_Jul_09_1309,59.9960066624,go-nogo,001,29,
logos/4.jpg,properties4.xlsx,frogs/ab78.jpg,0,0,400,l,0,3,3,3,0,30,30,76,,,['l'],0,[0.6837885301665665],2018_Jul_09_1309,59.9960066624,go-nogo,001,29,
logos/4.jpg,properties4.xlsx,frogs/ab52.jpg,0,0,400,l,0,3,3,3,0,31,31,51,,,['l'],0,[1.0857913620984618],2018_Jul_09_1309,59.9960066624,go-nogo,001,29,
logos/4.jpg,properties4.xlsx,frogs/ab58.jpg,0,0,400,l,0,3,3,3,0,32,32,57,,,['l'],0,[0.8005496609130205],2018_Jul_09_1309,59.9960066624,go-nogo,001,29,
logos/4.jpg,properties4.xlsx,frogs/ab1.jpg,0,0,400,l,0,3,3,3,0,33,33,0,,,['l'],0,[0.4175454585274565],2018_Jul_09_1309,59.9960066624,go-nogo,001,29,
logos/4.jpg,properties4.xlsx,frogs/ab50.jpg,0,0,400,l,0,3,3,3,0,34,34,49,,,['l'],0,[0.4834086258415482],2018_Jul_09_1309,59.9960066624,go-nogo,001,29,
logos/4.jpg,properties4.xlsx,frogs/ab39.jpg,0,0,400,l,0,3,3,3,0,35,35,38,,,['l'],0,[0.5341217002278427],2018_Jul_09_1309,59.9960066624,go-nogo,001,29,
logos/4.jpg,properties4.xlsx,frogs/ab68.jpg,0,0,400,l,0,3,3,3,0,36,36,66,,,['l'],0,[0.4840543152822647],2018_Jul_09_1309,59.9960066624,go-nogo,001,29,
logos/4.jpg,properties4.xlsx,frogs/ab71.jpg,0,0,400,l,0,3,3,3,0,37,37,69,,,['l'],0,[0.5838852982487879],2018_Jul_09_1309,59.9960066624,go-nogo,001,29,
logos/4.jpg,properties4.xlsx,frogs/ab40.jpg,0,0,400,l,0,3,3,3,0,38,38,39,,,['l'],0,[0.43427706391594256],2018_Jul_09_1309,59.9960066624,go-nogo,001,29,
logos/4.jpg,properties4.xlsx,frogs/ab8.jpg,0,0,400,l,0,3,3,3,0,39,39,7,,,['l'],0,[0.500704569489244],2018_Jul_09_1309,59.9960066624,go-nogo,001,29,
logos/4.jpg,properties4.xlsx,frogs/ab41.jpg,0,0,400,l,0,3,3,3,0,40,40,40,,,['l'],0,[0.7338860662493971],2018_Jul_09_1309,59.9960066624,go-nogo,001,29,
logos/4.jpg,properties4.xlsx,frogs/ab28.jpg,0,0,400,l,0,3,3,3,0,41,41,27,,,['l'],0,[0.5176301661558682],2018_Jul_09_1309,59.9960066624,go-nogo,001,29,
logos/4.jpg,properties4.xlsx,frogs/ab63.jpg,0,0,400,l,0,3,3,3,0,42,42,61,,,['l'],0,[0.4840816219730186],2018_Jul_09_1309,59.9960066624,go-nogo,001,29,
logos/4.jpg,properties4.xlsx,frogs/ab30.jpg,0,0,400,l,0,3,3,3,0,43,43,29,,,['l'],0,[0.6339031898187386],2018_Jul_09_1309,59.9960066624,go-nogo,001,29,
logos/4.jpg,properties4.xlsx,frogs/ab53.jpg,0,0,400,l,0,3,3,3,0,44,44,52,,,['l'],0,[0.43424179277462827],2018_Jul_09_1309,59.9960066624,go-nogo,001,29,
logos/4.jpg,properties4.xlsx,frogs/ab36.jpg,0,0,400,l,0,3,3,3,0,45,45,35,,,['l'],0,[0.41746240067914187],2018_Jul_09_1309,59.9960066624,go-nogo,001,29,
logos/4.jpg,properties4.xlsx,logos/4.jpg,0,0,400,a,0,3,3,3,0,46,46,84,,,['a'],0,[0.667285049416023],2018_Jul_09_1309,59.9960066624,go-nogo,001,29,
logos/4.jpg,properties4.xlsx,frogs/ab38.jpg,0,0,400,l,0,3,3,3,0,47,47,37,,,['l'],0,[0.45083629582404683],2018_Jul_09_1309,59.9960066624,go-nogo,001,29,
logos/4.jpg,properties4.xlsx,logos/4.jpg,0,0,400,a,0,3,3,3,0,48,48,83,,,['a'],0,[0.9505692022630683],2018_Jul_09_1309,59.9960066624,go-nogo,001,29,
logos/4.jpg,properties4.xlsx,frogs/ab4.jpg,0,0,400,l,0,3,3,3,0,49,49,3,,,['l'],0,[0.5175516594226792],2018_Jul_09_1309,59.9960066624,go-nogo,001,29,
logos/4.jpg,properties4.xlsx,frogs/ab32.jpg,0,0,400,l,0,3,3,3,0,50,50,31,,,['l'],0,[0.5673243596720567],2018_Jul_09_1309,59.9960066624,go-nogo,001,29,
logos/4.jpg,properties4.xlsx,frogs/ab75.jpg,0,0,400,l,0,3,3,3,0,51,51,73,,,['l'],0,[0.4175374940768961],2018_Jul_09_1309,59.9960066624,go-nogo,001,29,
logos/4.jpg,properties4.xlsx,frogs/ab43.jpg,0,0,400,l,0,3,3,3,0,52,52,42,,,['l'],0,[0.48414306202357693],2018_Jul_09_1309,59.9960066624,go-nogo,001,29,
logos/4.jpg,properties4.xlsx,frogs/ab54.jpg,0,0,400,l,0,3,3,3,0,53,53,53,,,['l'],0,[0.4008235242599767],2018_Jul_09_1309,59.9960066624,go-nogo,001,29,
logos/4.jpg,properties4.xlsx,frogs/ab14.jpg,0,0,400,l,0,3,3,3,0,54,54,13,,,['l'],0,[0.4173287116755091],2018_Jul_09_1309,59.9960066624,go-nogo,001,29,
logos/4.jpg,properties4.xlsx,frogs/ab77.jpg,0,0,400,l,0,3,3,3,0,55,55,75,,,['l'],0,[0.3675873003412562],2018_Jul_09_1309,59.9960066624,go-nogo,001,29,
logos/4.jpg,properties4.xlsx,frogs/ab5.jpg,0,0,400,l,0,3,3,3,0,56,56,4,,,['l'],0,[0.6507707597702392],2018_Jul_09_1309,59.9960066624,go-nogo,001,29,
logos/4.jpg,properties4.xlsx,frogs/ab42.jpg,0,0,400,l,0,3,3,3,0,57,57,41,,,['l'],0,[0.33436984977379325],2018_Jul_09_1309,59.9960066624,go-nogo,001,29,
logos/4.jpg,properties4.xlsx,logos/4.jpg,0,0,400,a,0,3,3,3,0,58,58,89,,,['a'],0,[0.4843017821585818],2018_Jul_09_1309,59.9960066624,go-nogo,001,29,
logos/4.jpg,properties4.xlsx,frogs/ab56.jpg,0,0,400,l,0,3,3,3,0,59,59,55,,,['l'],0,[0.5176335794931219],2018_Jul_09_1309,59.9960066624,go-nogo,001,29,
logos/4.jpg,properties4.xlsx,frogs/ab49.jpg,0,0,400,l,0,3,3,3,0,60,60,48,,,['l'],0,[0.3674029801841243],2018_Jul_09_1309,59.9960066624,go-nogo,001,29,
logos/4.jpg,properties4.xlsx,frogs/ab21.jpg,0,0,400,l,0,3,3,3,0,61,61,20,,,['l'],0,[0.41738048061051813],2018_Jul_09_1309,59.9960066624,go-nogo,001,29,
logos/4.jpg,properties4.xlsx,frogs/ab67.jpg,0,0,400,l,0,3,3,3,0,62,62,65,,,['l'],0,[0.4173747917138826],2018_Jul_09_1309,59.9960066624,go-nogo,001,29,
logos/4.jpg,properties4.xlsx,frogs/ab27.jpg,0,0,400,l,0,3,3,3,0,63,63,26,,,['l'],0,[0.41757219632927445],2018_Jul_09_1309,59.9960066624,go-nogo,001,29,
logos/4.jpg,properties4.xlsx,frogs/ab81.jpg,0,0,400,l,0,3,3,3,0,64,64,79,,,['l'],0,[0.45005009070882807],2018_Jul_09_1309,59.9960066624,go-nogo,001,29,
logos/4.jpg,properties4.xlsx,frogs/ab44.jpg,0,0,400,l,0,3,3,3,0,65,65,43,,,['l'],0,[0.4341655615990021],2018_Jul_09_1309,59.9960066624,go-nogo,001,29,
logos/4.jpg,properties4.xlsx,frogs/ab79.jpg,0,0,400,l,0,3,3,3,0,66,66,77,,,['l'],0,[0.3508898283143935],2018_Jul_09_1309,59.9960066624,go-nogo,001,29,
logos/4.jpg,properties4.xlsx,logos/4.jpg,0,0,400,a,0,3,3,3,0,67,67,85,,,['a'],0,[0.4502059663991531],2018_Jul_09_1309,59.9960066624,go-nogo,001,29,
logos/4.jpg,properties4.xlsx,frogs/ab74.jpg,0,0,400,l,0,3,3,3,0,68,68,72,,,['l'],0,[0.6174196201973245],2018_Jul_09_1309,59.9960066624,go-nogo,001,29,
logos/4.jpg,properties4.xlsx,frogs/ab24.jpg,0,0,400,l,0,3,3,3,0,69,69,23,,,['l'],0,[0.33344597343057103],2018_Jul_09_1309,59.9960066624,go-nogo,001,29,
logos/4.jpg,properties4.xlsx,frogs/ab45.jpg,0,0,400,l,0,3,3,3,0,70,70,44,,,['l'],0,[0.3675469091958803],2018_Jul_09_1309,59.9960066624,go-nogo,001,29,
logos/4.jpg,properties4.xlsx,frogs/ab60.jpg,0,0,400,l,0,3,3,3,0,71,71,58,,,['l'],0,[0.4001055858680047],2018_Jul_09_1309,59.9960066624,go-nogo,001,29,
logos/4.jpg,properties4.xlsx,frogs/ab23.jpg,0,0,400,l,0,3,3,3,0,72,72,22,,,['l'],0,[0.3843507635356218],2018_Jul_09_1309,59.9960066624,go-nogo,001,29,
logos/4.jpg,properties4.xlsx,logos/4.jpg,0,0,400,a,0,3,3,3,0,73,73,87,,,['a'],0,[0.4341183437809377],2018_Jul_09_1309,59.9960066624,go-nogo,001,29,
logos/4.jpg,properties4.xlsx,logos/4.jpg,0,0,400,a,0,3,3,3,0,74,74,82,,,['a'],0,[0.4508300380402943],2018_Jul_09_1309,59.9960066624,go-nogo,001,29,
logos/4.jpg,properties4.xlsx,frogs/ab10.jpg,0,0,400,l,0,3,3,3,0,75,75,9,,,['l'],0,[0.5840593783977965],2018_Jul_09_1309,59.9960066624,go-nogo,001,29,
logos/4.jpg,properties4.xlsx,frogs/ab2.jpg,0,0,400,l,0,3,3,3,0,76,76,1,,,['l'],0,[0.5173400325747934],2018_Jul_09_1309,59.9960066624,go-nogo,001,29,
logos/4.jpg,properties4.xlsx,frogs/ab22.jpg,0,0,400,l,0,3,3,3,0,77,77,21,,,['l'],0,[0.3176120754724252],2018_Jul_09_1309,59.9960066624,go-nogo,001,29,
logos/4.jpg,properties4.xlsx,frogs/ab61.jpg,0,0,400,l,0,3,3,3,0,78,78,59,,,['l'],0,[0.38437351910943107],2018_Jul_09_1309,59.9960066624,go-nogo,001,29,
logos/4.jpg,properties4.xlsx,frogs/ab15.jpg,0,0,400,l,0,3,3,3,0,79,79,14,,,['l'],0,[0.35088015719702526],2018_Jul_09_1309,59.9960066624,go-nogo,001,29,
logos/4.jpg,properties4.xlsx,frogs/ab55.jpg,0,0,400,l,0,3,3,3,0,80,80,54,,,['l'],0,[1.0836512002715608],2018_Jul_09_1309,59.9960066624,go-nogo,001,29,
logos/4.jpg,properties4.xlsx,logos/4.jpg,0,0,400,a,0,3,3,3,0,81,81,88,,,['a'],0,[0.40091795989428647],2018_Jul_09_1309,59.9960066624,go-nogo,001,29,
logos/4.jpg,properties4.xlsx,frogs/ab3.jpg,0,0,400,l,0,3,3,3,0,82,82,2,,,['l'],0,[0.46756164343059936],2018_Jul_09_1309,59.9960066624,go-nogo,001,29,
logos/4.jpg,properties4.xlsx,frogs/ab6.jpg,0,0,400,l,0,3,3,3,0,83,83,5,,,['l'],0,[0.3834513494348357],2018_Jul_09_1309,59.9960066624,go-nogo,001,29,
logos/4.jpg,properties4.xlsx,logos/4.jpg,0,0,400,a,0,3,3,3,0,84,84,81,,,['a'],0,[0.38416132337260933],2018_Jul_09_1309,59.9960066624,go-nogo,001,29,
logos/4.jpg,properties4.xlsx,frogs/ab65.jpg,0,0,400,l,0,3,3,3,0,85,85,63,,,['l'],0,[0.8005109764362714],2018_Jul_09_1309,59.9960066624,go-nogo,001,29,
logos/4.jpg,properties4.xlsx,frogs/ab19.jpg,0,0,400,l,0,3,3,3,0,86,86,18,,,['l'],0,[0.38496857739664847],2018_Jul_09_1309,59.9960066624,go-nogo,001,29,
logos/4.jpg,properties4.xlsx,logos/4.jpg,0,0,400,a,0,3,3,3,0,87,87,86,,,['a'],0,[0.3666867484607792],2018_Jul_09_1309,59.9960066624,go-nogo,001,29,
logos/4.jpg,properties4.xlsx,frogs/ab62.jpg,0,0,400,l,0,3,3,3,0,88,88,60,,,['l'],0,[1.2170312963098695],2018_Jul_09_1309,59.9960066624,go-nogo,001,29,
logos/4.jpg,properties4.xlsx,frogs/ab46.jpg,0,0,400,l,0,3,3,3,0,89,89,45,,,['l'],0,[0.40120240458236367],2018_Jul_09_1309,59.9960066624,go-nogo,001,29,
logos/4.jpg,properties4.xlsx,,,,,,0,3,3,3,,,,,,,,,,2018_Jul_09_1309,59.9960066624,go-nogo,001,29,
