pix,source,image1,x,y,size,answer,trials_2.thisRepN,trials_2.thisTrialN,trials_2.thisN,trials_2.thisIndex,trials.thisRepN,trials.thisTrialN,trials.thisN,trials.thisIndex,key_resp_3.keys,key_resp_3.rt,key_resp_2.keys,key_resp_2.corr,key_resp_2.rt,date,frameRate,expName,session,participant,
logos/3.jpg,properties3.xlsx,frogs/ab28.jpg,0,0,400,l,0,0,0,2,0,0,0,27,space,17.0838605516,['a'],0,[0.15041150612887577],2018_Jul_09_1053,60.0763851864,go-nogo,001,2,
logos/3.jpg,properties3.xlsx,frogs/ab22.jpg,0,0,400,l,0,0,0,2,0,1,1,21,,,['l'],0,[0.5169093833183069],2018_Jul_09_1053,60.0763851864,go-nogo,001,2,
logos/3.jpg,properties3.xlsx,frogs/ab2.jpg,0,0,400,l,0,0,0,2,0,2,2,1,,,['l'],0,[0.3336098135694101],2018_Jul_09_1053,60.0763851864,go-nogo,001,2,
logos/3.jpg,properties3.xlsx,frogs/ab41.jpg,0,0,400,l,0,0,0,2,0,3,3,40,,,['l'],0,[0.4003041282594495],2018_Jul_09_1053,60.0763851864,go-nogo,001,2,
logos/3.jpg,properties3.xlsx,frogs/ab80.jpg,0,0,400,l,0,0,0,2,0,4,4,78,,,['l'],0,[0.5668100836778649],2018_Jul_09_1053,60.0763851864,go-nogo,001,2,
logos/3.jpg,properties3.xlsx,frogs/ab79.jpg,0,0,400,l,0,0,0,2,0,5,5,77,,,['l'],0,[1.0998696674441817],2018_Jul_09_1053,60.0763851864,go-nogo,001,2,
logos/3.jpg,properties3.xlsx,frogs/ab18.jpg,0,0,400,l,0,0,0,2,0,6,6,17,,,['l'],0,[0.41685084460164035],2018_Jul_09_1053,60.0763851864,go-nogo,001,2,
logos/3.jpg,properties3.xlsx,logos/3.jpg,0,0,400,a,0,0,0,2,0,7,7,87,,,['a'],0,[0.25040632923560224],2018_Jul_09_1053,60.0763851864,go-nogo,001,2,
logos/3.jpg,properties3.xlsx,frogs/ab9.jpg,0,0,400,l,0,0,0,2,0,8,8,8,,,['l'],0,[0.1504416572656737],2018_Jul_09_1053,60.0763851864,go-nogo,001,2,
logos/3.jpg,properties3.xlsx,frogs/ab4.jpg,0,0,400,l,0,0,0,2,0,9,9,3,,,['l'],0,[0.8167766614271841],2018_Jul_09_1053,60.0763851864,go-nogo,001,2,
logos/3.jpg,properties3.xlsx,frogs/ab55.jpg,0,0,400,l,0,0,0,2,0,10,10,54,,,['l'],0,[1.4496569881516734],2018_Jul_09_1053,60.0763851864,go-nogo,001,2,
logos/3.jpg,properties3.xlsx,frogs/ab32.jpg,0,0,400,l,0,0,0,2,0,11,11,31,,,['l'],0,[0.8834385494230901],2018_Jul_09_1053,60.0763851864,go-nogo,001,2,
logos/3.jpg,properties3.xlsx,frogs/ab44.jpg,0,0,400,l,0,0,0,2,0,12,12,43,,,['l'],0,[1.166472959834664],2018_Jul_09_1053,60.0763851864,go-nogo,001,2,
logos/3.jpg,properties3.xlsx,frogs/ab1.jpg,0,0,400,l,0,0,0,2,0,13,13,0,,,['l'],0,[1.1661333328781893],2018_Jul_09_1053,60.0763851864,go-nogo,001,2,
logos/3.jpg,properties3.xlsx,frogs/ab48.jpg,0,0,400,l,0,0,0,2,0,14,14,47,,,['l'],0,[0.716751118294269],2018_Jul_09_1053,60.0763851864,go-nogo,001,2,
logos/3.jpg,properties3.xlsx,frogs/ab57.jpg,0,0,400,l,0,0,0,2,0,15,15,56,,,['l'],0,[0.6167807574306607],2018_Jul_09_1053,60.0763851864,go-nogo,001,2,
logos/3.jpg,properties3.xlsx,frogs/ab5.jpg,0,0,400,l,0,0,0,2,0,16,16,4,,,['l'],0,[1.7994704777702282],2018_Jul_09_1053,60.0763851864,go-nogo,001,2,
logos/3.jpg,properties3.xlsx,frogs/ab81.jpg,0,0,400,l,0,0,0,2,0,17,17,79,,,['l'],0,[0.5503475629632248],2018_Jul_09_1053,60.0763851864,go-nogo,001,2,
logos/3.jpg,properties3.xlsx,logos/3.jpg,0,0,400,a,0,0,0,2,0,18,18,89,,,['l'],0,[3.315357566882767],2018_Jul_09_1053,60.0763851864,go-nogo,001,2,
logos/3.jpg,properties3.xlsx,frogs/ab34.jpg,0,0,400,l,0,0,0,2,0,19,19,33,,,['l'],0,[0.7667530809624168],2018_Jul_09_1053,60.0763851864,go-nogo,001,2,
logos/3.jpg,properties3.xlsx,frogs/ab77.jpg,0,0,400,l,0,0,0,2,0,20,20,75,,,['l'],0,[0.7501335467807166],2018_Jul_09_1053,60.0763851864,go-nogo,001,2,
logos/3.jpg,properties3.xlsx,frogs/ab66.jpg,0,0,400,l,0,0,0,2,0,21,21,64,,,['l'],0,[0.7169325940046747],2018_Jul_09_1053,60.0763851864,go-nogo,001,2,
logos/3.jpg,properties3.xlsx,frogs/ab60.jpg,0,0,400,l,0,0,0,2,0,22,22,58,,,['l'],0,[0.7167915094398722],2018_Jul_09_1053,60.0763851864,go-nogo,001,2,
logos/3.jpg,properties3.xlsx,frogs/ab16.jpg,0,0,400,l,0,0,0,2,0,23,23,15,,,['l'],0,[0.7167971983335519],2018_Jul_09_1053,60.0763851864,go-nogo,001,2,
logos/3.jpg,properties3.xlsx,frogs/ab43.jpg,0,0,400,l,0,0,0,2,0,24,24,42,,,['l'],0,[0.7501159112100595],2018_Jul_09_1053,60.0763851864,go-nogo,001,2,
logos/3.jpg,properties3.xlsx,frogs/ab62.jpg,0,0,400,l,0,0,0,2,0,25,25,60,,,['l'],0,[0.8500510009323534],2018_Jul_09_1053,60.0763851864,go-nogo,001,2,
logos/3.jpg,properties3.xlsx,frogs/ab49.jpg,0,0,400,l,0,0,0,2,0,26,26,48,,,['l'],0,[0.8167152213748068],2018_Jul_09_1053,60.0763851864,go-nogo,001,2,
logos/3.jpg,properties3.xlsx,frogs/ab30.jpg,0,0,400,l,0,0,0,2,0,27,27,29,,,['l'],0,[0.550189411717156],2018_Jul_09_1053,60.0763851864,go-nogo,001,2,
logos/3.jpg,properties3.xlsx,frogs/ab65.jpg,0,0,400,l,0,0,0,2,0,28,28,63,,,['l'],0,[0.6169633709198479],2018_Jul_09_1053,60.0763851864,go-nogo,001,2,
logos/3.jpg,properties3.xlsx,frogs/ab37.jpg,0,0,400,l,0,0,0,2,0,29,29,36,,,['l'],0,[0.7501625601387332],2018_Jul_09_1053,60.0763851864,go-nogo,001,2,
logos/3.jpg,properties3.xlsx,logos/3.jpg,0,0,400,a,0,0,0,2,0,30,30,82,,,['a'],0,[0.15044336393384583],2018_Jul_09_1053,60.0763851864,go-nogo,001,2,
logos/3.jpg,properties3.xlsx,frogs/ab12.jpg,0,0,400,l,0,0,0,2,0,31,31,11,,,['l'],0,[0.5002761957912298],2018_Jul_09_1053,60.0763851864,go-nogo,001,2,
logos/3.jpg,properties3.xlsx,frogs/ab76.jpg,0,0,400,l,0,0,0,2,0,32,32,74,,,['l'],0,[0.26704520565635903],2018_Jul_09_1053,60.0763851864,go-nogo,001,2,
logos/3.jpg,properties3.xlsx,logos/3.jpg,0,0,400,a,0,0,0,2,0,33,33,85,,,['l'],0,[0.899651327702486],2018_Jul_09_1053,60.0763851864,go-nogo,001,2,
logos/3.jpg,properties3.xlsx,frogs/ab53.jpg,0,0,400,l,0,0,0,2,0,34,34,52,,,['l'],0,[0.33352106682673366],2018_Jul_09_1053,60.0763851864,go-nogo,001,2,
logos/3.jpg,properties3.xlsx,frogs/ab3.jpg,0,0,400,l,0,0,0,2,0,35,35,2,,,['l'],0,[0.45033624206462264],2018_Jul_09_1053,60.0763851864,go-nogo,001,2,
logos/3.jpg,properties3.xlsx,logos/3.jpg,0,0,400,a,0,0,0,2,0,36,36,84,,,['l'],0,[0.7667240676046276],2018_Jul_09_1053,60.0763851864,go-nogo,001,2,
logos/3.jpg,properties3.xlsx,frogs/ab47.jpg,0,0,400,l,0,0,0,2,0,37,37,46,,,['l'],0,[0.417165440425606],2018_Jul_09_1053,60.0763851864,go-nogo,001,2,
logos/3.jpg,properties3.xlsx,frogs/ab72.jpg,0,0,400,l,0,0,0,2,0,38,38,70,,,['l'],0,[0.2837039932051084],2018_Jul_09_1053,60.0763851864,go-nogo,001,2,
logos/3.jpg,properties3.xlsx,frogs/ab67.jpg,0,0,400,l,0,0,0,2,0,39,39,65,,,['l'],0,[0.30036107408591306],2018_Jul_09_1053,60.0763851864,go-nogo,001,2,
logos/3.jpg,properties3.xlsx,frogs/ab38.jpg,0,0,400,l,0,0,0,2,0,40,40,37,,,['l'],0,[0.3003781407671795],2018_Jul_09_1053,60.0763851864,go-nogo,001,2,
logos/3.jpg,properties3.xlsx,frogs/ab56.jpg,0,0,400,l,0,0,0,2,0,41,41,55,,,['l'],0,[0.3169834527147941],2018_Jul_09_1053,60.0763851864,go-nogo,001,2,
logos/3.jpg,properties3.xlsx,frogs/ab13.jpg,0,0,400,l,0,0,0,2,0,42,42,12,,,['l'],0,[0.23413552424017325],2018_Jul_09_1053,60.0763851864,go-nogo,001,2,
logos/3.jpg,properties3.xlsx,frogs/ab39.jpg,0,0,400,l,0,0,0,2,0,43,43,38,,,['l'],0,[0.6836855611895771],2018_Jul_09_1053,60.0763851864,go-nogo,001,2,
logos/3.jpg,properties3.xlsx,logos/3.jpg,0,0,400,a,0,0,0,2,0,44,44,88,,,['a'],0,[0.03377439326527565],2018_Jul_09_1053,60.0763851864,go-nogo,001,2,
logos/3.jpg,properties3.xlsx,frogs/ab46.jpg,0,0,400,l,0,0,0,2,0,45,45,45,,,['l'],0,[0.8833139626501634],2018_Jul_09_1053,60.0763851864,go-nogo,001,2,
logos/3.jpg,properties3.xlsx,frogs/ab24.jpg,0,0,400,l,0,0,0,2,0,46,46,23,,,['l'],0,[0.3169208748836354],2018_Jul_09_1053,60.0763851864,go-nogo,001,2,
logos/3.jpg,properties3.xlsx,frogs/ab70.jpg,0,0,400,l,0,0,0,2,0,47,47,68,,,['l'],0,[0.16702080030222533],2018_Jul_09_1053,60.0763851864,go-nogo,001,2,
logos/3.jpg,properties3.xlsx,frogs/ab75.jpg,0,0,400,l,0,0,0,2,0,48,48,73,,,['l'],0,[0.16710101370404118],2018_Jul_09_1053,60.0763851864,go-nogo,001,2,
logos/3.jpg,properties3.xlsx,frogs/ab61.jpg,0,0,400,l,0,0,0,2,0,49,49,59,,,['l'],0,[0.20043963770854134],2018_Jul_09_1053,60.0763851864,go-nogo,001,2,
logos/3.jpg,properties3.xlsx,frogs/ab78.jpg,0,0,400,l,0,0,0,2,0,50,50,76,,,['l'],0,[0.18365569449724717],2018_Jul_09_1053,60.0763851864,go-nogo,001,2,
logos/3.jpg,properties3.xlsx,frogs/ab31.jpg,0,0,400,l,0,0,0,2,0,51,51,30,,,['l'],0,[0.2670634101161795],2018_Jul_09_1053,60.0763851864,go-nogo,001,2,
logos/3.jpg,properties3.xlsx,frogs/ab50.jpg,0,0,400,l,0,0,0,2,0,52,52,49,,,['l'],0,[0.11703362875755374],2018_Jul_09_1053,60.0763851864,go-nogo,001,2,
logos/3.jpg,properties3.xlsx,frogs/ab8.jpg,0,0,400,l,0,0,0,2,0,53,53,7,,,['l'],0,[0.2504859737480274],2018_Jul_09_1053,60.0763851864,go-nogo,001,2,
logos/3.jpg,properties3.xlsx,frogs/ab20.jpg,0,0,400,l,0,0,0,2,0,54,54,19,,,['l'],0,[0.0672580840603132],2018_Jul_09_1053,60.0763851864,go-nogo,001,2,
logos/3.jpg,properties3.xlsx,frogs/ab69.jpg,0,0,400,l,0,0,0,2,0,55,55,67,,,['l'],0,[0.000577422714968634],2018_Jul_09_1053,60.0763851864,go-nogo,001,2,
logos/3.jpg,properties3.xlsx,frogs/ab11.jpg,0,0,400,l,0,0,0,2,0,56,56,10,,,['l'],0,[0.017133241286956036],2018_Jul_09_1053,60.0763851864,go-nogo,001,2,
logos/3.jpg,properties3.xlsx,frogs/ab15.jpg,0,0,400,l,0,0,0,2,0,57,57,14,,,['l'],0,[0.033897273370030234],2018_Jul_09_1053,60.0763851864,go-nogo,001,2,
logos/3.jpg,properties3.xlsx,frogs/ab45.jpg,0,0,400,l,0,0,0,2,0,58,58,44,,,['l'],0,[0.06707091945600041],2018_Jul_09_1053,60.0763851864,go-nogo,001,2,
logos/3.jpg,properties3.xlsx,frogs/ab42.jpg,0,0,400,l,0,0,0,2,0,59,59,41,,,['l'],0,[0.40040482167887603],2018_Jul_09_1053,60.0763851864,go-nogo,001,2,
logos/3.jpg,properties3.xlsx,frogs/ab7.jpg,0,0,400,l,0,0,0,2,0,60,60,6,,,['l'],0,[0.20012731744191115],2018_Jul_09_1053,60.0763851864,go-nogo,001,2,
logos/3.jpg,properties3.xlsx,frogs/ab40.jpg,0,0,400,l,0,0,0,2,0,61,61,39,,,['l'],0,[0.4169993247282946],2018_Jul_09_1053,60.0763851864,go-nogo,001,2,
logos/3.jpg,properties3.xlsx,frogs/ab71.jpg,0,0,400,l,0,0,0,2,0,62,62,69,,,['l'],0,[0.05020676284311776],2018_Jul_09_1053,60.0763851864,go-nogo,001,2,
logos/3.jpg,properties3.xlsx,frogs/ab26.jpg,0,0,400,l,0,0,0,2,0,63,63,25,,,['l'],0,[0.10049999687112177],2018_Jul_09_1053,60.0763851864,go-nogo,001,2,
logos/3.jpg,properties3.xlsx,frogs/ab19.jpg,0,0,400,l,0,0,0,2,0,64,64,18,,,['l'],0,[0.050571420931873945],2018_Jul_09_1053,60.0763851864,go-nogo,001,2,
logos/3.jpg,properties3.xlsx,logos/3.jpg,0,0,400,a,0,0,0,2,0,65,65,80,,,['a'],0,[0.016914787767291273],2018_Jul_09_1053,60.0763851864,go-nogo,001,2,
logos/3.jpg,properties3.xlsx,frogs/ab10.jpg,0,0,400,l,0,0,0,2,0,66,66,9,,,['l'],0,[0.5503498385205603],2018_Jul_09_1053,60.0763851864,go-nogo,001,2,
logos/3.jpg,properties3.xlsx,logos/3.jpg,0,0,400,a,0,0,0,2,0,67,67,83,,,['l'],0,[0.4836737282903414],2018_Jul_09_1053,60.0763851864,go-nogo,001,2,
logos/3.jpg,properties3.xlsx,frogs/ab6.jpg,0,0,400,l,0,0,0,2,0,68,68,5,,,['l'],0,[0.01713039684045725],2018_Jul_09_1053,60.0763851864,go-nogo,001,2,
logos/3.jpg,properties3.xlsx,frogs/ab23.jpg,0,0,400,l,0,0,0,2,0,69,69,22,,,['l'],0,[0.5998938452430593],2018_Jul_09_1053,60.0763851864,go-nogo,001,2,
logos/3.jpg,properties3.xlsx,frogs/ab36.jpg,0,0,400,l,0,0,0,2,0,70,70,35,,,['l'],0,[0.05051111865805069],2018_Jul_09_1053,60.0763851864,go-nogo,001,2,
logos/3.jpg,properties3.xlsx,logos/3.jpg,0,0,400,a,0,0,0,2,0,71,71,81,,,['l'],0,[0.5001510401289124],2018_Jul_09_1053,60.0763851864,go-nogo,001,2,
logos/3.jpg,properties3.xlsx,frogs/ab63.jpg,0,0,400,l,0,0,0,2,0,72,72,61,,,['l'],0,[0.03392685561766484],2018_Jul_09_1053,60.0763851864,go-nogo,001,2,
logos/3.jpg,properties3.xlsx,frogs/ab74.jpg,0,0,400,l,0,0,0,2,0,73,73,72,,,['l'],0,[0.5835325868370091],2018_Jul_09_1053,60.0763851864,go-nogo,001,2,
logos/3.jpg,properties3.xlsx,frogs/ab64.jpg,0,0,400,l,0,0,0,2,0,74,74,62,,,['l'],0,[0.3670184109669208],2018_Jul_09_1053,60.0763851864,go-nogo,001,2,
logos/3.jpg,properties3.xlsx,frogs/ab25.jpg,0,0,400,l,0,0,0,2,0,75,75,24,,,['l'],0,[0.1004698457345512],2018_Jul_09_1053,60.0763851864,go-nogo,001,2,
logos/3.jpg,properties3.xlsx,frogs/ab51.jpg,0,0,400,l,0,0,0,2,0,76,76,50,,,['l'],0,[0.11709222436275013],2018_Jul_09_1053,60.0763851864,go-nogo,001,2,
logos/3.jpg,properties3.xlsx,frogs/ab27.jpg,0,0,400,l,0,0,0,2,0,77,77,26,,,['l'],0,[0.10062515253366655],2018_Jul_09_1053,60.0763851864,go-nogo,001,2,
logos/3.jpg,properties3.xlsx,frogs/ab17.jpg,0,0,400,l,0,0,0,2,0,78,78,16,,,['l'],0,[0.1336571451652162],2018_Jul_09_1053,60.0763851864,go-nogo,001,2,
logos/3.jpg,properties3.xlsx,frogs/ab29.jpg,0,0,400,l,0,0,0,2,0,79,79,28,,,['l'],0,[0.11705183321782897],2018_Jul_09_1053,60.0763851864,go-nogo,001,2,
logos/3.jpg,properties3.xlsx,frogs/ab73.jpg,0,0,400,l,0,0,0,2,0,80,80,71,,,['l'],0,[0.10047610351739422],2018_Jul_09_1053,60.0763851864,go-nogo,001,2,
logos/3.jpg,properties3.xlsx,frogs/ab68.jpg,0,0,400,l,0,0,0,2,0,81,81,66,,,['l'],0,[0.16709134258462655],2018_Jul_09_1053,60.0763851864,go-nogo,001,2,
logos/3.jpg,properties3.xlsx,frogs/ab21.jpg,0,0,400,l,0,0,0,2,0,82,82,20,,,['l'],0,[0.06724955071922523],2018_Jul_09_1053,60.0763851864,go-nogo,001,2,
logos/3.jpg,properties3.xlsx,frogs/ab54.jpg,0,0,400,l,0,0,0,2,0,83,83,53,,,['l'],0,[0.017086023468891653],2018_Jul_09_1053,60.0763851864,go-nogo,001,2,
logos/3.jpg,properties3.xlsx,frogs/ab52.jpg,0,0,400,l,0,0,0,2,0,84,84,51,,,['l'],0,[0.18354419217985196],2018_Jul_09_1053,60.0763851864,go-nogo,001,2,
logos/3.jpg,properties3.xlsx,frogs/ab33.jpg,0,0,400,l,0,0,0,2,0,85,85,32,,,['l'],0,[0.06668919468575041],2018_Jul_09_1053,60.0763851864,go-nogo,001,2,
logos/3.jpg,properties3.xlsx,frogs/ab58.jpg,0,0,400,l,0,0,0,2,0,86,86,57,,,['l'],0,[0.2834752996768657],2018_Jul_09_1053,60.0763851864,go-nogo,001,2,
logos/3.jpg,properties3.xlsx,frogs/ab14.jpg,0,0,400,l,0,0,0,2,0,87,87,13,,,['l'],0,[0.10057452137925793],2018_Jul_09_1053,60.0763851864,go-nogo,001,2,
logos/3.jpg,properties3.xlsx,logos/3.jpg,0,0,400,a,0,0,0,2,0,88,88,86,,,['a'],0,[0.0005865249449925614],2018_Jul_09_1053,60.0763851864,go-nogo,001,2,
logos/3.jpg,properties3.xlsx,frogs/ab35.jpg,0,0,400,l,0,0,0,2,0,89,89,34,,,['l'],0,[0.033927993396446254],2018_Jul_09_1053,60.0763851864,go-nogo,001,2,
logos/3.jpg,properties3.xlsx,,,,,,0,0,0,2,,,,,,,,,,2018_Jul_09_1053,60.0763851864,go-nogo,001,2,
logos/2.jpg,properties2.xlsx,logos/2.jpg,0,0,400,a,0,1,1,1,0,0,0,87,space,10.9252297318,['a'],0,[0.0837518936905326],2018_Jul_09_1053,60.0763851864,go-nogo,001,2,
logos/2.jpg,properties2.xlsx,frogs/ab69.jpg,0,0,400,l,0,1,1,1,0,1,1,67,,,['l'],0,[0.06726092850703935],2018_Jul_09_1053,60.0763851864,go-nogo,001,2,
logos/2.jpg,properties2.xlsx,frogs/ab70.jpg,0,0,400,l,0,1,1,1,0,2,2,68,,,['l'],0,[0.05055833647611507],2018_Jul_09_1053,60.0763851864,go-nogo,001,2,
logos/2.jpg,properties2.xlsx,frogs/ab68.jpg,0,0,400,l,0,1,1,1,0,3,3,66,,,['l'],0,[0.017159979087409738],2018_Jul_09_1053,60.0763851864,go-nogo,001,2,
logos/2.jpg,properties2.xlsx,frogs/ab76.jpg,0,0,400,l,0,1,1,1,0,4,4,74,,,['l'],0,[1.499934293276965],2018_Jul_09_1053,60.0763851864,go-nogo,001,2,
logos/2.jpg,properties2.xlsx,frogs/ab61.jpg,0,0,400,l,0,1,1,1,0,5,5,59,,,['l'],0,[0.06718469733095844],2018_Jul_09_1053,60.0763851864,go-nogo,001,2,
logos/2.jpg,properties2.xlsx,frogs/ab49.jpg,0,0,400,l,0,1,1,1,0,6,6,48,,,['l'],0,[0.10048179241130129],2018_Jul_09_1053,60.0763851864,go-nogo,001,2,
logos/2.jpg,properties2.xlsx,frogs/ab4.jpg,0,0,400,l,0,1,1,1,0,7,7,3,,,['l'],0,[0.33370936920982786],2018_Jul_09_1053,60.0763851864,go-nogo,001,2,
logos/2.jpg,properties2.xlsx,frogs/ab31.jpg,0,0,400,l,0,1,1,1,0,8,8,30,,,['l'],0,[0.2504529781645033],2018_Jul_09_1053,60.0763851864,go-nogo,001,2,
logos/2.jpg,properties2.xlsx,logos/2.jpg,0,0,400,a,0,1,1,1,0,9,9,85,,,['a'],0,[0.15052357733566168],2018_Jul_09_1053,60.0763851864,go-nogo,001,2,
logos/2.jpg,properties2.xlsx,frogs/ab71.jpg,0,0,400,l,0,1,1,1,0,10,10,69,,,['l'],0,[0.300421945249127],2018_Jul_09_1053,60.0763851864,go-nogo,001,2,
logos/2.jpg,properties2.xlsx,frogs/ab42.jpg,0,0,400,l,0,1,1,1,0,11,11,41,,,['l'],0,[0.25041372479745405],2018_Jul_09_1053,60.0763851864,go-nogo,001,2,
logos/2.jpg,properties2.xlsx,frogs/ab15.jpg,0,0,400,l,0,1,1,1,0,12,12,14,,,['l'],0,[0.2175734478846607],2018_Jul_09_1053,60.0763851864,go-nogo,001,2,
logos/2.jpg,properties2.xlsx,logos/2.jpg,0,0,400,a,0,1,1,1,0,13,13,84,,,['a'],0,[0.16718691599953672],2018_Jul_09_1053,60.0763851864,go-nogo,001,2,
logos/2.jpg,properties2.xlsx,frogs/ab47.jpg,0,0,400,l,0,1,1,1,0,14,14,46,,,['l'],0,[0.3670019131745903],2018_Jul_09_1053,60.0763851864,go-nogo,001,2,
logos/2.jpg,properties2.xlsx,frogs/ab40.jpg,0,0,400,l,0,1,1,1,0,15,15,39,,,['l'],0,[0.3499761919792945],2018_Jul_09_1053,60.0763851864,go-nogo,001,2,
logos/2.jpg,properties2.xlsx,frogs/ab14.jpg,0,0,400,l,0,1,1,1,0,16,16,13,,,['l'],0,[0.33368376918815557],2018_Jul_09_1053,60.0763851864,go-nogo,001,2,
logos/2.jpg,properties2.xlsx,frogs/ab39.jpg,0,0,400,l,0,1,1,1,0,17,17,38,,,['l'],0,[0.2504677692882069],2018_Jul_09_1053,60.0763851864,go-nogo,001,2,
logos/2.jpg,properties2.xlsx,frogs/ab8.jpg,0,0,400,l,0,1,1,1,0,18,18,7,,,['l'],0,[0.3336570313872471],2018_Jul_09_1053,60.0763851864,go-nogo,001,2,
logos/2.jpg,properties2.xlsx,frogs/ab79.jpg,0,0,400,l,0,1,1,1,0,19,19,77,,,['l'],0,[0.23361897268841858],2018_Jul_09_1053,60.0763851864,go-nogo,001,2,
logos/2.jpg,properties2.xlsx,frogs/ab7.jpg,0,0,400,l,0,1,1,1,0,20,20,6,,,['l'],0,[0.16743153843071923],2018_Jul_09_1053,60.0763851864,go-nogo,001,2,
logos/2.jpg,properties2.xlsx,frogs/ab74.jpg,0,0,400,l,0,1,1,1,0,21,21,72,,,['l'],0,[0.21708761635909468],2018_Jul_09_1053,60.0763851864,go-nogo,001,2,
logos/2.jpg,properties2.xlsx,frogs/ab52.jpg,0,0,400,l,0,1,1,1,0,22,22,51,,,['l'],0,[0.2335973548920265],2018_Jul_09_1053,60.0763851864,go-nogo,001,2,
logos/2.jpg,properties2.xlsx,frogs/ab11.jpg,0,0,400,l,0,1,1,1,0,23,23,10,,,['l'],0,[0.2502726402326516],2018_Jul_09_1053,60.0763851864,go-nogo,001,2,
logos/2.jpg,properties2.xlsx,frogs/ab66.jpg,0,0,400,l,0,1,1,1,0,24,24,64,,,['l'],0,[0.31708528391300206],2018_Jul_09_1053,60.0763851864,go-nogo,001,2,
logos/2.jpg,properties2.xlsx,frogs/ab12.jpg,0,0,400,l,0,1,1,1,0,25,25,11,,,['l'],0,[0.1839242102823846],2018_Jul_09_1053,60.0763851864,go-nogo,001,2,
logos/2.jpg,properties2.xlsx,frogs/ab55.jpg,0,0,400,l,0,1,1,1,0,26,26,54,,,['l'],0,[0.06711984394223691],2018_Jul_09_1053,60.0763851864,go-nogo,001,2,
logos/2.jpg,properties2.xlsx,frogs/ab46.jpg,0,0,400,l,0,1,1,1,0,27,27,45,,,['l'],0,[0.13371118965551432],2018_Jul_09_1053,60.0763851864,go-nogo,001,2,
logos/2.jpg,properties2.xlsx,frogs/ab25.jpg,0,0,400,l,0,1,1,1,0,28,28,24,,,['l'],0,[0.10040214789887614],2018_Jul_09_1053,60.0763851864,go-nogo,001,2,
logos/2.jpg,properties2.xlsx,frogs/ab50.jpg,0,0,400,l,0,1,1,1,0,29,29,49,,,['l'],0,[0.11724980671988305],2018_Jul_09_1053,60.0763851864,go-nogo,001,2,
logos/2.jpg,properties2.xlsx,frogs/ab10.jpg,0,0,400,l,0,1,1,1,0,30,30,9,,,['l'],0,[0.23387099068077077],2018_Jul_09_1053,60.0763851864,go-nogo,001,2,
logos/2.jpg,properties2.xlsx,frogs/ab1.jpg,0,0,400,l,0,1,1,1,0,31,31,0,,,['l'],0,[0.15032275938665407],2018_Jul_09_1053,60.0763851864,go-nogo,001,2,
logos/2.jpg,properties2.xlsx,frogs/ab16.jpg,0,0,400,l,0,1,1,1,0,32,32,15,,,['l'],0,[0.10066156145330751],2018_Jul_09_1053,60.0763851864,go-nogo,001,2,
logos/2.jpg,properties2.xlsx,logos/2.jpg,0,0,400,a,0,1,1,1,0,33,33,82,,,['a'],0,[0.050597589843164315],2018_Jul_09_1053,60.0763851864,go-nogo,001,2,
logos/2.jpg,properties2.xlsx,frogs/ab18.jpg,0,0,400,l,0,1,1,1,0,34,34,17,,,['l'],0,[0.1171343221767529],2018_Jul_09_1053,60.0763851864,go-nogo,001,2,
logos/2.jpg,properties2.xlsx,frogs/ab75.jpg,0,0,400,l,0,1,1,1,0,35,35,73,,,['l'],0,[0.0673269196745423],2018_Jul_09_1053,60.0763851864,go-nogo,001,2,
logos/2.jpg,properties2.xlsx,frogs/ab17.jpg,0,0,400,l,0,1,1,1,0,36,36,16,,,['l'],0,[0.05056630092758496],2018_Jul_09_1053,60.0763851864,go-nogo,001,2,
logos/2.jpg,properties2.xlsx,frogs/ab67.jpg,0,0,400,l,0,1,1,1,0,37,37,65,,,['l'],0,[0.06720517734856912],2018_Jul_09_1053,60.0763851864,go-nogo,001,2,
logos/2.jpg,properties2.xlsx,frogs/ab45.jpg,0,0,400,l,0,1,1,1,0,38,38,44,,,['l'],0,[0.033797717729612486],2018_Jul_09_1053,60.0763851864,go-nogo,001,2,
logos/2.jpg,properties2.xlsx,frogs/ab22.jpg,0,0,400,l,0,1,1,1,0,39,39,21,,,['l'],0,[0.05056686981697567],2018_Jul_09_1053,60.0763851864,go-nogo,001,2,
logos/2.jpg,properties2.xlsx,frogs/ab37.jpg,0,0,400,l,0,1,1,1,0,40,40,36,,,['l'],0,[0.11716845553928579],2018_Jul_09_1053,60.0763851864,go-nogo,001,2,
logos/2.jpg,properties2.xlsx,frogs/ab5.jpg,0,0,400,l,0,1,1,1,0,41,41,4,,,['l'],0,[0.4503345353964505],2018_Jul_09_1053,60.0763851864,go-nogo,001,2,
logos/2.jpg,properties2.xlsx,frogs/ab2.jpg,0,0,400,l,0,1,1,1,0,42,42,1,,,['l'],0,[0.21695677180332495],2018_Jul_09_1053,60.0763851864,go-nogo,001,2,
logos/2.jpg,properties2.xlsx,logos/2.jpg,0,0,400,a,0,1,1,1,0,43,43,89,,,['a'],0,[0.1005887436131161],2018_Jul_09_1053,60.0763851864,go-nogo,001,2,
logos/2.jpg,properties2.xlsx,frogs/ab73.jpg,0,0,400,l,0,1,1,1,0,44,44,71,,,['l'],0,[0.6335442206241169],2018_Jul_09_1053,60.0763851864,go-nogo,001,2,
logos/2.jpg,properties2.xlsx,frogs/ab23.jpg,0,0,400,l,0,1,1,1,0,45,45,22,,,['l'],0,[0.133555313967463],2018_Jul_09_1053,60.0763851864,go-nogo,001,2,
logos/2.jpg,properties2.xlsx,logos/2.jpg,0,0,400,a,0,1,1,1,0,46,46,83,,,['a'],0,[0.2669274455561208],2018_Jul_09_1053,60.0763851864,go-nogo,001,2,
logos/2.jpg,properties2.xlsx,frogs/ab27.jpg,0,0,400,l,0,1,1,1,0,47,47,26,,,['l'],0,[0.5502332161986487],2018_Jul_09_1053,60.0763851864,go-nogo,001,2,
logos/2.jpg,properties2.xlsx,frogs/ab36.jpg,0,0,400,l,0,1,1,1,0,48,48,35,,,['l'],0,[0.050170922812412755],2018_Jul_09_1053,60.0763851864,go-nogo,001,2,
logos/2.jpg,properties2.xlsx,frogs/ab28.jpg,0,0,400,l,0,1,1,1,0,49,49,27,,,['l'],0,[0.03340575295078452],2018_Jul_09_1053,60.0763851864,go-nogo,001,2,
logos/2.jpg,properties2.xlsx,frogs/ab19.jpg,0,0,400,l,0,1,1,1,0,50,50,18,,,['l'],0,[0.30040260301029775],2018_Jul_09_1053,60.0763851864,go-nogo,001,2,
logos/2.jpg,properties2.xlsx,frogs/ab56.jpg,0,0,400,l,0,1,1,1,0,51,51,55,,,['l'],0,[0.08369841808917045],2018_Jul_09_1053,60.0763851864,go-nogo,001,2,
logos/2.jpg,properties2.xlsx,frogs/ab32.jpg,0,0,400,l,0,1,1,1,0,52,52,31,,,['l'],0,[0.05056231870185002],2018_Jul_09_1053,60.0763851864,go-nogo,001,2,
logos/2.jpg,properties2.xlsx,logos/2.jpg,0,0,400,a,0,1,1,1,0,53,53,88,,,['a'],0,[0.0005700271531168255],2018_Jul_09_1053,60.0763851864,go-nogo,001,2,
logos/2.jpg,properties2.xlsx,frogs/ab24.jpg,0,0,400,l,0,1,1,1,0,54,54,23,,,['l'],0,[0.5335755664286808],2018_Jul_09_1053,60.0763851864,go-nogo,001,2,
logos/2.jpg,properties2.xlsx,logos/2.jpg,0,0,400,a,0,1,1,1,0,55,55,86,,,['l'],0,[0.0337015754253116],2018_Jul_09_1053,60.0763851864,go-nogo,001,2,
logos/2.jpg,properties2.xlsx,logos/2.jpg,0,0,400,a,0,1,1,1,0,56,56,80,,,['l'],0,[0.5169907344989042],2018_Jul_09_1053,60.0763851864,go-nogo,001,2,
logos/2.jpg,properties2.xlsx,frogs/ab13.jpg,0,0,400,l,0,1,1,1,0,57,57,12,,,['l'],0,[0.05039222077903105],2018_Jul_09_1053,60.0763851864,go-nogo,001,2,
logos/2.jpg,properties2.xlsx,frogs/ab48.jpg,0,0,400,l,0,1,1,1,0,58,58,47,,,['l'],0,[0.017233365816991864],2018_Jul_09_1053,60.0763851864,go-nogo,001,2,
logos/2.jpg,properties2.xlsx,frogs/ab78.jpg,0,0,400,l,0,1,1,1,0,59,59,76,,,['l'],0,[0.034714767401055724],2018_Jul_09_1053,60.0763851864,go-nogo,001,2,
logos/2.jpg,properties2.xlsx,frogs/ab81.jpg,0,0,400,l,0,1,1,1,0,60,60,79,,,['l'],0,[0.017309596993072773],2018_Jul_09_1053,60.0763851864,go-nogo,001,2,
logos/2.jpg,properties2.xlsx,frogs/ab38.jpg,0,0,400,l,0,1,1,1,0,61,61,37,,,['l'],0,[0.0504587808359247],2018_Jul_09_1053,60.0763851864,go-nogo,001,2,
logos/2.jpg,properties2.xlsx,frogs/ab62.jpg,0,0,400,l,0,1,1,1,0,62,62,60,,,['l'],0,[0.10028097446229367],2018_Jul_09_1053,60.0763851864,go-nogo,001,2,
logos/2.jpg,properties2.xlsx,frogs/ab77.jpg,0,0,400,l,0,1,1,1,0,63,63,75,,,['l'],0,[0.06648496340039856],2018_Jul_09_1053,60.0763851864,go-nogo,001,2,
logos/2.jpg,properties2.xlsx,frogs/ab41.jpg,0,0,400,l,0,1,1,1,0,64,64,40,,,['l'],0,[0.15027212823224545],2018_Jul_09_1053,60.0763851864,go-nogo,001,2,
logos/2.jpg,properties2.xlsx,logos/2.jpg,0,0,400,a,0,1,1,1,0,65,65,81,,,['a'],0,[0.06717559510070714],2018_Jul_09_1053,60.0763851864,go-nogo,001,2,
logos/2.jpg,properties2.xlsx,frogs/ab80.jpg,0,0,400,l,0,1,1,1,0,66,66,78,,,['l'],0,[0.050494051977238996],2018_Jul_09_1053,60.0763851864,go-nogo,001,2,
logos/2.jpg,properties2.xlsx,frogs/ab43.jpg,0,0,400,l,0,1,1,1,0,67,67,42,,,['l'],0,[0.08370069364673327],2018_Jul_09_1053,60.0763851864,go-nogo,001,2,
logos/2.jpg,properties2.xlsx,frogs/ab63.jpg,0,0,400,l,0,1,1,1,0,68,68,61,,,['l'],0,[0.13395069208218047],2018_Jul_09_1053,60.0763851864,go-nogo,001,2,
logos/2.jpg,properties2.xlsx,frogs/ab65.jpg,0,0,400,l,0,1,1,1,0,69,69,63,,,['l'],0,[0.03407476685515576],2018_Jul_09_1053,60.0763851864,go-nogo,001,2,
logos/2.jpg,properties2.xlsx,frogs/ab44.jpg,0,0,400,l,0,1,1,1,0,70,70,43,,,['l'],0,[0.01728285919261907],2018_Jul_09_1053,60.0763851864,go-nogo,001,2,
logos/2.jpg,properties2.xlsx,frogs/ab9.jpg,0,0,400,l,0,1,1,1,0,71,71,8,,,['l'],0,[0.11680265967197556],2018_Jul_09_1053,60.0763851864,go-nogo,001,2,
logos/2.jpg,properties2.xlsx,frogs/ab54.jpg,0,0,400,l,0,1,1,1,0,72,72,53,,,['l'],0,[0.0838804626887395],2018_Jul_09_1053,60.0763851864,go-nogo,001,2,
logos/2.jpg,properties2.xlsx,frogs/ab72.jpg,0,0,400,l,0,1,1,1,0,73,73,70,,,['l'],0,[0.0005774227151960076],2018_Jul_09_1053,60.0763851864,go-nogo,001,2,
logos/2.jpg,properties2.xlsx,frogs/ab35.jpg,0,0,400,l,0,1,1,1,0,74,74,34,,,['l'],0,[0.0504326119248617],2018_Jul_09_1053,60.0763851864,go-nogo,001,2,
logos/2.jpg,properties2.xlsx,frogs/ab30.jpg,0,0,400,l,0,1,1,1,0,75,75,29,,,['l'],0,[0.13377262970834636],2018_Jul_09_1053,60.0763851864,go-nogo,001,2,
logos/2.jpg,properties2.xlsx,frogs/ab33.jpg,0,0,400,l,0,1,1,1,0,76,76,32,,,['l'],0,[0.1670594847796565],2018_Jul_09_1053,60.0763851864,go-nogo,001,2,
logos/2.jpg,properties2.xlsx,frogs/ab64.jpg,0,0,400,l,0,1,1,1,0,77,77,62,,,['l'],0,[0.5334361885320504],2018_Jul_09_1053,60.0763851864,go-nogo,001,2,
logos/2.jpg,properties2.xlsx,frogs/ab58.jpg,0,0,400,l,0,1,1,1,0,78,78,57,,,['l'],0,[0.10035549896974771],2018_Jul_09_1053,60.0763851864,go-nogo,001,2,
logos/2.jpg,properties2.xlsx,frogs/ab29.jpg,0,0,400,l,0,1,1,1,0,79,79,28,,,['l'],0,[0.03401958458562149],2018_Jul_09_1053,60.0763851864,go-nogo,001,2,
logos/2.jpg,properties2.xlsx,frogs/ab60.jpg,0,0,400,l,0,1,1,1,0,80,80,58,,,['l'],0,[0.05057597204722697],2018_Jul_09_1053,60.0763851864,go-nogo,001,2,
logos/2.jpg,properties2.xlsx,frogs/ab53.jpg,0,0,400,l,0,1,1,1,0,81,81,52,,,['l'],0,[0.01722938359125692],2018_Jul_09_1053,60.0763851864,go-nogo,001,2,
logos/2.jpg,properties2.xlsx,frogs/ab6.jpg,0,0,400,l,0,1,1,1,0,82,82,5,,,['l'],0,[0.5330681171067226],2018_Jul_09_1053,60.0763851864,go-nogo,001,2,
logos/2.jpg,properties2.xlsx,frogs/ab3.jpg,0,0,400,l,0,1,1,1,0,83,83,2,,,['l'],0,[0.0005666138167725876],2018_Jul_09_1053,60.0763851864,go-nogo,001,2,
logos/2.jpg,properties2.xlsx,frogs/ab57.jpg,0,0,400,l,0,1,1,1,0,84,84,56,,,['l'],0,[0.01726237917500839],2018_Jul_09_1053,60.0763851864,go-nogo,001,2,
logos/2.jpg,properties2.xlsx,frogs/ab34.jpg,0,0,400,l,0,1,1,1,0,85,85,33,,,['l'],0,[0.01716737464948892],2018_Jul_09_1053,60.0763851864,go-nogo,001,2,
logos/2.jpg,properties2.xlsx,frogs/ab21.jpg,0,0,400,l,0,1,1,1,0,86,86,20,,,['l'],0,[0.45027480201224535],2018_Jul_09_1053,60.0763851864,go-nogo,001,2,
logos/2.jpg,properties2.xlsx,frogs/ab20.jpg,0,0,400,l,0,1,1,1,0,87,87,19,,,['l'],0,[0.16733937835169854],2018_Jul_09_1053,60.0763851864,go-nogo,001,2,
logos/2.jpg,properties2.xlsx,frogs/ab26.jpg,0,0,400,l,0,1,1,1,0,88,88,25,,,['l'],0,[0.0005700271531168255],2018_Jul_09_1053,60.0763851864,go-nogo,001,2,
logos/2.jpg,properties2.xlsx,frogs/ab51.jpg,0,0,400,l,0,1,1,1,0,89,89,50,,,['l'],0,[1.134224896761225],2018_Jul_09_1053,60.0763851864,go-nogo,001,2,
logos/2.jpg,properties2.xlsx,,,,,,0,1,1,1,,,,,,,,,,2018_Jul_09_1053,60.0763851864,go-nogo,001,2,
logos/1.jpg,properties1.xlsx,frogs/ab19.jpg,0,0,400,l,0,2,2,0,0,0,0,18,space,6.20288415535,['l'],0,[0.06717900843705138],2018_Jul_09_1053,60.0763851864,go-nogo,001,2,
logos/1.jpg,properties1.xlsx,logos/1.jpg,0,0,400,a,0,2,2,0,0,1,1,87,,,['a'],0,[0.06714942618964415],2018_Jul_09_1053,60.0763851864,go-nogo,001,2,
logos/1.jpg,properties1.xlsx,logos/1.jpg,0,0,400,a,0,2,2,0,0,2,2,83,,,['a'],0,[0.3004913497529742],2018_Jul_09_1053,60.0763851864,go-nogo,001,2,
logos/1.jpg,properties1.xlsx,frogs/ab67.jpg,0,0,400,l,0,2,2,0,0,3,3,65,,,['l'],0,[0.0005711649318982381],2018_Jul_09_1053,60.0763851864,go-nogo,001,2,
logos/1.jpg,properties1.xlsx,logos/1.jpg,0,0,400,a,0,2,2,0,0,4,4,85,,,['a'],0,[0.16731434721941696],2018_Jul_09_1053,60.0763851864,go-nogo,001,2,
logos/1.jpg,properties1.xlsx,logos/1.jpg,0,0,400,a,0,2,2,0,0,5,5,82,,,['l'],0,[0.21711378527061242],2018_Jul_09_1053,60.0763851864,go-nogo,001,2,
logos/1.jpg,properties1.xlsx,frogs/ab79.jpg,0,0,400,l,0,2,2,0,0,6,6,77,,,['l'],0,[0.26715613908436353],2018_Jul_09_1053,60.0763851864,go-nogo,001,2,
logos/1.jpg,properties1.xlsx,frogs/ab29.jpg,0,0,400,l,0,2,2,0,0,7,7,28,,,['l'],0,[0.21724406093699145],2018_Jul_09_1053,60.0763851864,go-nogo,001,2,
logos/1.jpg,properties1.xlsx,frogs/ab80.jpg,0,0,400,l,0,2,2,0,0,8,8,78,,,['l'],0,[0.7671882813342563],2018_Jul_09_1053,60.0763851864,go-nogo,001,2,
logos/1.jpg,properties1.xlsx,frogs/ab42.jpg,0,0,400,l,0,2,2,0,0,9,9,41,,,['l'],0,[0.2504376181509542],2018_Jul_09_1053,60.0763851864,go-nogo,001,2,
logos/1.jpg,properties1.xlsx,frogs/ab41.jpg,0,0,400,l,0,2,2,0,0,10,10,40,,,['l'],0,[0.23363035047577796],2018_Jul_09_1053,60.0763851864,go-nogo,001,2,
logos/1.jpg,properties1.xlsx,frogs/ab26.jpg,0,0,400,l,0,2,2,0,0,11,11,25,,,['l'],0,[0.16701454251915493],2018_Jul_09_1053,60.0763851864,go-nogo,001,2,
logos/1.jpg,properties1.xlsx,logos/1.jpg,0,0,400,a,0,2,2,0,0,12,12,84,,,['a'],0,[0.1669986136166699],2018_Jul_09_1053,60.0763851864,go-nogo,001,2,
logos/1.jpg,properties1.xlsx,frogs/ab12.jpg,0,0,400,l,0,2,2,0,0,13,13,11,,,['l'],0,[0.0005723027106796508],2018_Jul_09_1053,60.0763851864,go-nogo,001,2,
logos/1.jpg,properties1.xlsx,frogs/ab54.jpg,0,0,400,l,0,2,2,0,0,14,14,53,,,['l'],0,[0.08395669386527516],2018_Jul_09_1053,60.0763851864,go-nogo,001,2,
logos/1.jpg,properties1.xlsx,frogs/ab21.jpg,0,0,400,l,0,2,2,0,0,15,15,20,,,['l'],0,[0.05048210530048891],2018_Jul_09_1053,60.0763851864,go-nogo,001,2,
logos/1.jpg,properties1.xlsx,frogs/ab49.jpg,0,0,400,l,0,2,2,0,0,16,16,48,,,['l'],0,[0.08381219596412848],2018_Jul_09_1053,60.0763851864,go-nogo,001,2,
logos/1.jpg,properties1.xlsx,frogs/ab5.jpg,0,0,400,l,0,2,2,0,0,17,17,4,,,['l'],0,[0.03385517555670958],2018_Jul_09_1053,60.0763851864,go-nogo,001,2,
logos/1.jpg,properties1.xlsx,frogs/ab25.jpg,0,0,400,l,0,2,2,0,0,18,18,24,,,['l'],0,[0.0838497426630056],2018_Jul_09_1053,60.0763851864,go-nogo,001,2,
logos/1.jpg,properties1.xlsx,frogs/ab36.jpg,0,0,400,l,0,2,2,0,0,19,19,35,,,['l'],0,[0.03368450874404516],2018_Jul_09_1053,60.0763851864,go-nogo,001,2,
logos/1.jpg,properties1.xlsx,frogs/ab13.jpg,0,0,400,l,0,2,2,0,0,20,20,12,,,['l'],0,[0.08388103157858495],2018_Jul_09_1053,60.0763851864,go-nogo,001,2,
logos/1.jpg,properties1.xlsx,frogs/ab48.jpg,0,0,400,l,0,2,2,0,0,21,21,47,,,['l'],0,[0.0005842493878844834],2018_Jul_09_1053,60.0763851864,go-nogo,001,2,
logos/1.jpg,properties1.xlsx,logos/1.jpg,0,0,400,a,0,2,2,0,0,22,22,81,,,['a'],0,[0.10050625465419216],2018_Jul_09_1053,60.0763851864,go-nogo,001,2,
logos/1.jpg,properties1.xlsx,logos/1.jpg,0,0,400,a,0,2,2,0,0,23,23,89,,,['l'],0,[0.08381959152575291],2018_Jul_09_1053,60.0763851864,go-nogo,001,2,
logos/1.jpg,properties1.xlsx,frogs/ab46.jpg,0,0,400,l,0,2,2,0,0,24,24,45,,,['l'],0,[0.01718330355197395],2018_Jul_09_1053,60.0763851864,go-nogo,001,2,
logos/1.jpg,properties1.xlsx,frogs/ab74.jpg,0,0,400,l,0,2,2,0,0,25,25,72,,,['l'],0,[0.050404167455781135],2018_Jul_09_1053,60.0763851864,go-nogo,001,2,
logos/1.jpg,properties1.xlsx,frogs/ab66.jpg,0,0,400,l,0,2,2,0,0,26,26,64,,,['l'],0,[0.033885326693052775],2018_Jul_09_1053,60.0763851864,go-nogo,001,2,
logos/1.jpg,properties1.xlsx,frogs/ab44.jpg,0,0,400,l,0,2,2,0,0,27,27,43,,,['l'],0,[0.03384038443255122],2018_Jul_09_1053,60.0763851864,go-nogo,001,2,
logos/1.jpg,properties1.xlsx,frogs/ab8.jpg,0,0,400,l,0,2,2,0,0,28,28,7,,,['l'],0,[0.06707888390701555],2018_Jul_09_1053,60.0763851864,go-nogo,001,2,
logos/1.jpg,properties1.xlsx,frogs/ab65.jpg,0,0,400,l,0,2,2,0,0,29,29,63,,,['l'],0,[0.21716100308822206],2018_Jul_09_1053,60.0763851864,go-nogo,001,2,
logos/1.jpg,properties1.xlsx,frogs/ab15.jpg,0,0,400,l,0,2,2,0,0,30,30,14,,,['l'],0,[0.03388475780366207],2018_Jul_09_1053,60.0763851864,go-nogo,001,2,
logos/1.jpg,properties1.xlsx,frogs/ab22.jpg,0,0,400,l,0,2,2,0,0,31,31,21,,,['l'],0,[0.017285703639572603],2018_Jul_09_1053,60.0763851864,go-nogo,001,2,
logos/1.jpg,properties1.xlsx,frogs/ab34.jpg,0,0,400,l,0,2,2,0,0,32,32,33,,,['l'],0,[0.017239623599834886],2018_Jul_09_1053,60.0763851864,go-nogo,001,2,
logos/1.jpg,properties1.xlsx,frogs/ab55.jpg,0,0,400,l,0,2,2,0,0,33,33,54,,,['l'],0,[0.016735587614221004],2018_Jul_09_1053,60.0763851864,go-nogo,001,2,
logos/1.jpg,properties1.xlsx,logos/1.jpg,0,0,400,a,0,2,2,0,0,34,34,88,,,['a'],0,[0.10041750791197046],2018_Jul_09_1053,60.0763851864,go-nogo,001,2,
logos/1.jpg,properties1.xlsx,frogs/ab9.jpg,0,0,400,l,0,2,2,0,0,35,35,8,,,['l'],0,[0.017258965838664153],2018_Jul_09_1053,60.0763851864,go-nogo,001,2,
logos/1.jpg,properties1.xlsx,frogs/ab17.jpg,0,0,400,l,0,2,2,0,0,36,36,16,,,['l'],0,[0.13382553641986306],2018_Jul_09_1053,60.0763851864,go-nogo,001,2,
logos/1.jpg,properties1.xlsx,frogs/ab64.jpg,0,0,400,l,0,2,2,0,0,37,37,62,,,['l'],0,[0.05036946520431229],2018_Jul_09_1053,60.0763851864,go-nogo,001,2,
logos/1.jpg,properties1.xlsx,frogs/ab33.jpg,0,0,400,l,0,2,2,0,0,38,38,32,,,['l'],0,[0.06731611077657362],2018_Jul_09_1053,60.0763851864,go-nogo,001,2,
logos/1.jpg,properties1.xlsx,frogs/ab45.jpg,0,0,400,l,0,2,2,0,0,39,39,44,,,['l'],0,[0.08381276485397393],2018_Jul_09_1053,60.0763851864,go-nogo,001,2,
logos/1.jpg,properties1.xlsx,frogs/ab60.jpg,0,0,400,l,0,2,2,0,0,40,40,58,,,['l'],0,[0.033902393374773965],2018_Jul_09_1053,60.0763851864,go-nogo,001,2,
logos/1.jpg,properties1.xlsx,frogs/ab56.jpg,0,0,400,l,0,2,2,0,0,41,41,55,,,['l'],0,[0.15048204841150437],2018_Jul_09_1053,60.0763851864,go-nogo,001,2,
logos/1.jpg,properties1.xlsx,frogs/ab57.jpg,0,0,400,l,0,2,2,0,0,42,42,56,,,['l'],0,[0.15028748824533977],2018_Jul_09_1053,60.0763851864,go-nogo,001,2,
logos/1.jpg,properties1.xlsx,frogs/ab14.jpg,0,0,400,l,0,2,2,0,0,43,43,13,,,['l'],0,[0.1671635915349725],2018_Jul_09_1053,60.0763851864,go-nogo,001,2,
logos/1.jpg,properties1.xlsx,frogs/ab47.jpg,0,0,400,l,0,2,2,0,0,44,44,46,,,['l'],0,[0.2675742727742545],2018_Jul_09_1053,60.0763851864,go-nogo,001,2,
logos/1.jpg,properties1.xlsx,frogs/ab69.jpg,0,0,400,l,0,2,2,0,0,45,45,67,,,['l'],0,[0.2834542507698643],2018_Jul_09_1053,60.0763851864,go-nogo,001,2,
logos/1.jpg,properties1.xlsx,frogs/ab20.jpg,0,0,400,l,0,2,2,0,0,46,46,19,,,['l'],0,[0.25040746701461103],2018_Jul_09_1053,60.0763851864,go-nogo,001,2,
logos/1.jpg,properties1.xlsx,frogs/ab76.jpg,0,0,400,l,0,2,2,0,0,47,47,74,,,['l'],0,[0.13391712760949304],2018_Jul_09_1053,60.0763851864,go-nogo,001,2,
logos/1.jpg,properties1.xlsx,frogs/ab11.jpg,0,0,400,l,0,2,2,0,0,48,48,10,,,['l'],0,[0.050281856240417255],2018_Jul_09_1053,60.0763851864,go-nogo,001,2,
logos/1.jpg,properties1.xlsx,frogs/ab6.jpg,0,0,400,l,0,2,2,0,0,49,49,5,,,['l'],0,[0.08383096931356704],2018_Jul_09_1053,60.0763851864,go-nogo,001,2,
logos/1.jpg,properties1.xlsx,logos/1.jpg,0,0,400,a,0,2,2,0,0,50,50,80,,,['a'],0,[0.16690702242749467],2018_Jul_09_1053,60.0763851864,go-nogo,001,2,
logos/1.jpg,properties1.xlsx,frogs/ab43.jpg,0,0,400,l,0,2,2,0,0,51,51,42,,,['l'],0,[0.1009755883883372],2018_Jul_09_1053,60.0763851864,go-nogo,001,2,
logos/1.jpg,properties1.xlsx,frogs/ab81.jpg,0,0,400,l,0,2,2,0,0,52,52,79,,,['l'],0,[0.11695739758124546],2018_Jul_09_1053,60.0763851864,go-nogo,001,2,
logos/1.jpg,properties1.xlsx,frogs/ab62.jpg,0,0,400,l,0,2,2,0,0,53,53,60,,,['l'],0,[0.06717047509664553],2018_Jul_09_1053,60.0763851864,go-nogo,001,2,
logos/1.jpg,properties1.xlsx,frogs/ab70.jpg,0,0,400,l,0,2,2,0,0,54,54,68,,,['l'],0,[0.0681785470678733],2018_Jul_09_1053,60.0763851864,go-nogo,001,2,
logos/1.jpg,properties1.xlsx,frogs/ab38.jpg,0,0,400,l,0,2,2,0,0,55,55,37,,,['l'],0,[0.18375923236362723],2018_Jul_09_1053,60.0763851864,go-nogo,001,2,
logos/1.jpg,properties1.xlsx,frogs/ab37.jpg,0,0,400,l,0,2,2,0,0,56,56,36,,,['l'],0,[0.18374956124398523],2018_Jul_09_1053,60.0763851864,go-nogo,001,2,
logos/1.jpg,properties1.xlsx,frogs/ab28.jpg,0,0,400,l,0,2,2,0,0,57,57,27,,,['l'],0,[0.10032648561173119],2018_Jul_09_1053,60.0763851864,go-nogo,001,2,
logos/1.jpg,properties1.xlsx,frogs/ab75.jpg,0,0,400,l,0,2,2,0,0,58,58,73,,,['l'],0,[0.11711099771264344],2018_Jul_09_1053,60.0763851864,go-nogo,001,2,
logos/1.jpg,properties1.xlsx,frogs/ab52.jpg,0,0,400,l,0,2,2,0,0,59,59,51,,,['l'],0,[0.10054607691063211],2018_Jul_09_1053,60.0763851864,go-nogo,001,2,
logos/1.jpg,properties1.xlsx,frogs/ab53.jpg,0,0,400,l,0,2,2,0,0,60,60,52,,,['l'],0,[0.05040302967699972],2018_Jul_09_1053,60.0763851864,go-nogo,001,2,
logos/1.jpg,properties1.xlsx,frogs/ab39.jpg,0,0,400,l,0,2,2,0,0,61,61,38,,,['l'],0,[0.06714885730025344],2018_Jul_09_1053,60.0763851864,go-nogo,001,2,
logos/1.jpg,properties1.xlsx,frogs/ab31.jpg,0,0,400,l,0,2,2,0,0,62,62,30,,,['l'],0,[0.033845504437067575],2018_Jul_09_1053,60.0763851864,go-nogo,001,2,
logos/1.jpg,properties1.xlsx,frogs/ab78.jpg,0,0,400,l,0,2,2,0,0,63,63,76,,,['l'],0,[0.13368103851871638],2018_Jul_09_1053,60.0763851864,go-nogo,001,2,
logos/1.jpg,properties1.xlsx,frogs/ab50.jpg,0,0,400,l,0,2,2,0,0,64,64,49,,,['l'],0,[0.9501305885560214],2018_Jul_09_1053,60.0763851864,go-nogo,001,2,
logos/1.jpg,properties1.xlsx,frogs/ab2.jpg,0,0,400,l,0,2,2,0,0,65,65,1,,,['l'],0,[0.21738912772752883],2018_Jul_09_1053,60.0763851864,go-nogo,001,2,
logos/1.jpg,properties1.xlsx,frogs/ab16.jpg,0,0,400,l,0,2,2,0,0,66,66,15,,,['l'],0,[0.11717698888014638],2018_Jul_09_1053,60.0763851864,go-nogo,001,2,
logos/1.jpg,properties1.xlsx,frogs/ab68.jpg,0,0,400,l,0,2,2,0,0,67,67,66,,,['l'],0,[0.03385289999914676],2018_Jul_09_1053,60.0763851864,go-nogo,001,2,
logos/1.jpg,properties1.xlsx,frogs/ab7.jpg,0,0,400,l,0,2,2,0,0,68,68,6,,,['l'],0,[0.08376327147789198],2018_Jul_09_1053,60.0763851864,go-nogo,001,2,
logos/1.jpg,properties1.xlsx,frogs/ab77.jpg,0,0,400,l,0,2,2,0,0,69,69,75,,,['l'],0,[0.1174529002264535],2018_Jul_09_1053,60.0763851864,go-nogo,001,2,
logos/1.jpg,properties1.xlsx,frogs/ab35.jpg,0,0,400,l,0,2,2,0,0,70,70,34,,,['l'],0,[0.11713545995553432],2018_Jul_09_1053,60.0763851864,go-nogo,001,2,
logos/1.jpg,properties1.xlsx,frogs/ab71.jpg,0,0,400,l,0,2,2,0,0,71,71,69,,,['l'],0,[0.05070966104995023],2018_Jul_09_1053,60.0763851864,go-nogo,001,2,
logos/1.jpg,properties1.xlsx,frogs/ab40.jpg,0,0,400,l,0,2,2,0,0,72,72,39,,,['l'],0,[0.48322203012730824],2018_Jul_09_1053,60.0763851864,go-nogo,001,2,
logos/1.jpg,properties1.xlsx,frogs/ab1.jpg,0,0,400,l,0,2,2,0,0,73,73,0,,,['l'],0,[0.5834546489923014],2018_Jul_09_1053,60.0763851864,go-nogo,001,2,
logos/1.jpg,properties1.xlsx,frogs/ab23.jpg,0,0,400,l,0,2,2,0,0,74,74,22,,,['l'],0,[0.41704483587818686],2018_Jul_09_1053,60.0763851864,go-nogo,001,2,
logos/1.jpg,properties1.xlsx,frogs/ab3.jpg,0,0,400,l,0,2,2,0,0,75,75,2,,,['l'],0,[0.11704898877042069],2018_Jul_09_1053,60.0763851864,go-nogo,001,2,
logos/1.jpg,properties1.xlsx,frogs/ab58.jpg,0,0,400,l,0,2,2,0,0,76,76,57,,,['l'],0,[0.26711005904508056],2018_Jul_09_1053,60.0763851864,go-nogo,001,2,
logos/1.jpg,properties1.xlsx,frogs/ab30.jpg,0,0,400,l,0,2,2,0,0,77,77,29,,,['l'],0,[0.05019652283453979],2018_Jul_09_1053,60.0763851864,go-nogo,001,2,
logos/1.jpg,properties1.xlsx,frogs/ab51.jpg,0,0,400,l,0,2,2,0,0,78,78,50,,,['l'],0,[0.1337714919291102],2018_Jul_09_1053,60.0763851864,go-nogo,001,2,
logos/1.jpg,properties1.xlsx,frogs/ab27.jpg,0,0,400,l,0,2,2,0,0,79,79,26,,,['l'],0,[0.08445162762109248],2018_Jul_09_1053,60.0763851864,go-nogo,001,2,
logos/1.jpg,properties1.xlsx,frogs/ab4.jpg,0,0,400,l,0,2,2,0,0,80,80,3,,,['l'],0,[0.10047553462800352],2018_Jul_09_1053,60.0763851864,go-nogo,001,2,
logos/1.jpg,properties1.xlsx,frogs/ab63.jpg,0,0,400,l,0,2,2,0,0,81,81,61,,,['l'],0,[0.10053526801220869],2018_Jul_09_1053,60.0763851864,go-nogo,001,2,
logos/1.jpg,properties1.xlsx,frogs/ab18.jpg,0,0,400,l,0,2,2,0,0,82,82,17,,,['l'],0,[0.16701681807671775],2018_Jul_09_1053,60.0763851864,go-nogo,001,2,
logos/1.jpg,properties1.xlsx,frogs/ab32.jpg,0,0,400,l,0,2,2,0,0,83,83,31,,,['l'],0,[0.13377831860179867],2018_Jul_09_1053,60.0763851864,go-nogo,001,2,
logos/1.jpg,properties1.xlsx,frogs/ab73.jpg,0,0,400,l,0,2,2,0,0,84,84,71,,,['l'],0,[0.11721453557856876],2018_Jul_09_1053,60.0763851864,go-nogo,001,2,
logos/1.jpg,properties1.xlsx,frogs/ab72.jpg,0,0,400,l,0,2,2,0,0,85,85,70,,,['l'],0,[0.15051447510586513],2018_Jul_09_1053,60.0763851864,go-nogo,001,2,
logos/1.jpg,properties1.xlsx,frogs/ab61.jpg,0,0,400,l,0,2,2,0,0,86,86,59,,,['l'],0,[0.2171120786024403],2018_Jul_09_1053,60.0763851864,go-nogo,001,2,
logos/1.jpg,properties1.xlsx,frogs/ab24.jpg,0,0,400,l,0,2,2,0,0,87,87,23,,,['l'],0,[0.20046523772998626],2018_Jul_09_1053,60.0763851864,go-nogo,001,2,
logos/1.jpg,properties1.xlsx,logos/1.jpg,0,0,400,a,0,2,2,0,0,88,88,86,,,['a'],0,[0.11695284646657456],2018_Jul_09_1053,60.0763851864,go-nogo,001,2,
logos/1.jpg,properties1.xlsx,frogs/ab10.jpg,0,0,400,l,0,2,2,0,0,89,89,9,,,['l'],0,[0.7501454934576941],2018_Jul_09_1053,60.0763851864,go-nogo,001,2,
logos/1.jpg,properties1.xlsx,,,,,,0,2,2,0,,,,,,,,,,2018_Jul_09_1053,60.0763851864,go-nogo,001,2,
logos/4.jpg,properties4.xlsx,frogs/ab58.jpg,0,0,400,l,0,3,3,3,0,0,0,57,space,6.964583792,['l'],0,[0.0005808360515402455],2018_Jul_09_1053,60.0763851864,go-nogo,001,2,
logos/4.jpg,properties4.xlsx,frogs/ab49.jpg,0,0,400,l,0,3,3,3,0,1,1,48,,,['l'],0,[0.08410631177093819],2018_Jul_09_1053,60.0763851864,go-nogo,001,2,
logos/4.jpg,properties4.xlsx,frogs/ab30.jpg,0,0,400,l,0,3,3,3,0,2,2,29,,,['l'],0,[0.11710587770812708],2018_Jul_09_1053,60.0763851864,go-nogo,001,2,
logos/4.jpg,properties4.xlsx,frogs/ab65.jpg,0,0,400,l,0,3,3,3,0,3,3,63,,,['l'],0,[0.03395586897568137],2018_Jul_09_1053,60.0763851864,go-nogo,001,2,
logos/4.jpg,properties4.xlsx,logos/4.jpg,0,0,400,a,0,3,3,3,0,4,4,87,,,['l'],0,[0.5170260056397638],2018_Jul_09_1053,60.0763851864,go-nogo,001,2,
logos/4.jpg,properties4.xlsx,frogs/ab48.jpg,0,0,400,l,0,3,3,3,0,5,5,47,,,['l'],0,[0.10048748130520835],2018_Jul_09_1053,60.0763851864,go-nogo,001,2,
logos/4.jpg,properties4.xlsx,frogs/ab34.jpg,0,0,400,l,0,3,3,3,0,6,6,33,,,['l'],0,[0.017276032519930595],2018_Jul_09_1053,60.0763851864,go-nogo,001,2,
logos/4.jpg,properties4.xlsx,logos/4.jpg,0,0,400,a,0,3,3,3,0,7,7,88,,,['a'],0,[0.00019968017022620188],2018_Jul_09_1053,60.0763851864,go-nogo,001,2,
logos/4.jpg,properties4.xlsx,frogs/ab69.jpg,0,0,400,l,0,3,3,3,0,8,8,67,,,['l'],0,[0.05059986540072714],2018_Jul_09_1053,60.0763851864,go-nogo,001,2,
logos/4.jpg,properties4.xlsx,frogs/ab2.jpg,0,0,400,l,0,3,3,3,0,9,9,1,,,['l'],0,[0.050521358667083405],2018_Jul_09_1053,60.0763851864,go-nogo,001,2,
logos/4.jpg,properties4.xlsx,frogs/ab60.jpg,0,0,400,l,0,3,3,3,0,10,10,58,,,['l'],0,[0.03374196657068751],2018_Jul_09_1053,60.0763851864,go-nogo,001,2,
logos/4.jpg,properties4.xlsx,frogs/ab11.jpg,0,0,400,l,0,3,3,3,0,11,11,10,,,['l'],0,[0.01724815694069548],2018_Jul_09_1053,60.0763851864,go-nogo,001,2,
logos/4.jpg,properties4.xlsx,frogs/ab26.jpg,0,0,400,l,0,3,3,3,0,12,12,25,,,['l'],0,[0.033835833317880315],2018_Jul_09_1053,60.0763851864,go-nogo,001,2,
logos/4.jpg,properties4.xlsx,frogs/ab20.jpg,0,0,400,l,0,3,3,3,0,13,13,19,,,['l'],0,[0.06683312369750638],2018_Jul_09_1053,60.0763851864,go-nogo,001,2,
logos/4.jpg,properties4.xlsx,frogs/ab74.jpg,0,0,400,l,0,3,3,3,0,14,14,72,,,['l'],0,[0.06730245743119667],2018_Jul_09_1053,60.0763851864,go-nogo,001,2,
logos/4.jpg,properties4.xlsx,frogs/ab9.jpg,0,0,400,l,0,3,3,3,0,15,15,8,,,['l'],0,[0.06718242177339562],2018_Jul_09_1053,60.0763851864,go-nogo,001,2,
logos/4.jpg,properties4.xlsx,frogs/ab5.jpg,0,0,400,l,0,3,3,3,0,16,16,4,,,['l'],0,[0.08383722709641006],2018_Jul_09_1053,60.0763851864,go-nogo,001,2,
logos/4.jpg,properties4.xlsx,frogs/ab12.jpg,0,0,400,l,0,3,3,3,0,17,17,11,,,['l'],0,[0.033606002010401426],2018_Jul_09_1053,60.0763851864,go-nogo,001,2,
logos/4.jpg,properties4.xlsx,frogs/ab16.jpg,0,0,400,l,0,3,3,3,0,18,18,15,,,['l'],0,[0.017223125808413897],2018_Jul_09_1053,60.0763851864,go-nogo,001,2,
logos/4.jpg,properties4.xlsx,frogs/ab27.jpg,0,0,400,l,0,3,3,3,0,19,19,26,,,['l'],0,[0.08392199161335157],2018_Jul_09_1053,60.0763851864,go-nogo,001,2,
logos/4.jpg,properties4.xlsx,frogs/ab45.jpg,0,0,400,l,0,3,3,3,0,20,20,44,,,['l'],0,[0.033745948796422454],2018_Jul_09_1053,60.0763851864,go-nogo,001,2,
logos/4.jpg,properties4.xlsx,frogs/ab40.jpg,0,0,400,l,0,3,3,3,0,21,21,39,,,['l'],0,[0.23389147069838145],2018_Jul_09_1053,60.0763851864,go-nogo,001,2,
logos/4.jpg,properties4.xlsx,frogs/ab21.jpg,0,0,400,l,0,3,3,3,0,22,22,20,,,['l'],0,[0.0006331738736662373],2018_Jul_09_1053,60.0763851864,go-nogo,001,2,
logos/4.jpg,properties4.xlsx,frogs/ab50.jpg,0,0,400,l,0,3,3,3,0,23,23,49,,,['l'],0,[0.08377408037586065],2018_Jul_09_1053,60.0763851864,go-nogo,001,2,
logos/4.jpg,properties4.xlsx,frogs/ab36.jpg,0,0,400,l,0,3,3,3,0,24,24,35,,,['l'],0,[0.05038539410679732],2018_Jul_09_1053,60.0763851864,go-nogo,001,2,
logos/4.jpg,properties4.xlsx,logos/4.jpg,0,0,400,a,0,3,3,3,0,25,25,82,,,['a'],0,[0.11735732681154332],2018_Jul_09_1053,60.0763851864,go-nogo,001,2,
logos/4.jpg,properties4.xlsx,frogs/ab70.jpg,0,0,400,l,0,3,3,3,0,26,26,68,,,['l'],0,[0.017277170298712008],2018_Jul_09_1053,60.0763851864,go-nogo,001,2,
logos/4.jpg,properties4.xlsx,frogs/ab72.jpg,0,0,400,l,0,3,3,3,0,27,27,70,,,['l'],0,[0.13382724308803517],2018_Jul_09_1053,60.0763851864,go-nogo,001,2,
logos/4.jpg,properties4.xlsx,frogs/ab8.jpg,0,0,400,l,0,3,3,3,0,28,28,7,,,['l'],0,[0.03426989591025631],2018_Jul_09_1053,60.0763851864,go-nogo,001,2,
logos/4.jpg,properties4.xlsx,logos/4.jpg,0,0,400,a,0,3,3,3,0,29,29,80,,,['a'],0,[0.0008226140353144729],2018_Jul_09_1053,60.0763851864,go-nogo,001,2,
logos/4.jpg,properties4.xlsx,frogs/ab46.jpg,0,0,400,l,0,3,3,3,0,30,30,45,,,['l'],0,[0.6500863858514094],2018_Jul_09_1053,60.0763851864,go-nogo,001,2,
logos/4.jpg,properties4.xlsx,frogs/ab63.jpg,0,0,400,l,0,3,3,3,0,31,31,61,,,['l'],0,[0.0005694582637261192],2018_Jul_09_1053,60.0763851864,go-nogo,001,2,
logos/4.jpg,properties4.xlsx,frogs/ab14.jpg,0,0,400,l,0,3,3,3,0,32,32,13,,,['l'],0,[0.5502428873182907],2018_Jul_09_1053,60.0763851864,go-nogo,001,2,
logos/4.jpg,properties4.xlsx,frogs/ab78.jpg,0,0,400,l,0,3,3,3,0,33,33,76,,,['l'],0,[0.050405305235017295],2018_Jul_09_1053,60.0763851864,go-nogo,001,2,
logos/4.jpg,properties4.xlsx,frogs/ab80.jpg,0,0,400,l,0,3,3,3,0,34,34,78,,,['l'],0,[0.08390890715782007],2018_Jul_09_1053,60.0763851864,go-nogo,001,2,
logos/4.jpg,properties4.xlsx,frogs/ab47.jpg,0,0,400,l,0,3,3,3,0,35,35,46,,,['l'],0,[0.05054980313616397],2018_Jul_09_1053,60.0763851864,go-nogo,001,2,
logos/4.jpg,properties4.xlsx,logos/4.jpg,0,0,400,a,0,3,3,3,0,36,36,89,,,['l'],0,[0.0005757160465691413],2018_Jul_09_1053,60.0763851864,go-nogo,001,2,
logos/4.jpg,properties4.xlsx,frogs/ab1.jpg,0,0,400,l,0,3,3,3,0,37,37,0,,,['l'],0,[0.6669073068719626],2018_Jul_09_1053,60.0763851864,go-nogo,001,2,
logos/4.jpg,properties4.xlsx,logos/4.jpg,0,0,400,a,0,3,3,3,0,38,38,85,,,['a'],0,[0.06711017282304965],2018_Jul_09_1053,60.0763851864,go-nogo,001,2,
logos/4.jpg,properties4.xlsx,frogs/ab76.jpg,0,0,400,l,0,3,3,3,0,39,39,74,,,['l'],0,[0.0005774227151960076],2018_Jul_09_1053,60.0763851864,go-nogo,001,2,
logos/4.jpg,properties4.xlsx,frogs/ab68.jpg,0,0,400,l,0,3,3,3,0,40,40,66,,,['l'],0,[0.08310791091889769],2018_Jul_09_1053,60.0763851864,go-nogo,001,2,
logos/4.jpg,properties4.xlsx,frogs/ab67.jpg,0,0,400,l,0,3,3,3,0,41,41,65,,,['l'],0,[0.050202780617382814],2018_Jul_09_1053,60.0763851864,go-nogo,001,2,
logos/4.jpg,properties4.xlsx,frogs/ab51.jpg,0,0,400,l,0,3,3,3,0,42,42,50,,,['l'],0,[0.00034986696527994354],2018_Jul_09_1053,60.0763851864,go-nogo,001,2,
logos/4.jpg,properties4.xlsx,frogs/ab55.jpg,0,0,400,l,0,3,3,3,0,43,43,54,,,['l'],0,[0.5666689991130625],2018_Jul_09_1053,60.0763851864,go-nogo,001,2,
logos/4.jpg,properties4.xlsx,frogs/ab18.jpg,0,0,400,l,0,3,3,3,0,44,44,17,,,['l'],0,[0.06719095511425621],2018_Jul_09_1053,60.0763851864,go-nogo,001,2,
logos/4.jpg,properties4.xlsx,frogs/ab31.jpg,0,0,400,l,0,3,3,3,0,45,45,30,,,['l'],0,[0.13395524319730612],2018_Jul_09_1053,60.0763851864,go-nogo,001,2,
logos/4.jpg,properties4.xlsx,frogs/ab77.jpg,0,0,400,l,0,3,3,3,0,46,46,75,,,['l'],0,[0.11700177095235631],2018_Jul_09_1053,60.0763851864,go-nogo,001,2,
logos/4.jpg,properties4.xlsx,frogs/ab79.jpg,0,0,400,l,0,3,3,3,0,47,47,77,,,['l'],0,[0.01724360582556983],2018_Jul_09_1053,60.0763851864,go-nogo,001,2,
logos/4.jpg,properties4.xlsx,frogs/ab19.jpg,0,0,400,l,0,3,3,3,0,48,48,18,,,['l'],0,[0.06716251064517564],2018_Jul_09_1053,60.0763851864,go-nogo,001,2,
logos/4.jpg,properties4.xlsx,frogs/ab41.jpg,0,0,400,l,0,3,3,3,0,49,49,40,,,['l'],0,[0.10045334794222072],2018_Jul_09_1053,60.0763851864,go-nogo,001,2,
logos/4.jpg,properties4.xlsx,logos/4.jpg,0,0,400,a,0,3,3,3,0,50,50,83,,,['a'],0,[0.05055378536144417],2018_Jul_09_1053,60.0763851864,go-nogo,001,2,
logos/4.jpg,properties4.xlsx,logos/4.jpg,0,0,400,a,0,3,3,3,0,51,51,86,,,['a'],0,[0.06722850181267859],2018_Jul_09_1053,60.0763851864,go-nogo,001,2,
logos/4.jpg,properties4.xlsx,frogs/ab28.jpg,0,0,400,l,0,3,3,3,0,52,52,27,,,['l'],0,[0.6002954811410746],2018_Jul_09_1053,60.0763851864,go-nogo,001,2,
logos/4.jpg,properties4.xlsx,logos/4.jpg,0,0,400,a,0,3,3,3,0,53,53,81,,,['a'],0,[0.01716054797725519],2018_Jul_09_1053,60.0763851864,go-nogo,001,2,
logos/4.jpg,properties4.xlsx,frogs/ab56.jpg,0,0,400,l,0,3,3,3,0,54,54,55,,,['l'],0,[0.0005723027106796508],2018_Jul_09_1053,60.0763851864,go-nogo,001,2,
logos/4.jpg,properties4.xlsx,frogs/ab73.jpg,0,0,400,l,0,3,3,3,0,55,55,71,,,['l'],0,[0.5168450988189761],2018_Jul_09_1053,60.0763851864,go-nogo,001,2,
logos/4.jpg,properties4.xlsx,frogs/ab35.jpg,0,0,400,l,0,3,3,3,0,56,56,34,,,['l'],0,[0.2338379950970193],2018_Jul_09_1053,60.0763851864,go-nogo,001,2,
logos/4.jpg,properties4.xlsx,frogs/ab64.jpg,0,0,400,l,0,3,3,3,0,57,57,62,,,['l'],0,[0.25036536920060826],2018_Jul_09_1053,60.0763851864,go-nogo,001,2,
logos/4.jpg,properties4.xlsx,frogs/ab22.jpg,0,0,400,l,0,3,3,3,0,58,58,21,,,['l'],0,[0.03383241998153608],2018_Jul_09_1053,60.0763851864,go-nogo,001,2,
logos/4.jpg,properties4.xlsx,frogs/ab7.jpg,0,0,400,l,0,3,3,3,0,59,59,6,,,['l'],0,[0.06732862634271441],2018_Jul_09_1053,60.0763851864,go-nogo,001,2,
logos/4.jpg,properties4.xlsx,frogs/ab32.jpg,0,0,400,l,0,3,3,3,0,60,60,31,,,['l'],0,[0.08374051590271847],2018_Jul_09_1053,60.0763851864,go-nogo,001,2,
logos/4.jpg,properties4.xlsx,frogs/ab52.jpg,0,0,400,l,0,3,3,3,0,61,61,51,,,['l'],0,[0.05058166094113403],2018_Jul_09_1053,60.0763851864,go-nogo,001,2,
logos/4.jpg,properties4.xlsx,frogs/ab75.jpg,0,0,400,l,0,3,3,3,0,62,62,73,,,['l'],0,[0.25042168924892394],2018_Jul_09_1053,60.0763851864,go-nogo,001,2,
logos/4.jpg,properties4.xlsx,frogs/ab62.jpg,0,0,400,l,0,3,3,3,0,63,63,60,,,['l'],0,[0.666814577904006],2018_Jul_09_1053,60.0763851864,go-nogo,001,2,
logos/4.jpg,properties4.xlsx,frogs/ab66.jpg,0,0,400,l,0,3,3,3,0,64,64,64,,,['l'],0,[0.20039583322659382],2018_Jul_09_1053,60.0763851864,go-nogo,001,2,
logos/4.jpg,properties4.xlsx,frogs/ab4.jpg,0,0,400,l,0,3,3,3,0,65,65,3,,,['l'],0,[0.15059753295463452],2018_Jul_09_1053,60.0763851864,go-nogo,001,2,
logos/4.jpg,properties4.xlsx,frogs/ab23.jpg,0,0,400,l,0,3,3,3,0,66,66,22,,,['l'],0,[0.11716674887111367],2018_Jul_09_1053,60.0763851864,go-nogo,001,2,
logos/4.jpg,properties4.xlsx,frogs/ab24.jpg,0,0,400,l,0,3,3,3,0,67,67,23,,,['l'],0,[0.06710846615487753],2018_Jul_09_1053,60.0763851864,go-nogo,001,2,
logos/4.jpg,properties4.xlsx,frogs/ab54.jpg,0,0,400,l,0,3,3,3,0,68,68,53,,,['l'],0,[0.054357379718567245],2018_Jul_09_1053,60.0763851864,go-nogo,001,2,
logos/4.jpg,properties4.xlsx,frogs/ab13.jpg,0,0,400,l,0,3,3,3,0,69,69,12,,,['l'],0,[0.1338511364419901],2018_Jul_09_1053,60.0763851864,go-nogo,001,2,
logos/4.jpg,properties4.xlsx,logos/4.jpg,0,0,400,a,0,3,3,3,0,70,70,84,,,['a'],0,[0.2504689070669883],2018_Jul_09_1053,60.0763851864,go-nogo,001,2,
logos/4.jpg,properties4.xlsx,frogs/ab25.jpg,0,0,400,l,0,3,3,3,0,71,71,24,,,['l'],0,[0.050445127491002495],2018_Jul_09_1053,60.0763851864,go-nogo,001,2,
logos/4.jpg,properties4.xlsx,frogs/ab43.jpg,0,0,400,l,0,3,3,3,0,72,72,42,,,['l'],0,[0.2671339523990355],2018_Jul_09_1053,60.0763851864,go-nogo,001,2,
logos/4.jpg,properties4.xlsx,frogs/ab61.jpg,0,0,400,l,0,3,3,3,0,73,73,59,,,['l'],0,[0.11714285551715875],2018_Jul_09_1053,60.0763851864,go-nogo,001,2,
logos/4.jpg,properties4.xlsx,frogs/ab42.jpg,0,0,400,l,0,3,3,3,0,74,74,41,,,['l'],0,[0.05059190094925725],2018_Jul_09_1053,60.0763851864,go-nogo,001,2,
logos/4.jpg,properties4.xlsx,frogs/ab81.jpg,0,0,400,l,0,3,3,3,0,75,75,79,,,['l'],0,[0.0671892484460841],2018_Jul_09_1053,60.0763851864,go-nogo,001,2,
logos/4.jpg,properties4.xlsx,frogs/ab38.jpg,0,0,400,l,0,3,3,3,0,76,76,37,,,['l'],0,[0.0005762849359598476],2018_Jul_09_1053,60.0763851864,go-nogo,001,2,
logos/4.jpg,properties4.xlsx,frogs/ab33.jpg,0,0,400,l,0,3,3,3,0,77,77,32,,,['l'],0,[0.6834898632450859],2018_Jul_09_1053,60.0763851864,go-nogo,001,2,
logos/4.jpg,properties4.xlsx,frogs/ab29.jpg,0,0,400,l,0,3,3,3,0,78,78,28,,,['l'],0,[0.08380992040656565],2018_Jul_09_1053,60.0763851864,go-nogo,001,2,
logos/4.jpg,properties4.xlsx,frogs/ab6.jpg,0,0,400,l,0,3,3,3,0,79,79,5,,,['l'],0,[0.08362218691308954],2018_Jul_09_1053,60.0763851864,go-nogo,001,2,
logos/4.jpg,properties4.xlsx,frogs/ab53.jpg,0,0,400,l,0,3,3,3,0,80,80,52,,,['l'],0,[0.06722338180861698],2018_Jul_09_1053,60.0763851864,go-nogo,001,2,
logos/4.jpg,properties4.xlsx,frogs/ab15.jpg,0,0,400,l,0,3,3,3,0,81,81,14,,,['l'],0,[0.05041838969054879],2018_Jul_09_1053,60.0763851864,go-nogo,001,2,
logos/4.jpg,properties4.xlsx,frogs/ab10.jpg,0,0,400,l,0,3,3,3,0,82,82,9,,,['l'],0,[0.034083300195561606],2018_Jul_09_1053,60.0763851864,go-nogo,001,2,
logos/4.jpg,properties4.xlsx,frogs/ab17.jpg,0,0,400,l,0,3,3,3,0,83,83,16,,,['l'],0,[0.05051965199936603],2018_Jul_09_1053,60.0763851864,go-nogo,001,2,
logos/4.jpg,properties4.xlsx,frogs/ab37.jpg,0,0,400,l,0,3,3,3,0,84,84,36,,,['l'],0,[0.10055859247631815],2018_Jul_09_1053,60.0763851864,go-nogo,001,2,
logos/4.jpg,properties4.xlsx,frogs/ab57.jpg,0,0,400,l,0,3,3,3,0,85,85,56,,,['l'],0,[0.03363558425780866],2018_Jul_09_1053,60.0763851864,go-nogo,001,2,
logos/4.jpg,properties4.xlsx,frogs/ab39.jpg,0,0,400,l,0,3,3,3,0,86,86,38,,,['l'],0,[0.0003515736334520625],2018_Jul_09_1053,60.0763851864,go-nogo,001,2,
logos/4.jpg,properties4.xlsx,frogs/ab71.jpg,0,0,400,l,0,3,3,3,0,87,87,69,,,['l'],0,[0.03396326453776055],2018_Jul_09_1053,60.0763851864,go-nogo,001,2,
logos/4.jpg,properties4.xlsx,frogs/ab3.jpg,0,0,400,l,0,3,3,3,0,88,88,2,,,['l'],0,[0.050542407573630044],2018_Jul_09_1053,60.0763851864,go-nogo,001,2,
logos/4.jpg,properties4.xlsx,frogs/ab44.jpg,0,0,400,l,0,3,3,3,0,89,89,43,,,['l'],0,[0.0839874138914638],2018_Jul_09_1053,60.0763851864,go-nogo,001,2,
logos/4.jpg,properties4.xlsx,,,,,,0,3,3,3,,,,,,,,,,2018_Jul_09_1053,60.0763851864,go-nogo,001,2,
