pix,source,image1,x,y,size,answer,trials_2.thisRepN,trials_2.thisTrialN,trials_2.thisN,trials_2.thisIndex,trials.thisRepN,trials.thisTrialN,trials.thisN,trials.thisIndex,key_resp_3.keys,key_resp_3.rt,key_resp_2.keys,key_resp_2.corr,key_resp_2.rt,date,frameRate,expName,session,participant,
logos/2.jpg,properties2.xlsx,frogs/ab35.jpg,0,0,400,l,0,0,0,1,0,0,0,34,space,7.83179608238,['l'],0,[0.8171868062272551],2018_Jul_09_0610,59.9874987292,go-nogo,001,30,
logos/2.jpg,properties2.xlsx,frogs/ab39.jpg,0,0,400,l,0,0,0,1,0,1,1,38,,,['l'],0,[0.6676543628564104],2018_Jul_09_0610,59.9874987292,go-nogo,001,30,
logos/2.jpg,properties2.xlsx,frogs/ab51.jpg,0,0,400,l,0,0,0,1,0,2,2,50,,,['l'],0,[0.4176758943358436],2018_Jul_09_0610,59.9874987292,go-nogo,001,30,
logos/2.jpg,properties2.xlsx,frogs/ab13.jpg,0,0,400,l,0,0,0,1,0,3,3,12,,,['l'],0,[0.3843094642579672],2018_Jul_09_0610,59.9874987292,go-nogo,001,30,
logos/2.jpg,properties2.xlsx,frogs/ab24.jpg,0,0,400,l,0,0,0,1,0,4,4,23,,,['l'],0,[0.43444456592260394],2018_Jul_09_0610,59.9874987292,go-nogo,001,30,
logos/2.jpg,properties2.xlsx,logos/2.jpg,0,0,400,a,0,0,0,1,0,5,5,80,,,['l'],0,[1.734046735582524],2018_Jul_09_0610,59.9874987292,go-nogo,001,30,
logos/2.jpg,properties2.xlsx,frogs/ab79.jpg,0,0,400,l,0,0,0,1,0,6,6,77,,,['l'],0,[0.6676262492110254],2018_Jul_09_0610,59.9874987292,go-nogo,001,30,
logos/2.jpg,properties2.xlsx,frogs/ab49.jpg,0,0,400,l,0,0,0,1,0,7,7,48,,,['l'],0,[2.017231877303857],2018_Jul_09_0610,59.9874987292,go-nogo,001,30,
logos/2.jpg,properties2.xlsx,frogs/ab36.jpg,0,0,400,l,0,0,0,1,0,8,8,35,,,['l'],0,[0.43458736537286313],2018_Jul_09_0610,59.9874987292,go-nogo,001,30,
logos/2.jpg,properties2.xlsx,frogs/ab46.jpg,0,0,400,l,0,0,0,1,0,9,9,45,,,['l'],0,[0.4503836619624053],2018_Jul_09_0610,59.9874987292,go-nogo,001,30,
logos/2.jpg,properties2.xlsx,frogs/ab18.jpg,0,0,400,l,0,0,0,1,0,10,10,17,,,['l'],0,[0.4512569698417792],2018_Jul_09_0610,59.9874987292,go-nogo,001,30,
logos/2.jpg,properties2.xlsx,logos/2.jpg,0,0,400,a,0,0,0,1,0,11,11,85,,,['a'],0,[0.06793728427146561],2018_Jul_09_0610,59.9874987292,go-nogo,001,30,
logos/2.jpg,properties2.xlsx,frogs/ab22.jpg,0,0,400,l,0,0,0,1,0,12,12,21,,,['l'],0,[0.36790091502916766],2018_Jul_09_0610,59.9874987292,go-nogo,001,30,
logos/2.jpg,properties2.xlsx,frogs/ab68.jpg,0,0,400,l,0,0,0,1,0,13,13,66,,,['l'],0,[0.23479308583046077],2018_Jul_09_0610,59.9874987292,go-nogo,001,30,
logos/2.jpg,properties2.xlsx,frogs/ab27.jpg,0,0,400,l,0,0,0,1,0,14,14,26,,,['l'],0,[0.23470026619179407],2018_Jul_09_0610,59.9874987292,go-nogo,001,30,
logos/2.jpg,properties2.xlsx,logos/2.jpg,0,0,400,a,0,0,0,1,0,15,15,84,,,['l'],0,[0.5016044856893132],2018_Jul_09_0610,59.9874987292,go-nogo,001,30,
logos/2.jpg,properties2.xlsx,frogs/ab53.jpg,0,0,400,l,0,0,0,1,0,16,16,52,,,['l'],0,[0.2512462598824641],2018_Jul_09_0610,59.9874987292,go-nogo,001,30,
logos/2.jpg,properties2.xlsx,frogs/ab40.jpg,0,0,400,l,0,0,0,1,0,17,17,39,,,['l'],0,[0.251475185250456],2018_Jul_09_0610,59.9874987292,go-nogo,001,30,
logos/2.jpg,properties2.xlsx,frogs/ab61.jpg,0,0,400,l,0,0,0,1,0,18,18,59,,,['l'],0,[0.2514149417329463],2018_Jul_09_0610,59.9874987292,go-nogo,001,30,
logos/2.jpg,properties2.xlsx,frogs/ab71.jpg,0,0,400,l,0,0,0,1,0,19,19,69,,,['l'],0,[0.21781958628707798],2018_Jul_09_0610,59.9874987292,go-nogo,001,30,
logos/2.jpg,properties2.xlsx,frogs/ab60.jpg,0,0,400,l,0,0,0,1,0,20,20,58,,,['l'],0,[0.21788652352552162],2018_Jul_09_0610,59.9874987292,go-nogo,001,30,
logos/2.jpg,properties2.xlsx,logos/2.jpg,0,0,400,a,0,0,0,1,0,21,21,83,,,['l'],0,[0.45114674651267705],2018_Jul_09_0610,59.9874987292,go-nogo,001,30,
logos/2.jpg,properties2.xlsx,frogs/ab5.jpg,0,0,400,l,0,0,0,1,0,22,22,4,,,['l'],0,[0.1008565735683078],2018_Jul_09_0610,59.9874987292,go-nogo,001,30,
logos/2.jpg,properties2.xlsx,frogs/ab47.jpg,0,0,400,l,0,0,0,1,0,23,23,46,,,['l'],0,[1.9350989890226629],2018_Jul_09_0610,59.9874987292,go-nogo,001,30,
logos/2.jpg,properties2.xlsx,frogs/ab26.jpg,0,0,400,l,0,0,0,1,0,24,24,25,,,['l'],0,[0.35121346063533565],2018_Jul_09_0610,59.9874987292,go-nogo,001,30,
logos/2.jpg,properties2.xlsx,frogs/ab25.jpg,0,0,400,l,0,0,0,1,0,25,25,24,,,['l'],0,[0.3678902050742181],2018_Jul_09_0610,59.9874987292,go-nogo,001,30,
logos/2.jpg,properties2.xlsx,frogs/ab4.jpg,0,0,400,l,0,0,0,1,0,26,26,3,,,['l'],0,[0.35137857249355875],2018_Jul_09_0610,59.9874987292,go-nogo,001,30,
logos/2.jpg,properties2.xlsx,frogs/ab37.jpg,0,0,400,l,0,0,0,1,0,27,27,36,,,['l'],0,[0.3180170511477627],2018_Jul_09_0610,59.9874987292,go-nogo,001,30,
logos/2.jpg,properties2.xlsx,frogs/ab66.jpg,0,0,400,l,0,0,0,1,0,28,28,64,,,['l'],0,[0.38451206097670365],2018_Jul_09_0610,59.9874987292,go-nogo,001,30,
logos/2.jpg,properties2.xlsx,frogs/ab43.jpg,0,0,400,l,0,0,0,1,0,29,29,42,,,['l'],0,[0.2679283593024593],2018_Jul_09_0610,59.9874987292,go-nogo,001,30,
logos/2.jpg,properties2.xlsx,frogs/ab62.jpg,0,0,400,l,0,0,0,1,0,30,30,60,,,['l'],0,[0.3512875378510216],2018_Jul_09_0610,59.9874987292,go-nogo,001,30,
logos/2.jpg,properties2.xlsx,frogs/ab23.jpg,0,0,400,l,0,0,0,1,0,31,31,22,,,['l'],0,[0.28421374400204513],2018_Jul_09_0610,59.9874987292,go-nogo,001,30,
logos/2.jpg,properties2.xlsx,logos/2.jpg,0,0,400,a,0,0,0,1,0,32,32,82,,,['a'],0,[0.0010790283340611495],2018_Jul_09_0610,59.9874987292,go-nogo,001,30,
logos/2.jpg,properties2.xlsx,frogs/ab41.jpg,0,0,400,l,0,0,0,1,0,33,33,40,,,['l'],0,[0.1336294934444595],2018_Jul_09_0610,59.9874987292,go-nogo,001,30,
logos/2.jpg,properties2.xlsx,frogs/ab12.jpg,0,0,400,l,0,0,0,1,0,34,34,11,,,['l'],0,[0.23469223371648695],2018_Jul_09_0610,59.9874987292,go-nogo,001,30,
logos/2.jpg,properties2.xlsx,frogs/ab14.jpg,0,0,400,l,0,0,0,1,0,35,35,13,,,['l'],0,[0.2346319901989773],2018_Jul_09_0610,59.9874987292,go-nogo,001,30,
logos/2.jpg,properties2.xlsx,frogs/ab21.jpg,0,0,400,l,0,0,0,1,0,36,36,20,,,['l'],0,[0.2510940892243525],2018_Jul_09_0610,59.9874987292,go-nogo,001,30,
logos/2.jpg,properties2.xlsx,frogs/ab2.jpg,0,0,400,l,0,0,0,1,0,37,37,1,,,['l'],0,[0.2429121270251926],2018_Jul_09_0610,59.9874987292,go-nogo,001,30,
logos/2.jpg,properties2.xlsx,frogs/ab17.jpg,0,0,400,l,0,0,0,1,0,38,38,16,,,['l'],0,[0.4008202043332858],2018_Jul_09_0610,59.9874987292,go-nogo,001,30,
logos/2.jpg,properties2.xlsx,frogs/ab56.jpg,0,0,400,l,0,0,0,1,0,39,39,55,,,['l'],0,[0.6435551707909326],2018_Jul_09_0610,59.9874987292,go-nogo,001,30,
logos/2.jpg,properties2.xlsx,frogs/ab20.jpg,0,0,400,l,0,0,0,1,0,40,40,19,,,['l'],0,[0.5176953061381937],2018_Jul_09_0610,59.9874987292,go-nogo,001,30,
logos/2.jpg,properties2.xlsx,frogs/ab29.jpg,0,0,400,l,0,0,0,1,0,41,41,28,,,['l'],0,[0.5341078716010088],2018_Jul_09_0610,59.9874987292,go-nogo,001,30,
logos/2.jpg,properties2.xlsx,frogs/ab64.jpg,0,0,400,l,0,0,0,1,0,42,42,62,,,['l'],0,[0.5174623645361862],2018_Jul_09_0610,59.9874987292,go-nogo,001,30,
logos/2.jpg,properties2.xlsx,frogs/ab9.jpg,0,0,400,l,0,0,0,1,0,43,43,8,,,['l'],0,[0.5170598485929077],2018_Jul_09_0610,59.9874987292,go-nogo,001,30,
logos/2.jpg,properties2.xlsx,frogs/ab72.jpg,0,0,400,l,0,0,0,1,0,44,44,70,,,['l'],0,[0.2844725679969997],2018_Jul_09_0610,59.9874987292,go-nogo,001,30,
logos/2.jpg,properties2.xlsx,frogs/ab77.jpg,0,0,400,l,0,0,0,1,0,45,45,75,,,['l'],0,[0.234219656791538],2018_Jul_09_0610,59.9874987292,go-nogo,001,30,
logos/2.jpg,properties2.xlsx,frogs/ab55.jpg,0,0,400,l,0,0,0,1,0,46,46,54,,,['l'],0,[0.2503725057540578],2018_Jul_09_0610,59.9874987292,go-nogo,001,30,
logos/2.jpg,properties2.xlsx,frogs/ab67.jpg,0,0,400,l,0,0,0,1,0,47,47,65,,,['l'],0,[0.2509798496539588],2018_Jul_09_0610,59.9874987292,go-nogo,001,30,
logos/2.jpg,properties2.xlsx,frogs/ab44.jpg,0,0,400,l,0,0,0,1,0,48,48,43,,,['l'],0,[0.43424910917383386],2018_Jul_09_0610,59.9874987292,go-nogo,001,30,
logos/2.jpg,properties2.xlsx,frogs/ab75.jpg,0,0,400,l,0,0,0,1,0,49,49,73,,,['l'],0,[0.26756689819012536],2018_Jul_09_0610,59.9874987292,go-nogo,001,30,
logos/2.jpg,properties2.xlsx,frogs/ab58.jpg,0,0,400,l,0,0,0,1,0,50,50,57,,,['l'],0,[0.45091291241988074],2018_Jul_09_0610,59.9874987292,go-nogo,001,30,
logos/2.jpg,properties2.xlsx,frogs/ab45.jpg,0,0,400,l,0,0,0,1,0,51,51,44,,,['l'],0,[0.25093433233269025],2018_Jul_09_0610,59.9874987292,go-nogo,001,30,
logos/2.jpg,properties2.xlsx,frogs/ab1.jpg,0,0,400,l,0,0,0,1,0,52,52,0,,,['l'],0,[0.2346110165308346],2018_Jul_09_0610,59.9874987292,go-nogo,001,30,
logos/2.jpg,properties2.xlsx,frogs/ab81.jpg,0,0,400,l,0,0,0,1,0,53,53,79,,,['l'],0,[0.2845412902388489],2018_Jul_09_0610,59.9874987292,go-nogo,001,30,
logos/2.jpg,properties2.xlsx,frogs/ab52.jpg,0,0,400,l,0,0,0,1,0,54,54,51,,,['l'],0,[0.28457029637502274],2018_Jul_09_0610,59.9874987292,go-nogo,001,30,
logos/2.jpg,properties2.xlsx,frogs/ab6.jpg,0,0,400,l,0,0,0,1,0,55,55,5,,,['l'],0,[0.3179447589209303],2018_Jul_09_0610,59.9874987292,go-nogo,001,30,
logos/2.jpg,properties2.xlsx,frogs/ab19.jpg,0,0,400,l,0,0,0,1,0,56,56,18,,,['l'],0,[0.2840080235400819],2018_Jul_09_0610,59.9874987292,go-nogo,001,30,
logos/2.jpg,properties2.xlsx,frogs/ab78.jpg,0,0,400,l,0,0,0,1,0,57,57,76,,,['l'],0,[0.33447915016586194],2018_Jul_09_0610,59.9874987292,go-nogo,001,30,
logos/2.jpg,properties2.xlsx,frogs/ab11.jpg,0,0,400,l,0,0,0,1,0,58,58,10,,,['l'],0,[0.25109141173015814],2018_Jul_09_0610,59.9874987292,go-nogo,001,30,
logos/2.jpg,properties2.xlsx,logos/2.jpg,0,0,400,a,0,0,0,1,0,59,59,87,,,['l'],0,[0.5842929530699621],2018_Jul_09_0610,59.9874987292,go-nogo,001,30,
logos/2.jpg,properties2.xlsx,frogs/ab69.jpg,0,0,400,l,0,0,0,1,0,60,60,67,,,['l'],0,[0.2513930755594629],2018_Jul_09_0610,59.9874987292,go-nogo,001,30,
logos/2.jpg,properties2.xlsx,frogs/ab10.jpg,0,0,400,l,0,0,0,1,0,61,61,9,,,['l'],0,[0.3010310566460248],2018_Jul_09_0610,59.9874987292,go-nogo,001,30,
logos/2.jpg,properties2.xlsx,frogs/ab33.jpg,0,0,400,l,0,0,0,1,0,62,62,32,,,['l'],0,[0.26772353133856086],2018_Jul_09_0610,59.9874987292,go-nogo,001,30,
logos/2.jpg,properties2.xlsx,frogs/ab70.jpg,0,0,400,l,0,0,0,1,0,63,63,68,,,['l'],0,[0.3341743625860545],2018_Jul_09_0610,59.9874987292,go-nogo,001,30,
logos/2.jpg,properties2.xlsx,frogs/ab63.jpg,0,0,400,l,0,0,0,1,0,64,64,61,,,['l'],0,[0.45083883520419477],2018_Jul_09_0610,59.9874987292,go-nogo,001,30,
logos/2.jpg,properties2.xlsx,frogs/ab8.jpg,0,0,400,l,0,0,0,1,0,65,65,7,,,['l'],0,[0.3012028622397338],2018_Jul_09_0610,59.9874987292,go-nogo,001,30,
logos/2.jpg,properties2.xlsx,frogs/ab31.jpg,0,0,400,l,0,0,0,1,0,66,66,30,,,['l'],0,[0.33509631153719965],2018_Jul_09_0610,59.9874987292,go-nogo,001,30,
logos/2.jpg,properties2.xlsx,frogs/ab65.jpg,0,0,400,l,0,0,0,1,0,67,67,63,,,['l'],0,[0.3012068784664734],2018_Jul_09_0610,59.9874987292,go-nogo,001,30,
logos/2.jpg,properties2.xlsx,frogs/ab7.jpg,0,0,400,l,0,0,0,1,0,68,68,6,,,['l'],0,[0.26794665548368357],2018_Jul_09_0610,59.9874987292,go-nogo,001,30,
logos/2.jpg,properties2.xlsx,frogs/ab73.jpg,0,0,400,l,0,0,0,1,0,69,69,71,,,['l'],0,[0.21780173634761013],2018_Jul_09_0610,59.9874987292,go-nogo,001,30,
logos/2.jpg,properties2.xlsx,frogs/ab57.jpg,0,0,400,l,0,0,0,1,0,70,70,56,,,['l'],0,[0.31768816616386175],2018_Jul_09_0610,59.9874987292,go-nogo,001,30,
logos/2.jpg,properties2.xlsx,logos/2.jpg,0,0,400,a,0,0,0,1,0,71,71,89,,,['l'],0,[0.5009949105369742],2018_Jul_09_0610,59.9874987292,go-nogo,001,30,
logos/2.jpg,properties2.xlsx,frogs/ab32.jpg,0,0,400,l,0,0,0,1,0,72,72,31,,,['l'],0,[0.2669836516943178],2018_Jul_09_0610,59.9874987292,go-nogo,001,30,
logos/2.jpg,properties2.xlsx,frogs/ab74.jpg,0,0,400,l,0,0,0,1,0,73,73,72,,,['l'],0,[0.25118021513480926],2018_Jul_09_0610,59.9874987292,go-nogo,001,30,
logos/2.jpg,properties2.xlsx,frogs/ab30.jpg,0,0,400,l,0,0,0,1,0,74,74,29,,,['l'],0,[0.16777596551401075],2018_Jul_09_0610,59.9874987292,go-nogo,001,30,
logos/2.jpg,properties2.xlsx,logos/2.jpg,0,0,400,a,0,0,0,1,0,75,75,88,,,['l'],0,[0.4511596877127886],2018_Jul_09_0610,59.9874987292,go-nogo,001,30,
logos/2.jpg,properties2.xlsx,frogs/ab48.jpg,0,0,400,l,0,0,0,1,0,76,76,47,,,['l'],0,[0.2679131868571858],2018_Jul_09_0610,59.9874987292,go-nogo,001,30,
logos/2.jpg,properties2.xlsx,logos/2.jpg,0,0,400,a,0,0,0,1,0,77,77,86,,,['a'],0,[0.050305122254940215],2018_Jul_09_0610,59.9874987292,go-nogo,001,30,
logos/2.jpg,properties2.xlsx,frogs/ab34.jpg,0,0,400,l,0,0,0,1,0,78,78,33,,,['l'],0,[0.01768392680969555],2018_Jul_09_0610,59.9874987292,go-nogo,001,30,
logos/2.jpg,properties2.xlsx,frogs/ab38.jpg,0,0,400,l,0,0,0,1,0,79,79,37,,,['l'],0,[0.2675285208460991],2018_Jul_09_0610,59.9874987292,go-nogo,001,30,
logos/2.jpg,properties2.xlsx,frogs/ab54.jpg,0,0,400,l,0,0,0,1,0,80,80,53,,,['l'],0,[0.2677065739117097],2018_Jul_09_0610,59.9874987292,go-nogo,001,30,
logos/2.jpg,properties2.xlsx,frogs/ab28.jpg,0,0,400,l,0,0,0,1,0,81,81,27,,,['l'],0,[0.30087977847870206],2018_Jul_09_0610,59.9874987292,go-nogo,001,30,
logos/2.jpg,properties2.xlsx,frogs/ab42.jpg,0,0,400,l,0,0,0,1,0,82,82,41,,,['l'],0,[0.21799049937544623],2018_Jul_09_0610,59.9874987292,go-nogo,001,30,
logos/2.jpg,properties2.xlsx,frogs/ab3.jpg,0,0,400,l,0,0,0,1,0,83,83,2,,,['l'],0,[0.2836407612048788],2018_Jul_09_0610,59.9874987292,go-nogo,001,30,
logos/2.jpg,properties2.xlsx,frogs/ab80.jpg,0,0,400,l,0,0,0,1,0,84,84,78,,,['l'],0,[0.2514725077635376],2018_Jul_09_0610,59.9874987292,go-nogo,001,30,
logos/2.jpg,properties2.xlsx,frogs/ab16.jpg,0,0,400,l,0,0,0,1,0,85,85,15,,,['l'],0,[0.25234983187692706],2018_Jul_09_0610,59.9874987292,go-nogo,001,30,
logos/2.jpg,properties2.xlsx,frogs/ab76.jpg,0,0,400,l,0,0,0,1,0,86,86,74,,,['l'],0,[0.2171305789379403],2018_Jul_09_0610,59.9874987292,go-nogo,001,30,
logos/2.jpg,properties2.xlsx,frogs/ab50.jpg,0,0,400,l,0,0,0,1,0,87,87,49,,,['l'],0,[0.2844895254311268],2018_Jul_09_0610,59.9874987292,go-nogo,001,30,
logos/2.jpg,properties2.xlsx,frogs/ab15.jpg,0,0,400,l,0,0,0,1,0,88,88,14,,,['l'],0,[0.1843130342385848],2018_Jul_09_0610,59.9874987292,go-nogo,001,30,
logos/2.jpg,properties2.xlsx,logos/2.jpg,0,0,400,a,0,0,0,1,0,89,89,81,,,['l'],0,[0.46756645194545854],2018_Jul_09_0610,59.9874987292,go-nogo,001,30,
logos/2.jpg,properties2.xlsx,,,,,,0,0,0,1,,,,,,,,,,2018_Jul_09_0610,59.9874987292,go-nogo,001,30,
logos/3.jpg,properties3.xlsx,frogs/ab57.jpg,0,0,400,l,0,1,1,2,0,0,0,56,space,1.26737501143,['l'],0,[0.40043910829990637],2018_Jul_09_0610,59.9874987292,go-nogo,001,30,
logos/3.jpg,properties3.xlsx,frogs/ab3.jpg,0,0,400,l,0,1,1,2,0,1,1,2,,,['l'],0,[0.4010959857769194],2018_Jul_09_0610,59.9874987292,go-nogo,001,30,
logos/3.jpg,properties3.xlsx,frogs/ab23.jpg,0,0,400,l,0,1,1,2,0,2,2,22,,,['l'],0,[0.3011515436883201],2018_Jul_09_0610,59.9874987292,go-nogo,001,30,
logos/3.jpg,properties3.xlsx,frogs/ab77.jpg,0,0,400,l,0,1,1,2,0,3,3,75,,,['l'],0,[0.2512400124105625],2018_Jul_09_0610,59.9874987292,go-nogo,001,30,
logos/3.jpg,properties3.xlsx,logos/3.jpg,0,0,400,a,0,1,1,2,0,4,4,81,,,['l'],0,[0.43441511353012174],2018_Jul_09_0610,59.9874987292,go-nogo,001,30,
logos/3.jpg,properties3.xlsx,frogs/ab58.jpg,0,0,400,l,0,1,1,2,0,5,5,57,,,['l'],0,[0.3340038957467186],2018_Jul_09_0610,59.9874987292,go-nogo,001,30,
logos/3.jpg,properties3.xlsx,frogs/ab24.jpg,0,0,400,l,0,1,1,2,0,6,6,23,,,['l'],0,[0.3839069483074127],2018_Jul_09_0610,59.9874987292,go-nogo,001,30,
logos/3.jpg,properties3.xlsx,frogs/ab43.jpg,0,0,400,l,0,1,1,2,0,7,7,42,,,['l'],0,[0.3178555092745228],2018_Jul_09_0610,59.9874987292,go-nogo,001,30,
logos/3.jpg,properties3.xlsx,frogs/ab15.jpg,0,0,400,l,0,1,1,2,0,8,8,14,,,['l'],0,[0.20098888618667843],2018_Jul_09_0610,59.9874987292,go-nogo,001,30,
logos/3.jpg,properties3.xlsx,frogs/ab44.jpg,0,0,400,l,0,1,1,2,0,9,9,43,,,['l'],0,[0.2707401697043679],2018_Jul_09_0610,59.9874987292,go-nogo,001,30,
logos/3.jpg,properties3.xlsx,frogs/ab12.jpg,0,0,400,l,0,1,1,2,0,10,10,11,,,['l'],0,[0.2837273333716439],2018_Jul_09_0610,59.9874987292,go-nogo,001,30,
logos/3.jpg,properties3.xlsx,frogs/ab9.jpg,0,0,400,l,0,1,1,2,0,11,11,8,,,['l'],0,[0.06744373366382206],2018_Jul_09_0610,59.9874987292,go-nogo,001,30,
logos/3.jpg,properties3.xlsx,frogs/ab70.jpg,0,0,400,l,0,1,1,2,0,12,12,68,,,['l'],0,[0.2343450525586377],2018_Jul_09_0610,59.9874987292,go-nogo,001,30,
logos/3.jpg,properties3.xlsx,frogs/ab51.jpg,0,0,400,l,0,1,1,2,0,13,13,50,,,['l'],0,[0.23423125924455235],2018_Jul_09_0610,59.9874987292,go-nogo,001,30,
logos/3.jpg,properties3.xlsx,frogs/ab27.jpg,0,0,400,l,0,1,1,2,0,14,14,26,,,['l'],0,[0.2187607239029603],2018_Jul_09_0610,59.9874987292,go-nogo,001,30,
logos/3.jpg,properties3.xlsx,frogs/ab75.jpg,0,0,400,l,0,1,1,2,0,15,15,73,,,['l'],0,[0.3009029833920067],2018_Jul_09_0610,59.9874987292,go-nogo,001,30,
logos/3.jpg,properties3.xlsx,frogs/ab11.jpg,0,0,400,l,0,1,1,2,0,16,16,10,,,['l'],0,[0.2188281073977123],2018_Jul_09_0610,59.9874987292,go-nogo,001,30,
logos/3.jpg,properties3.xlsx,frogs/ab32.jpg,0,0,400,l,0,1,1,2,0,17,17,31,,,['l'],0,[0.2344548296314315],2018_Jul_09_0610,59.9874987292,go-nogo,001,30,
logos/3.jpg,properties3.xlsx,frogs/ab28.jpg,0,0,400,l,0,1,1,2,0,18,18,27,,,['l'],0,[0.2178999109673896],2018_Jul_09_0610,59.9874987292,go-nogo,001,30,
logos/3.jpg,properties3.xlsx,frogs/ab5.jpg,0,0,400,l,0,1,1,2,0,19,19,4,,,['l'],0,[0.2675695756843197],2018_Jul_09_0610,59.9874987292,go-nogo,001,30,
logos/3.jpg,properties3.xlsx,logos/3.jpg,0,0,400,a,0,1,1,2,0,20,20,83,,,['l'],0,[0.4655775233695749],2018_Jul_09_0610,59.9874987292,go-nogo,001,30,
logos/3.jpg,properties3.xlsx,frogs/ab71.jpg,0,0,400,l,0,1,1,2,0,21,21,69,,,['l'],0,[0.23460967778373742],2018_Jul_09_0610,59.9874987292,go-nogo,001,30,
logos/3.jpg,properties3.xlsx,frogs/ab41.jpg,0,0,400,l,0,1,1,2,0,22,22,40,,,['l'],0,[0.2510708843037719],2018_Jul_09_0610,59.9874987292,go-nogo,001,30,
logos/3.jpg,properties3.xlsx,frogs/ab79.jpg,0,0,400,l,0,1,1,2,0,23,23,77,,,['l'],0,[0.2503756294900086],2018_Jul_09_0610,59.9874987292,go-nogo,001,30,
logos/3.jpg,properties3.xlsx,frogs/ab1.jpg,0,0,400,l,0,1,1,2,0,24,24,0,,,['l'],0,[0.23459807533072308],2018_Jul_09_0610,59.9874987292,go-nogo,001,30,
logos/3.jpg,properties3.xlsx,frogs/ab45.jpg,0,0,400,l,0,1,1,2,0,25,25,44,,,['l'],0,[0.38346427001670236],2018_Jul_09_0610,59.9874987292,go-nogo,001,30,
logos/3.jpg,properties3.xlsx,frogs/ab35.jpg,0,0,400,l,0,1,1,2,0,26,26,34,,,['l'],0,[0.3014023352152435],2018_Jul_09_0610,59.9874987292,go-nogo,001,30,
logos/3.jpg,properties3.xlsx,frogs/ab18.jpg,0,0,400,l,0,1,1,2,0,27,27,17,,,['l'],0,[0.2512583085845108],2018_Jul_09_0610,59.9874987292,go-nogo,001,30,
logos/3.jpg,properties3.xlsx,frogs/ab25.jpg,0,0,400,l,0,1,1,2,0,28,28,24,,,['l'],0,[0.3345001238340046],2018_Jul_09_0610,59.9874987292,go-nogo,001,30,
logos/3.jpg,properties3.xlsx,logos/3.jpg,0,0,400,a,0,1,1,2,0,29,29,84,,,['l'],0,[0.4177218579061446],2018_Jul_09_0610,59.9874987292,go-nogo,001,30,
logos/3.jpg,properties3.xlsx,logos/3.jpg,0,0,400,a,0,1,1,2,0,30,30,85,,,['a'],0,[0.1512433592652087],2018_Jul_09_0610,59.9874987292,go-nogo,001,30,
logos/3.jpg,properties3.xlsx,frogs/ab49.jpg,0,0,400,l,0,1,1,2,0,31,31,48,,,['l'],0,[0.23456416046246886],2018_Jul_09_0610,59.9874987292,go-nogo,001,30,
logos/3.jpg,properties3.xlsx,frogs/ab16.jpg,0,0,400,l,0,1,1,2,0,32,32,15,,,['l'],0,[0.2512404586523189],2018_Jul_09_0610,59.9874987292,go-nogo,001,30,
logos/3.jpg,properties3.xlsx,frogs/ab52.jpg,0,0,400,l,0,1,1,2,0,33,33,51,,,['l'],0,[0.267385721388564],2018_Jul_09_0610,59.9874987292,go-nogo,001,30,
logos/3.jpg,properties3.xlsx,frogs/ab38.jpg,0,0,400,l,0,1,1,2,0,34,34,37,,,['l'],0,[0.23466144258418353],2018_Jul_09_0610,59.9874987292,go-nogo,001,30,
logos/3.jpg,properties3.xlsx,frogs/ab19.jpg,0,0,400,l,0,1,1,2,0,35,35,18,,,['l'],0,[0.21773033662611851],2018_Jul_09_0610,59.9874987292,go-nogo,001,30,
logos/3.jpg,properties3.xlsx,frogs/ab64.jpg,0,0,400,l,0,1,1,2,0,36,36,62,,,['l'],0,[0.25165323831606656],2018_Jul_09_0610,59.9874987292,go-nogo,001,30,
logos/3.jpg,properties3.xlsx,frogs/ab66.jpg,0,0,400,l,0,1,1,2,0,37,37,64,,,['l'],0,[0.3008204274592572],2018_Jul_09_0610,59.9874987292,go-nogo,001,30,
logos/3.jpg,properties3.xlsx,logos/3.jpg,0,0,400,a,0,1,1,2,0,38,38,87,,,['l'],0,[0.45057956495293183],2018_Jul_09_0610,59.9874987292,go-nogo,001,30,
logos/3.jpg,properties3.xlsx,frogs/ab72.jpg,0,0,400,l,0,1,1,2,0,39,39,70,,,['l'],0,[0.3513111890060827],2018_Jul_09_0610,59.9874987292,go-nogo,001,30,
logos/3.jpg,properties3.xlsx,frogs/ab21.jpg,0,0,400,l,0,1,1,2,0,40,40,20,,,['l'],0,[0.25123197993525537],2018_Jul_09_0610,59.9874987292,go-nogo,001,30,
logos/3.jpg,properties3.xlsx,frogs/ab55.jpg,0,0,400,l,0,1,1,2,0,41,41,54,,,['l'],0,[0.31792110776586924],2018_Jul_09_0610,59.9874987292,go-nogo,001,30,
logos/3.jpg,properties3.xlsx,frogs/ab26.jpg,0,0,400,l,0,1,1,2,0,42,42,25,,,['l'],0,[0.25120922127825907],2018_Jul_09_0610,59.9874987292,go-nogo,001,30,
logos/3.jpg,properties3.xlsx,frogs/ab17.jpg,0,0,400,l,0,1,1,2,0,43,43,16,,,['l'],0,[0.3018882995893364],2018_Jul_09_0610,59.9874987292,go-nogo,001,30,
logos/3.jpg,properties3.xlsx,frogs/ab46.jpg,0,0,400,l,0,1,1,2,0,44,44,45,,,['l'],0,[0.25104410941276],2018_Jul_09_0610,59.9874987292,go-nogo,001,30,
logos/3.jpg,properties3.xlsx,frogs/ab37.jpg,0,0,400,l,0,1,1,2,0,45,45,36,,,['l'],0,[0.3678165741075645],2018_Jul_09_0610,59.9874987292,go-nogo,001,30,
logos/3.jpg,properties3.xlsx,frogs/ab74.jpg,0,0,400,l,0,1,1,2,0,46,46,72,,,['l'],0,[0.23472123985993676],2018_Jul_09_0610,59.9874987292,go-nogo,001,30,
logos/3.jpg,properties3.xlsx,logos/3.jpg,0,0,400,a,0,1,1,2,0,47,47,86,,,['l'],0,[0.4845069291186519],2018_Jul_09_0610,59.9874987292,go-nogo,001,30,
logos/3.jpg,properties3.xlsx,frogs/ab54.jpg,0,0,400,l,0,1,1,2,0,48,48,53,,,['l'],0,[0.4343173851593747],2018_Jul_09_0610,59.9874987292,go-nogo,001,30,
logos/3.jpg,properties3.xlsx,frogs/ab73.jpg,0,0,400,l,0,1,1,2,0,49,49,71,,,['l'],0,[0.2843971520487685],2018_Jul_09_0610,59.9874987292,go-nogo,001,30,
logos/3.jpg,properties3.xlsx,frogs/ab67.jpg,0,0,400,l,0,1,1,2,0,50,50,65,,,['l'],0,[0.2845917162921978],2018_Jul_09_0610,59.9874987292,go-nogo,001,30,
logos/3.jpg,properties3.xlsx,frogs/ab2.jpg,0,0,400,l,0,1,1,2,0,51,51,1,,,['l'],0,[0.022070101142162457],2018_Jul_09_0610,59.9874987292,go-nogo,001,30,
logos/3.jpg,properties3.xlsx,frogs/ab29.jpg,0,0,400,l,0,1,1,2,0,52,52,28,,,['l'],0,[0.4011017869997886],2018_Jul_09_0610,59.9874987292,go-nogo,001,30,
logos/3.jpg,properties3.xlsx,frogs/ab31.jpg,0,0,400,l,0,1,1,2,0,53,53,30,,,['l'],0,[0.36791876496135956],2018_Jul_09_0610,59.9874987292,go-nogo,001,30,
logos/3.jpg,properties3.xlsx,frogs/ab4.jpg,0,0,400,l,0,1,1,2,0,54,54,3,,,['l'],0,[0.28469122965907445],2018_Jul_09_0610,59.9874987292,go-nogo,001,30,
logos/3.jpg,properties3.xlsx,frogs/ab53.jpg,0,0,400,l,0,1,1,2,0,55,55,52,,,['l'],0,[0.3505757718376117],2018_Jul_09_0610,59.9874987292,go-nogo,001,30,
logos/3.jpg,properties3.xlsx,logos/3.jpg,0,0,400,a,0,1,1,2,0,56,56,88,,,['l'],0,[0.6836827085498953],2018_Jul_09_0610,59.9874987292,go-nogo,001,30,
logos/3.jpg,properties3.xlsx,frogs/ab10.jpg,0,0,400,l,0,1,1,2,0,57,57,9,,,['l'],0,[0.2839027089503361],2018_Jul_09_0610,59.9874987292,go-nogo,001,30,
logos/3.jpg,properties3.xlsx,frogs/ab68.jpg,0,0,400,l,0,1,1,2,0,58,58,66,,,['l'],0,[0.21793025585793657],2018_Jul_09_0610,59.9874987292,go-nogo,001,30,
logos/3.jpg,properties3.xlsx,frogs/ab30.jpg,0,0,400,l,0,1,1,2,0,59,59,29,,,['l'],0,[0.23476274094718974],2018_Jul_09_0610,59.9874987292,go-nogo,001,30,
logos/3.jpg,properties3.xlsx,frogs/ab22.jpg,0,0,400,l,0,1,1,2,0,60,60,21,,,['l'],0,[0.2679069393852842],2018_Jul_09_0610,59.9874987292,go-nogo,001,30,
logos/3.jpg,properties3.xlsx,frogs/ab65.jpg,0,0,400,l,0,1,1,2,0,61,61,63,,,['l'],0,[0.25109141173015814],2018_Jul_09_0610,59.9874987292,go-nogo,001,30,
logos/3.jpg,properties3.xlsx,frogs/ab63.jpg,0,0,400,l,0,1,1,2,0,62,62,61,,,['l'],0,[0.38369319538469426],2018_Jul_09_0610,59.9874987292,go-nogo,001,30,
logos/3.jpg,properties3.xlsx,frogs/ab39.jpg,0,0,400,l,0,1,1,2,0,63,63,38,,,['l'],0,[0.4012102253327612],2018_Jul_09_0610,59.9874987292,go-nogo,001,30,
logos/3.jpg,properties3.xlsx,frogs/ab56.jpg,0,0,400,l,0,1,1,2,0,64,64,55,,,['l'],0,[0.1586568819329841],2018_Jul_09_0610,59.9874987292,go-nogo,001,30,
logos/3.jpg,properties3.xlsx,frogs/ab48.jpg,0,0,400,l,0,1,1,2,0,65,65,47,,,['l'],0,[0.23447223332186695],2018_Jul_09_0610,59.9874987292,go-nogo,001,30,
logos/3.jpg,properties3.xlsx,frogs/ab36.jpg,0,0,400,l,0,1,1,2,0,66,66,35,,,['l'],0,[0.30176870505238185],2018_Jul_09_0610,59.9874987292,go-nogo,001,30,
logos/3.jpg,properties3.xlsx,frogs/ab42.jpg,0,0,400,l,0,1,1,2,0,67,67,41,,,['l'],0,[0.5179456514160847],2018_Jul_09_0610,59.9874987292,go-nogo,001,30,
logos/3.jpg,properties3.xlsx,frogs/ab7.jpg,0,0,400,l,0,1,1,2,0,68,68,6,,,['l'],0,[0.3836534792862949],2018_Jul_09_0610,59.9874987292,go-nogo,001,30,
logos/3.jpg,properties3.xlsx,frogs/ab13.jpg,0,0,400,l,0,1,1,2,0,69,69,12,,,['l'],0,[0.334189535031328],2018_Jul_09_0610,59.9874987292,go-nogo,001,30,
logos/3.jpg,properties3.xlsx,frogs/ab20.jpg,0,0,400,l,0,1,1,2,0,70,70,19,,,['l'],0,[0.4177468478155788],2018_Jul_09_0610,59.9874987292,go-nogo,001,30,
logos/3.jpg,properties3.xlsx,frogs/ab61.jpg,0,0,400,l,0,1,1,2,0,71,71,59,,,['l'],0,[0.40096880501369014],2018_Jul_09_0610,59.9874987292,go-nogo,001,30,
logos/3.jpg,properties3.xlsx,frogs/ab14.jpg,0,0,400,l,0,1,1,2,0,72,72,13,,,['l'],0,[0.5177336834894959],2018_Jul_09_0610,59.9874987292,go-nogo,001,30,
logos/3.jpg,properties3.xlsx,logos/3.jpg,0,0,400,a,0,1,1,2,0,73,73,89,,,['l'],0,[0.784343825369433],2018_Jul_09_0610,59.9874987292,go-nogo,001,30,
logos/3.jpg,properties3.xlsx,frogs/ab62.jpg,0,0,400,l,0,1,1,2,0,74,74,60,,,['l'],0,[0.35110903853637865],2018_Jul_09_0610,59.9874987292,go-nogo,001,30,
logos/3.jpg,properties3.xlsx,frogs/ab34.jpg,0,0,400,l,0,1,1,2,0,75,75,33,,,['l'],0,[0.33455188863445073],2018_Jul_09_0610,59.9874987292,go-nogo,001,30,
logos/3.jpg,properties3.xlsx,frogs/ab69.jpg,0,0,400,l,0,1,1,2,0,76,76,67,,,['l'],0,[0.40089294280915055],2018_Jul_09_0610,59.9874987292,go-nogo,001,30,
logos/3.jpg,properties3.xlsx,frogs/ab8.jpg,0,0,400,l,0,1,1,2,0,77,77,7,,,['l'],0,[0.33376649166166317],2018_Jul_09_0610,59.9874987292,go-nogo,001,30,
logos/3.jpg,properties3.xlsx,frogs/ab81.jpg,0,0,400,l,0,1,1,2,0,78,78,79,,,['l'],0,[0.28448327795922523],2018_Jul_09_0610,59.9874987292,go-nogo,001,30,
logos/3.jpg,properties3.xlsx,frogs/ab78.jpg,0,0,400,l,0,1,1,2,0,79,79,76,,,['l'],0,[0.40109375453175744],2018_Jul_09_0610,59.9874987292,go-nogo,001,30,
logos/3.jpg,properties3.xlsx,frogs/ab80.jpg,0,0,400,l,0,1,1,2,0,80,80,78,,,['l'],0,[0.3011769798322348],2018_Jul_09_0610,59.9874987292,go-nogo,001,30,
logos/3.jpg,properties3.xlsx,frogs/ab50.jpg,0,0,400,l,0,1,1,2,0,81,81,49,,,['l'],0,[0.31812861321668606],2018_Jul_09_0610,59.9874987292,go-nogo,001,30,
logos/3.jpg,properties3.xlsx,frogs/ab6.jpg,0,0,400,l,0,1,1,2,0,82,82,5,,,['l'],0,[0.350972486565297],2018_Jul_09_0610,59.9874987292,go-nogo,001,30,
logos/3.jpg,properties3.xlsx,frogs/ab33.jpg,0,0,400,l,0,1,1,2,0,83,83,32,,,['l'],0,[0.3180317773440038],2018_Jul_09_0610,59.9874987292,go-nogo,001,30,
logos/3.jpg,properties3.xlsx,logos/3.jpg,0,0,400,a,0,1,1,2,0,84,84,82,,,['l'],0,[0.7010270404134644],2018_Jul_09_0610,59.9874987292,go-nogo,001,30,
logos/3.jpg,properties3.xlsx,frogs/ab60.jpg,0,0,400,l,0,1,1,2,0,85,85,58,,,['l'],0,[0.3011167363220011],2018_Jul_09_0610,59.9874987292,go-nogo,001,30,
logos/3.jpg,properties3.xlsx,frogs/ab40.jpg,0,0,400,l,0,1,1,2,0,86,86,39,,,['l'],0,[0.25110703041718807],2018_Jul_09_0610,59.9874987292,go-nogo,001,30,
logos/3.jpg,properties3.xlsx,logos/3.jpg,0,0,400,a,0,1,1,2,0,87,87,80,,,['a'],0,[0.16792411993810674],2018_Jul_09_0610,59.9874987292,go-nogo,001,30,
logos/3.jpg,properties3.xlsx,frogs/ab47.jpg,0,0,400,l,0,1,1,2,0,88,88,46,,,['l'],0,[0.7581673475651769],2018_Jul_09_0610,59.9874987292,go-nogo,001,30,
logos/3.jpg,properties3.xlsx,frogs/ab76.jpg,0,0,400,l,0,1,1,2,0,89,89,74,,,['l'],0,[0.36746983919874765],2018_Jul_09_0610,59.9874987292,go-nogo,001,30,
logos/3.jpg,properties3.xlsx,,,,,,0,1,1,2,,,,,,,,,,2018_Jul_09_0610,59.9874987292,go-nogo,001,30,
logos/4.jpg,properties4.xlsx,frogs/ab31.jpg,0,0,400,l,0,2,2,3,0,0,0,30,space,1.13387805373,['l'],0,[0.46756377445854014],2018_Jul_09_0610,59.9874987292,go-nogo,001,30,
logos/4.jpg,properties4.xlsx,frogs/ab2.jpg,0,0,400,l,0,2,2,3,0,1,1,1,,,['l'],0,[0.20205318833177444],2018_Jul_09_0610,59.9874987292,go-nogo,001,30,
logos/4.jpg,properties4.xlsx,frogs/ab70.jpg,0,0,400,l,0,2,2,3,0,2,2,68,,,['l'],0,[0.6009380138784763],2018_Jul_09_0610,59.9874987292,go-nogo,001,30,
logos/4.jpg,properties4.xlsx,frogs/ab8.jpg,0,0,400,l,0,2,2,3,0,3,3,7,,,['l'],0,[0.4675539569943794],2018_Jul_09_0610,59.9874987292,go-nogo,001,30,
logos/4.jpg,properties4.xlsx,frogs/ab66.jpg,0,0,400,l,0,2,2,3,0,4,4,64,,,['l'],0,[0.31761007272143615],2018_Jul_09_0610,59.9874987292,go-nogo,001,30,
logos/4.jpg,properties4.xlsx,frogs/ab80.jpg,0,0,400,l,0,2,2,3,0,5,5,78,,,['l'],0,[0.28428558997256914],2018_Jul_09_0610,59.9874987292,go-nogo,001,30,
logos/4.jpg,properties4.xlsx,frogs/ab22.jpg,0,0,400,l,0,2,2,3,0,6,6,21,,,['l'],0,[0.2845752051071031],2018_Jul_09_0610,59.9874987292,go-nogo,001,30,
logos/4.jpg,properties4.xlsx,frogs/ab38.jpg,0,0,400,l,0,2,2,3,0,7,7,37,,,['l'],0,[0.31777786206657765],2018_Jul_09_0610,59.9874987292,go-nogo,001,30,
logos/4.jpg,properties4.xlsx,frogs/ab28.jpg,0,0,400,l,0,2,2,3,0,8,8,27,,,['l'],0,[0.3013644041129737],2018_Jul_09_0610,59.9874987292,go-nogo,001,30,
logos/4.jpg,properties4.xlsx,frogs/ab72.jpg,0,0,400,l,0,2,2,3,0,9,9,70,,,['l'],0,[0.33440953543322394],2018_Jul_09_0610,59.9874987292,go-nogo,001,30,
logos/4.jpg,properties4.xlsx,frogs/ab20.jpg,0,0,400,l,0,2,2,3,0,10,10,19,,,['l'],0,[0.26791586435138015],2018_Jul_09_0610,59.9874987292,go-nogo,001,30,
logos/4.jpg,properties4.xlsx,frogs/ab74.jpg,0,0,400,l,0,2,2,3,0,11,11,72,,,['l'],0,[0.3016339380701538],2018_Jul_09_0610,59.9874987292,go-nogo,001,30,
logos/4.jpg,properties4.xlsx,frogs/ab37.jpg,0,0,400,l,0,2,2,3,0,12,12,36,,,['l'],0,[0.30116626987728523],2018_Jul_09_0610,59.9874987292,go-nogo,001,30,
logos/4.jpg,properties4.xlsx,frogs/ab79.jpg,0,0,400,l,0,2,2,3,0,13,13,77,,,['l'],0,[0.3180009862044244],2018_Jul_09_0610,59.9874987292,go-nogo,001,30,
logos/4.jpg,properties4.xlsx,frogs/ab12.jpg,0,0,400,l,0,2,2,3,0,14,14,11,,,['l'],0,[0.3177707220966113],2018_Jul_09_0610,59.9874987292,go-nogo,001,30,
logos/4.jpg,properties4.xlsx,logos/4.jpg,0,0,400,a,0,2,2,3,0,15,15,82,,,['a'],0,[0.06786365329753608],2018_Jul_09_0610,59.9874987292,go-nogo,001,30,
logos/4.jpg,properties4.xlsx,frogs/ab56.jpg,0,0,400,l,0,2,2,3,0,16,16,55,,,['l'],0,[0.7173673136494472],2018_Jul_09_0610,59.9874987292,go-nogo,001,30,
logos/4.jpg,properties4.xlsx,frogs/ab45.jpg,0,0,400,l,0,2,2,3,0,17,17,44,,,['l'],0,[0.2844837242155336],2018_Jul_09_0610,59.9874987292,go-nogo,001,30,
logos/4.jpg,properties4.xlsx,frogs/ab39.jpg,0,0,400,l,0,2,2,3,0,18,18,38,,,['l'],0,[0.3344389878184302],2018_Jul_09_0610,59.9874987292,go-nogo,001,30,
logos/4.jpg,properties4.xlsx,frogs/ab75.jpg,0,0,400,l,0,2,2,3,0,19,19,73,,,['l'],0,[0.31764934256352717],2018_Jul_09_0610,59.9874987292,go-nogo,001,30,
logos/4.jpg,properties4.xlsx,frogs/ab1.jpg,0,0,400,l,0,2,2,3,0,20,20,0,,,['l'],0,[0.3010056205021101],2018_Jul_09_0610,59.9874987292,go-nogo,001,30,
logos/4.jpg,properties4.xlsx,logos/4.jpg,0,0,400,a,0,2,2,3,0,21,21,85,,,['a'],0,[0.06585821353655774],2018_Jul_09_0610,59.9874987292,go-nogo,001,30,
logos/4.jpg,properties4.xlsx,frogs/ab6.jpg,0,0,400,l,0,2,2,3,0,22,22,5,,,['l'],0,[0.11829104758362519],2018_Jul_09_0610,59.9874987292,go-nogo,001,30,
logos/4.jpg,properties4.xlsx,frogs/ab43.jpg,0,0,400,l,0,2,2,3,0,23,23,42,,,['l'],0,[0.2845783288430539],2018_Jul_09_0610,59.9874987292,go-nogo,001,30,
logos/4.jpg,properties4.xlsx,frogs/ab42.jpg,0,0,400,l,0,2,2,3,0,24,24,41,,,['l'],0,[0.2845412902388489],2018_Jul_09_0610,59.9874987292,go-nogo,001,30,
logos/4.jpg,properties4.xlsx,frogs/ab46.jpg,0,0,400,l,0,2,2,3,0,25,25,45,,,['l'],0,[0.184558024549915],2018_Jul_09_0610,59.9874987292,go-nogo,001,30,
logos/4.jpg,properties4.xlsx,frogs/ab78.jpg,0,0,400,l,0,2,2,3,0,26,26,76,,,['l'],0,[0.46810462737630587],2018_Jul_09_0610,59.9874987292,go-nogo,001,30,
logos/4.jpg,properties4.xlsx,frogs/ab51.jpg,0,0,400,l,0,2,2,3,0,27,27,50,,,['l'],0,[0.351359830070578],2018_Jul_09_0610,59.9874987292,go-nogo,001,30,
logos/4.jpg,properties4.xlsx,frogs/ab29.jpg,0,0,400,l,0,2,2,3,0,28,28,28,,,['l'],0,[0.30112967751483666],2018_Jul_09_0610,59.9874987292,go-nogo,001,30,
logos/4.jpg,properties4.xlsx,frogs/ab47.jpg,0,0,400,l,0,2,2,3,0,29,29,46,,,['l'],0,[0.2432401195037528],2018_Jul_09_0610,59.9874987292,go-nogo,001,30,
logos/4.jpg,properties4.xlsx,frogs/ab33.jpg,0,0,400,l,0,2,2,3,0,30,30,32,,,['l'],0,[0.2836804773105541],2018_Jul_09_0610,59.9874987292,go-nogo,001,30,
logos/4.jpg,properties4.xlsx,logos/4.jpg,0,0,400,a,0,2,2,3,0,31,31,86,,,['l'],0,[0.5511853469943162],2018_Jul_09_0610,59.9874987292,go-nogo,001,30,
logos/4.jpg,properties4.xlsx,frogs/ab57.jpg,0,0,400,l,0,2,2,3,0,32,32,56,,,['l'],0,[0.36793527615373023],2018_Jul_09_0610,59.9874987292,go-nogo,001,30,
logos/4.jpg,properties4.xlsx,logos/4.jpg,0,0,400,a,0,2,2,3,0,33,33,88,,,['l'],0,[0.5512866453500465],2018_Jul_09_0610,59.9874987292,go-nogo,001,30,
logos/4.jpg,properties4.xlsx,frogs/ab54.jpg,0,0,400,l,0,2,2,3,0,34,34,53,,,['l'],0,[0.2338541794451885],2018_Jul_09_0610,59.9874987292,go-nogo,001,30,
logos/4.jpg,properties4.xlsx,frogs/ab50.jpg,0,0,400,l,0,2,2,3,0,35,35,49,,,['l'],0,[0.2846818584439461],2018_Jul_09_0610,59.9874987292,go-nogo,001,30,
logos/4.jpg,properties4.xlsx,frogs/ab5.jpg,0,0,400,l,0,2,2,3,0,36,36,4,,,['l'],0,[0.334511726287019],2018_Jul_09_0610,59.9874987292,go-nogo,001,30,
logos/4.jpg,properties4.xlsx,frogs/ab11.jpg,0,0,400,l,0,2,2,3,0,37,37,10,,,['l'],0,[0.2512592010825756],2018_Jul_09_0610,59.9874987292,go-nogo,001,30,
logos/4.jpg,properties4.xlsx,frogs/ab53.jpg,0,0,400,l,0,2,2,3,0,38,38,52,,,['l'],0,[0.31793181772809476],2018_Jul_09_0610,59.9874987292,go-nogo,001,30,
logos/4.jpg,properties4.xlsx,logos/4.jpg,0,0,400,a,0,2,2,3,0,39,39,89,,,['l'],0,[0.4841771516366862],2018_Jul_09_0610,59.9874987292,go-nogo,001,30,
logos/4.jpg,properties4.xlsx,frogs/ab49.jpg,0,0,400,l,0,2,2,3,0,40,40,48,,,['l'],0,[0.28451183785364265],2018_Jul_09_0610,59.9874987292,go-nogo,001,30,
logos/4.jpg,properties4.xlsx,frogs/ab15.jpg,0,0,400,l,0,2,2,3,0,41,41,14,,,['l'],0,[0.300927973294165],2018_Jul_09_0610,59.9874987292,go-nogo,001,30,
logos/4.jpg,properties4.xlsx,frogs/ab40.jpg,0,0,400,l,0,2,2,3,0,42,42,39,,,['l'],0,[1.2175429123453796],2018_Jul_09_0610,59.9874987292,go-nogo,001,30,
logos/4.jpg,properties4.xlsx,frogs/ab7.jpg,0,0,400,l,0,2,2,3,0,43,43,6,,,['l'],0,[0.3178323043612181],2018_Jul_09_0610,59.9874987292,go-nogo,001,30,
logos/4.jpg,properties4.xlsx,logos/4.jpg,0,0,400,a,0,2,2,3,0,44,44,80,,,['a'],0,[0.0010259247937938198],2018_Jul_09_0610,59.9874987292,go-nogo,001,30,
logos/4.jpg,properties4.xlsx,frogs/ab61.jpg,0,0,400,l,0,2,2,3,0,45,45,59,,,['l'],0,[0.034660103839996736],2018_Jul_09_0610,59.9874987292,go-nogo,001,30,
logos/4.jpg,properties4.xlsx,frogs/ab41.jpg,0,0,400,l,0,2,2,3,0,46,46,40,,,['l'],0,[0.20150385669694515],2018_Jul_09_0610,59.9874987292,go-nogo,001,30,
logos/4.jpg,properties4.xlsx,frogs/ab48.jpg,0,0,400,l,0,2,2,3,0,47,47,47,,,['l'],0,[0.23455746674153488],2018_Jul_09_0610,59.9874987292,go-nogo,001,30,
logos/4.jpg,properties4.xlsx,logos/4.jpg,0,0,400,a,0,2,2,3,0,48,48,83,,,['a'],0,[0.0010339572618249804],2018_Jul_09_0610,59.9874987292,go-nogo,001,30,
logos/4.jpg,properties4.xlsx,frogs/ab32.jpg,0,0,400,l,0,2,2,3,0,49,49,31,,,['l'],0,[0.9011470812038169],2018_Jul_09_0610,59.9874987292,go-nogo,001,30,
logos/4.jpg,properties4.xlsx,logos/4.jpg,0,0,400,a,0,2,2,3,0,50,50,81,,,['l'],0,[1.717428895914054],2018_Jul_09_0610,59.9874987292,go-nogo,001,30,
logos/4.jpg,properties4.xlsx,frogs/ab4.jpg,0,0,400,l,0,2,2,3,0,51,51,3,,,['l'],0,[0.43426294287201017],2018_Jul_09_0610,59.9874987292,go-nogo,001,30,
logos/4.jpg,properties4.xlsx,logos/4.jpg,0,0,400,a,0,2,2,3,0,52,52,87,,,['a'],0,[0.11767656370648183],2018_Jul_09_0610,59.9874987292,go-nogo,001,30,
logos/4.jpg,properties4.xlsx,frogs/ab26.jpg,0,0,400,l,0,2,2,3,0,53,53,25,,,['l'],0,[0.3171424045212916],2018_Jul_09_0610,59.9874987292,go-nogo,001,30,
logos/4.jpg,properties4.xlsx,frogs/ab68.jpg,0,0,400,l,0,2,2,3,0,54,54,66,,,['l'],0,[0.3344380953203654],2018_Jul_09_0610,59.9874987292,go-nogo,001,30,
logos/4.jpg,properties4.xlsx,frogs/ab30.jpg,0,0,400,l,0,2,2,3,0,55,55,29,,,['l'],0,[0.3010471215893631],2018_Jul_09_0610,59.9874987292,go-nogo,001,30,
logos/4.jpg,properties4.xlsx,frogs/ab62.jpg,0,0,400,l,0,2,2,3,0,56,56,60,,,['l'],0,[0.27972180882352404],2018_Jul_09_0610,59.9874987292,go-nogo,001,30,
logos/4.jpg,properties4.xlsx,frogs/ab34.jpg,0,0,400,l,0,2,2,3,0,57,57,33,,,['l'],0,[0.35059585301496554],2018_Jul_09_0610,59.9874987292,go-nogo,001,30,
logos/4.jpg,properties4.xlsx,frogs/ab36.jpg,0,0,400,l,0,2,2,3,0,58,58,35,,,['l'],0,[0.30084363237256184],2018_Jul_09_0610,59.9874987292,go-nogo,001,30,
logos/4.jpg,properties4.xlsx,frogs/ab27.jpg,0,0,400,l,0,2,2,3,0,59,59,26,,,['l'],0,[0.35089528561366023],2018_Jul_09_0610,59.9874987292,go-nogo,001,30,
logos/4.jpg,properties4.xlsx,frogs/ab71.jpg,0,0,400,l,0,2,2,3,0,60,60,69,,,['l'],0,[0.334178378827346],2018_Jul_09_0610,59.9874987292,go-nogo,001,30,
logos/4.jpg,properties4.xlsx,frogs/ab24.jpg,0,0,400,l,0,2,2,3,0,61,61,23,,,['l'],0,[0.3343104683153797],2018_Jul_09_0610,59.9874987292,go-nogo,001,30,
logos/4.jpg,properties4.xlsx,frogs/ab9.jpg,0,0,400,l,0,2,2,3,0,62,62,8,,,['l'],0,[1.1505021408738685],2018_Jul_09_0610,59.9874987292,go-nogo,001,30,
logos/4.jpg,properties4.xlsx,frogs/ab14.jpg,0,0,400,l,0,2,2,3,0,63,63,13,,,['l'],0,[0.6513743331379374],2018_Jul_09_0610,59.9874987292,go-nogo,001,30,
logos/4.jpg,properties4.xlsx,frogs/ab10.jpg,0,0,400,l,0,2,2,3,0,64,64,9,,,['l'],0,[0.4844225881897728],2018_Jul_09_0610,59.9874987292,go-nogo,001,30,
logos/4.jpg,properties4.xlsx,frogs/ab63.jpg,0,0,400,l,0,2,2,3,0,65,65,61,,,['l'],0,[0.4343829836579971],2018_Jul_09_0610,59.9874987292,go-nogo,001,30,
logos/4.jpg,properties4.xlsx,frogs/ab64.jpg,0,0,400,l,0,2,2,3,0,66,66,62,,,['l'],0,[0.45141137174505275],2018_Jul_09_0610,59.9874987292,go-nogo,001,30,
logos/4.jpg,properties4.xlsx,frogs/ab65.jpg,0,0,400,l,0,2,2,3,0,67,67,63,,,['l'],0,[0.517632831382798],2018_Jul_09_0610,59.9874987292,go-nogo,001,30,
logos/4.jpg,properties4.xlsx,frogs/ab81.jpg,0,0,400,l,0,2,2,3,0,68,68,79,,,['l'],0,[0.4679444242428872],2018_Jul_09_0610,59.9874987292,go-nogo,001,30,
logos/4.jpg,properties4.xlsx,frogs/ab35.jpg,0,0,400,l,0,2,2,3,0,69,69,34,,,['l'],0,[0.4343075677024899],2018_Jul_09_0610,59.9874987292,go-nogo,001,30,
logos/4.jpg,properties4.xlsx,frogs/ab23.jpg,0,0,400,l,0,2,2,3,0,70,70,22,,,['l'],0,[0.4172617759395507],2018_Jul_09_0610,59.9874987292,go-nogo,001,30,
logos/4.jpg,properties4.xlsx,frogs/ab58.jpg,0,0,400,l,0,2,2,3,0,71,71,57,,,['l'],0,[0.3959382481625653],2018_Jul_09_0610,59.9874987292,go-nogo,001,30,
logos/4.jpg,properties4.xlsx,frogs/ab76.jpg,0,0,400,l,0,2,2,3,0,72,72,74,,,['l'],0,[0.36766618843830656],2018_Jul_09_0610,59.9874987292,go-nogo,001,30,
logos/4.jpg,properties4.xlsx,frogs/ab18.jpg,0,0,400,l,0,2,2,3,0,73,73,17,,,['l'],0,[0.4342477704267367],2018_Jul_09_0610,59.9874987292,go-nogo,001,30,
logos/4.jpg,properties4.xlsx,frogs/ab52.jpg,0,0,400,l,0,2,2,3,0,74,74,51,,,['l'],0,[0.4010442209764733],2018_Jul_09_0610,59.9874987292,go-nogo,001,30,
logos/4.jpg,properties4.xlsx,frogs/ab3.jpg,0,0,400,l,0,2,2,3,0,75,75,2,,,['l'],0,[0.48415751671564067],2018_Jul_09_0610,59.9874987292,go-nogo,001,30,
logos/4.jpg,properties4.xlsx,frogs/ab19.jpg,0,0,400,l,0,2,2,3,0,76,76,18,,,['l'],0,[0.35119873443909455],2018_Jul_09_0610,59.9874987292,go-nogo,001,30,
logos/4.jpg,properties4.xlsx,logos/4.jpg,0,0,400,a,0,2,2,3,0,77,77,84,,,['l'],0,[0.7676987645609188],2018_Jul_09_0610,59.9874987292,go-nogo,001,30,
logos/4.jpg,properties4.xlsx,frogs/ab69.jpg,0,0,400,l,0,2,2,3,0,78,78,67,,,['l'],0,[0.4676829227464623],2018_Jul_09_0610,59.9874987292,go-nogo,001,30,
logos/4.jpg,properties4.xlsx,frogs/ab17.jpg,0,0,400,l,0,2,2,3,0,79,79,16,,,['l'],0,[0.4509410260579898],2018_Jul_09_0610,59.9874987292,go-nogo,001,30,
logos/4.jpg,properties4.xlsx,frogs/ab60.jpg,0,0,400,l,0,2,2,3,0,80,80,58,,,['l'],0,[0.33439525548601523],2018_Jul_09_0610,59.9874987292,go-nogo,001,30,
logos/4.jpg,properties4.xlsx,frogs/ab13.jpg,0,0,400,l,0,2,2,3,0,81,81,12,,,['l'],0,[0.30112789252598304],2018_Jul_09_0610,59.9874987292,go-nogo,001,30,
logos/4.jpg,properties4.xlsx,frogs/ab77.jpg,0,0,400,l,0,2,2,3,0,82,82,75,,,['l'],0,[0.3675581963543664],2018_Jul_09_0610,59.9874987292,go-nogo,001,30,
logos/4.jpg,properties4.xlsx,frogs/ab73.jpg,0,0,400,l,0,2,2,3,0,83,83,71,,,['l'],0,[0.2678270609394531],2018_Jul_09_0610,59.9874987292,go-nogo,001,30,
logos/4.jpg,properties4.xlsx,frogs/ab25.jpg,0,0,400,l,0,2,2,3,0,84,84,24,,,['l'],0,[0.31781445442175027],2018_Jul_09_0610,59.9874987292,go-nogo,001,30,
logos/4.jpg,properties4.xlsx,frogs/ab67.jpg,0,0,400,l,0,2,2,3,0,85,85,65,,,['l'],0,[0.31795413013605867],2018_Jul_09_0610,59.9874987292,go-nogo,001,30,
logos/4.jpg,properties4.xlsx,frogs/ab55.jpg,0,0,400,l,0,2,2,3,0,86,86,54,,,['l'],0,[0.26783063092443626],2018_Jul_09_0610,59.9874987292,go-nogo,001,30,
logos/4.jpg,properties4.xlsx,frogs/ab44.jpg,0,0,400,l,0,2,2,3,0,87,87,43,,,['l'],0,[0.2852508249998209],2018_Jul_09_0610,59.9874987292,go-nogo,001,30,
logos/4.jpg,properties4.xlsx,frogs/ab16.jpg,0,0,400,l,0,2,2,3,0,88,88,15,,,['l'],0,[0.351044332535821],2018_Jul_09_0610,59.9874987292,go-nogo,001,30,
logos/4.jpg,properties4.xlsx,frogs/ab21.jpg,0,0,400,l,0,2,2,3,0,89,89,20,,,['l'],0,[0.3013295967466547],2018_Jul_09_0610,59.9874987292,go-nogo,001,30,
logos/4.jpg,properties4.xlsx,,,,,,0,2,2,3,,,,,,,,,,2018_Jul_09_0610,59.9874987292,go-nogo,001,30,
logos/1.jpg,properties1.xlsx,frogs/ab8.jpg,0,0,400,l,0,3,3,0,0,0,0,7,space,1.1215687412,['l'],0,[1.067608845536597],2018_Jul_09_0610,59.9874987292,go-nogo,001,30,
logos/1.jpg,properties1.xlsx,logos/1.jpg,0,0,400,a,0,3,3,0,0,1,1,86,,,['a'],0,[0.3702035561509547],2018_Jul_09_0610,59.9874987292,go-nogo,001,30,
logos/1.jpg,properties1.xlsx,frogs/ab62.jpg,0,0,400,l,0,3,3,0,0,2,2,60,,,['l'],0,[0.8012552964137285],2018_Jul_09_0610,59.9874987292,go-nogo,001,30,
logos/1.jpg,properties1.xlsx,frogs/ab15.jpg,0,0,400,l,0,3,3,0,0,3,3,14,,,['l'],0,[0.38430053929187125],2018_Jul_09_0610,59.9874987292,go-nogo,001,30,
logos/1.jpg,properties1.xlsx,frogs/ab39.jpg,0,0,400,l,0,3,3,0,0,4,4,38,,,['l'],0,[1.0009603262951714],2018_Jul_09_0610,59.9874987292,go-nogo,001,30,
logos/1.jpg,properties1.xlsx,frogs/ab18.jpg,0,0,400,l,0,3,3,0,0,5,5,17,,,['l'],0,[0.45091915989178233],2018_Jul_09_0610,59.9874987292,go-nogo,001,30,
logos/1.jpg,properties1.xlsx,frogs/ab77.jpg,0,0,400,l,0,3,3,0,0,6,6,75,,,['l'],0,[0.46773691879207036],2018_Jul_09_0610,59.9874987292,go-nogo,001,30,
logos/1.jpg,properties1.xlsx,frogs/ab26.jpg,0,0,400,l,0,3,3,0,0,7,7,25,,,['l'],0,[0.4177731764575583],2018_Jul_09_0610,59.9874987292,go-nogo,001,30,
logos/1.jpg,properties1.xlsx,logos/1.jpg,0,0,400,a,0,3,3,0,0,8,8,87,,,['a'],0,[0.4629183298748103],2018_Jul_09_0610,59.9874987292,go-nogo,001,30,
logos/1.jpg,properties1.xlsx,frogs/ab81.jpg,0,0,400,l,0,3,3,0,0,9,9,79,,,['l'],0,[1.250687110783474],2018_Jul_09_0610,59.9874987292,go-nogo,001,30,
logos/1.jpg,properties1.xlsx,frogs/ab17.jpg,0,0,400,l,0,3,3,0,0,10,10,16,,,['l'],0,[0.5008458636148134],2018_Jul_09_0610,59.9874987292,go-nogo,001,30,
logos/1.jpg,properties1.xlsx,frogs/ab19.jpg,0,0,400,l,0,3,3,0,0,11,11,18,,,['l'],0,[1.1674082569297752],2018_Jul_09_0610,59.9874987292,go-nogo,001,30,
logos/1.jpg,properties1.xlsx,frogs/ab30.jpg,0,0,400,l,0,3,3,0,0,12,12,29,,,['l'],0,[0.43426651285699336],2018_Jul_09_0610,59.9874987292,go-nogo,001,30,
logos/1.jpg,properties1.xlsx,frogs/ab3.jpg,0,0,400,l,0,3,3,0,0,13,13,2,,,['l'],0,[0.46779716230958],2018_Jul_09_0610,59.9874987292,go-nogo,001,30,
logos/1.jpg,properties1.xlsx,frogs/ab60.jpg,0,0,400,l,0,3,3,0,0,14,14,58,,,['l'],0,[0.40065196873183595],2018_Jul_09_0610,59.9874987292,go-nogo,001,30,
logos/1.jpg,properties1.xlsx,frogs/ab79.jpg,0,0,400,l,0,3,3,0,0,15,15,77,,,['l'],0,[0.36795624981459696],2018_Jul_09_0610,59.9874987292,go-nogo,001,30,
logos/1.jpg,properties1.xlsx,frogs/ab4.jpg,0,0,400,l,0,3,3,0,0,16,16,3,,,['l'],0,[0.3509564216219587],2018_Jul_09_0610,59.9874987292,go-nogo,001,30,
logos/1.jpg,properties1.xlsx,frogs/ab31.jpg,0,0,400,l,0,3,3,0,0,17,17,30,,,['l'],0,[0.08445427181868581],2018_Jul_09_0610,59.9874987292,go-nogo,001,30,
logos/1.jpg,properties1.xlsx,frogs/ab34.jpg,0,0,400,l,0,3,3,0,0,18,18,33,,,['l'],0,[0.4510798092742334],2018_Jul_09_0610,59.9874987292,go-nogo,001,30,
logos/1.jpg,properties1.xlsx,frogs/ab56.jpg,0,0,400,l,0,3,3,0,0,19,19,55,,,['l'],0,[0.021251681799185462],2018_Jul_09_0610,59.9874987292,go-nogo,001,30,
logos/1.jpg,properties1.xlsx,frogs/ab28.jpg,0,0,400,l,0,3,3,0,0,20,20,27,,,['l'],0,[0.26760081306565553],2018_Jul_09_0610,59.9874987292,go-nogo,001,30,
logos/1.jpg,properties1.xlsx,logos/1.jpg,0,0,400,a,0,3,3,0,0,21,21,89,,,['a'],0,[0.3035715481018997],2018_Jul_09_0610,59.9874987292,go-nogo,001,30,
logos/1.jpg,properties1.xlsx,frogs/ab55.jpg,0,0,400,l,0,3,3,0,0,22,22,54,,,['l'],0,[0.2678167972335359],2018_Jul_09_0610,59.9874987292,go-nogo,001,30,
logos/1.jpg,properties1.xlsx,frogs/ab25.jpg,0,0,400,l,0,3,3,0,0,23,23,24,,,['l'],0,[0.21787224358558888],2018_Jul_09_0610,59.9874987292,go-nogo,001,30,
logos/1.jpg,properties1.xlsx,frogs/ab33.jpg,0,0,400,l,0,3,3,0,0,24,24,32,,,['l'],0,[0.2512404586595949],2018_Jul_09_0610,59.9874987292,go-nogo,001,30,
logos/1.jpg,properties1.xlsx,frogs/ab51.jpg,0,0,400,l,0,3,3,0,0,25,25,50,,,['l'],0,[0.23382918955030618],2018_Jul_09_0610,59.9874987292,go-nogo,001,30,
logos/1.jpg,properties1.xlsx,logos/1.jpg,0,0,400,a,0,3,3,0,0,26,26,80,,,['a'],0,[0.13469290309149073],2018_Jul_09_0610,59.9874987292,go-nogo,001,30,
logos/1.jpg,properties1.xlsx,frogs/ab70.jpg,0,0,400,l,0,3,3,0,0,27,27,68,,,['l'],0,[0.21793427209195215],2018_Jul_09_0610,59.9874987292,go-nogo,001,30,
logos/1.jpg,properties1.xlsx,frogs/ab5.jpg,0,0,400,l,0,3,3,0,0,28,28,4,,,['l'],0,[0.2510293832165189],2018_Jul_09_0610,59.9874987292,go-nogo,001,30,
logos/1.jpg,properties1.xlsx,frogs/ab61.jpg,0,0,400,l,0,3,3,0,0,29,29,59,,,['l'],0,[0.25102090449945536],2018_Jul_09_0610,59.9874987292,go-nogo,001,30,
logos/1.jpg,properties1.xlsx,logos/1.jpg,0,0,400,a,0,3,3,0,0,30,30,88,,,['a'],0,[0.16799239592364756],2018_Jul_09_0610,59.9874987292,go-nogo,001,30,
logos/1.jpg,properties1.xlsx,frogs/ab10.jpg,0,0,400,l,0,3,3,0,0,31,31,9,,,['l'],0,[0.25136317692522425],2018_Jul_09_0610,59.9874987292,go-nogo,001,30,
logos/1.jpg,properties1.xlsx,frogs/ab43.jpg,0,0,400,l,0,3,3,0,0,32,32,42,,,['l'],0,[0.2679975277860649],2018_Jul_09_0610,59.9874987292,go-nogo,001,30,
logos/1.jpg,properties1.xlsx,frogs/ab71.jpg,0,0,400,l,0,3,3,0,0,33,33,69,,,['l'],0,[0.2520155919191893],2018_Jul_09_0610,59.9874987292,go-nogo,001,30,
logos/1.jpg,properties1.xlsx,frogs/ab38.jpg,0,0,400,l,0,3,3,0,0,34,34,37,,,['l'],0,[0.21804271042492473],2018_Jul_09_0610,59.9874987292,go-nogo,001,30,
logos/1.jpg,properties1.xlsx,frogs/ab21.jpg,0,0,400,l,0,3,3,0,0,35,35,20,,,['l'],0,[0.2502828098513419],2018_Jul_09_0610,59.9874987292,go-nogo,001,30,
logos/1.jpg,properties1.xlsx,frogs/ab57.jpg,0,0,400,l,0,3,3,0,0,36,36,56,,,['l'],0,[0.334430955350399],2018_Jul_09_0610,59.9874987292,go-nogo,001,30,
logos/1.jpg,properties1.xlsx,frogs/ab54.jpg,0,0,400,l,0,3,3,0,0,37,37,53,,,['l'],0,[0.25139307556673884],2018_Jul_09_0610,59.9874987292,go-nogo,001,30,
logos/1.jpg,properties1.xlsx,frogs/ab64.jpg,0,0,400,l,0,3,3,0,0,38,38,62,,,['l'],0,[0.3509992614563089],2018_Jul_09_0610,59.9874987292,go-nogo,001,30,
logos/1.jpg,properties1.xlsx,frogs/ab52.jpg,0,0,400,l,0,3,3,0,0,39,39,51,,,['l'],0,[0.33394454472727375],2018_Jul_09_0610,59.9874987292,go-nogo,001,30,
logos/1.jpg,properties1.xlsx,frogs/ab37.jpg,0,0,400,l,0,3,3,0,0,40,40,36,,,['l'],0,[0.28439759829780087],2018_Jul_09_0610,59.9874987292,go-nogo,001,30,
logos/1.jpg,properties1.xlsx,frogs/ab2.jpg,0,0,400,l,0,3,3,0,0,41,41,1,,,['l'],0,[0.8229737539077178],2018_Jul_09_0610,59.9874987292,go-nogo,001,30,
logos/1.jpg,properties1.xlsx,frogs/ab14.jpg,0,0,400,l,0,3,3,0,0,42,42,13,,,['l'],0,[0.3178055294556543],2018_Jul_09_0610,59.9874987292,go-nogo,001,30,
logos/1.jpg,properties1.xlsx,frogs/ab23.jpg,0,0,400,l,0,3,3,0,0,43,43,22,,,['l'],0,[0.26770568140636897],2018_Jul_09_0610,59.9874987292,go-nogo,001,30,
logos/1.jpg,properties1.xlsx,frogs/ab44.jpg,0,0,400,l,0,3,3,0,0,44,44,43,,,['l'],0,[0.35091581303277053],2018_Jul_09_0610,59.9874987292,go-nogo,001,30,
logos/1.jpg,properties1.xlsx,frogs/ab80.jpg,0,0,400,l,0,3,3,0,0,45,45,78,,,['l'],0,[0.3345210975021473],2018_Jul_09_0610,59.9874987292,go-nogo,001,30,
logos/1.jpg,properties1.xlsx,frogs/ab72.jpg,0,0,400,l,0,3,3,0,0,46,46,70,,,['l'],0,[0.30135324790899176],2018_Jul_09_0610,59.9874987292,go-nogo,001,30,
logos/1.jpg,properties1.xlsx,frogs/ab50.jpg,0,0,400,l,0,3,3,0,0,47,47,49,,,['l'],0,[0.25114808525540866],2018_Jul_09_0610,59.9874987292,go-nogo,001,30,
logos/1.jpg,properties1.xlsx,frogs/ab1.jpg,0,0,400,l,0,3,3,0,0,48,48,0,,,['l'],0,[0.16765235474304063],2018_Jul_09_0610,59.9874987292,go-nogo,001,30,
logos/1.jpg,properties1.xlsx,logos/1.jpg,0,0,400,a,0,3,3,0,0,49,49,85,,,['a'],0,[0.1510983285770635],2018_Jul_09_0610,59.9874987292,go-nogo,001,30,
logos/1.jpg,properties1.xlsx,logos/1.jpg,0,0,400,a,0,3,3,0,0,50,50,83,,,['a'],0,[0.4455244644486811],2018_Jul_09_0610,59.9874987292,go-nogo,001,30,
logos/1.jpg,properties1.xlsx,frogs/ab24.jpg,0,0,400,l,0,3,3,0,0,51,51,23,,,['l'],0,[0.318135306944896],2018_Jul_09_0610,59.9874987292,go-nogo,001,30,
logos/1.jpg,properties1.xlsx,frogs/ab36.jpg,0,0,400,l,0,3,3,0,0,52,52,35,,,['l'],0,[0.3179077203167253],2018_Jul_09_0610,59.9874987292,go-nogo,001,30,
logos/1.jpg,properties1.xlsx,frogs/ab40.jpg,0,0,400,l,0,3,3,0,0,53,53,39,,,['l'],0,[0.4011508743133163],2018_Jul_09_0610,59.9874987292,go-nogo,001,30,
logos/1.jpg,properties1.xlsx,frogs/ab35.jpg,0,0,400,l,0,3,3,0,0,54,54,34,,,['l'],0,[0.3678344240397564],2018_Jul_09_0610,59.9874987292,go-nogo,001,30,
logos/1.jpg,properties1.xlsx,frogs/ab63.jpg,0,0,400,l,0,3,3,0,0,55,55,61,,,['l'],0,[0.36722975761949783],2018_Jul_09_0610,59.9874987292,go-nogo,001,30,
logos/1.jpg,properties1.xlsx,frogs/ab73.jpg,0,0,400,l,0,3,3,0,0,56,56,71,,,['l'],0,[0.4010085211120895],2018_Jul_09_0610,59.9874987292,go-nogo,001,30,
logos/1.jpg,properties1.xlsx,frogs/ab7.jpg,0,0,400,l,0,3,3,0,0,57,57,6,,,['l'],0,[0.41775309529475635],2018_Jul_09_0610,59.9874987292,go-nogo,001,30,
logos/1.jpg,properties1.xlsx,frogs/ab32.jpg,0,0,400,l,0,3,3,0,0,58,58,31,,,['l'],0,[0.3509537441350403],2018_Jul_09_0610,59.9874987292,go-nogo,001,30,
logos/1.jpg,properties1.xlsx,frogs/ab11.jpg,0,0,400,l,0,3,3,0,0,59,59,10,,,['l'],0,[0.3843389166358975],2018_Jul_09_0610,59.9874987292,go-nogo,001,30,
logos/1.jpg,properties1.xlsx,frogs/ab74.jpg,0,0,400,l,0,3,3,0,0,60,60,72,,,['l'],0,[1.0677038964204257],2018_Jul_09_0610,59.9874987292,go-nogo,001,30,
logos/1.jpg,properties1.xlsx,frogs/ab75.jpg,0,0,400,l,0,3,3,0,0,61,61,73,,,['l'],0,[0.5179394039441831],2018_Jul_09_0610,59.9874987292,go-nogo,001,30,
logos/1.jpg,properties1.xlsx,frogs/ab22.jpg,0,0,400,l,0,3,3,0,0,62,62,21,,,['l'],0,[0.38447769985941704],2018_Jul_09_0610,59.9874987292,go-nogo,001,30,
logos/1.jpg,properties1.xlsx,frogs/ab29.jpg,0,0,400,l,0,3,3,0,0,63,63,28,,,['l'],0,[0.4185264435582212],2018_Jul_09_0610,59.9874987292,go-nogo,001,30,
logos/1.jpg,properties1.xlsx,frogs/ab46.jpg,0,0,400,l,0,3,3,0,0,64,64,45,,,['l'],0,[0.5345675073258462],2018_Jul_09_0610,59.9874987292,go-nogo,001,30,
logos/1.jpg,properties1.xlsx,frogs/ab9.jpg,0,0,400,l,0,3,3,0,0,65,65,8,,,['l'],0,[0.7343550931473146],2018_Jul_09_0610,59.9874987292,go-nogo,001,30,
logos/1.jpg,properties1.xlsx,frogs/ab41.jpg,0,0,400,l,0,3,3,0,0,66,66,40,,,['l'],0,[0.48447747673344566],2018_Jul_09_0610,59.9874987292,go-nogo,001,30,
logos/1.jpg,properties1.xlsx,frogs/ab66.jpg,0,0,400,l,0,3,3,0,0,67,67,64,,,['l'],0,[0.334509495041857],2018_Jul_09_0610,59.9874987292,go-nogo,001,30,
logos/1.jpg,properties1.xlsx,logos/1.jpg,0,0,400,a,0,3,3,0,0,68,68,84,,,['a'],0,[0.2176236832892755],2018_Jul_09_0610,59.9874987292,go-nogo,001,30,
logos/1.jpg,properties1.xlsx,frogs/ab27.jpg,0,0,400,l,0,3,3,0,0,69,69,26,,,['l'],0,[0.050986989634111524],2018_Jul_09_0610,59.9874987292,go-nogo,001,30,
logos/1.jpg,properties1.xlsx,logos/1.jpg,0,0,400,a,0,3,3,0,0,70,70,81,,,['a'],0,[0.20092284143902361],2018_Jul_09_0610,59.9874987292,go-nogo,001,30,
logos/1.jpg,properties1.xlsx,frogs/ab68.jpg,0,0,400,l,0,3,3,0,0,71,71,66,,,['l'],0,[0.28427086377632804],2018_Jul_09_0610,59.9874987292,go-nogo,001,30,
logos/1.jpg,properties1.xlsx,frogs/ab58.jpg,0,0,400,l,0,3,3,0,0,72,72,57,,,['l'],0,[0.28427621876471676],2018_Jul_09_0610,59.9874987292,go-nogo,001,30,
logos/1.jpg,properties1.xlsx,frogs/ab49.jpg,0,0,400,l,0,3,3,0,0,73,73,48,,,['l'],0,[0.33445505276176846],2018_Jul_09_0610,59.9874987292,go-nogo,001,30,
logos/1.jpg,properties1.xlsx,logos/1.jpg,0,0,400,a,0,3,3,0,0,74,74,82,,,['a'],0,[0.15097561029688222],2018_Jul_09_0610,59.9874987292,go-nogo,001,30,
logos/1.jpg,properties1.xlsx,frogs/ab48.jpg,0,0,400,l,0,3,3,0,0,75,75,47,,,['l'],0,[0.23463734518009005],2018_Jul_09_0610,59.9874987292,go-nogo,001,30,
logos/1.jpg,properties1.xlsx,frogs/ab16.jpg,0,0,400,l,0,3,3,0,0,76,76,15,,,['l'],0,[0.2510869492398342],2018_Jul_09_0610,59.9874987292,go-nogo,001,30,
logos/1.jpg,properties1.xlsx,frogs/ab13.jpg,0,0,400,l,0,3,3,0,0,77,77,12,,,['l'],0,[0.2847545969125349],2018_Jul_09_0610,59.9874987292,go-nogo,001,30,
logos/1.jpg,properties1.xlsx,frogs/ab65.jpg,0,0,400,l,0,3,3,0,0,78,78,63,,,['l'],0,[0.2349131266164477],2018_Jul_09_0610,59.9874987292,go-nogo,001,30,
logos/1.jpg,properties1.xlsx,frogs/ab42.jpg,0,0,400,l,0,3,3,0,0,79,79,41,,,['l'],0,[0.23459182785154553],2018_Jul_09_0610,59.9874987292,go-nogo,001,30,
logos/1.jpg,properties1.xlsx,frogs/ab12.jpg,0,0,400,l,0,3,3,0,0,80,80,11,,,['l'],0,[0.2010982170177158],2018_Jul_09_0610,59.9874987292,go-nogo,001,30,
logos/1.jpg,properties1.xlsx,frogs/ab45.jpg,0,0,400,l,0,3,3,0,0,81,81,44,,,['l'],0,[0.2344494746575947],2018_Jul_09_0610,59.9874987292,go-nogo,001,30,
logos/1.jpg,properties1.xlsx,frogs/ab67.jpg,0,0,400,l,0,3,3,0,0,82,82,65,,,['l'],0,[0.3676675271781278],2018_Jul_09_0610,59.9874987292,go-nogo,001,30,
logos/1.jpg,properties1.xlsx,frogs/ab6.jpg,0,0,400,l,0,3,3,0,0,83,83,5,,,['l'],0,[0.3509608841050067],2018_Jul_09_0610,59.9874987292,go-nogo,001,30,
logos/1.jpg,properties1.xlsx,frogs/ab20.jpg,0,0,400,l,0,3,3,0,0,84,84,19,,,['l'],0,[0.3676572634722106],2018_Jul_09_0610,59.9874987292,go-nogo,001,30,
logos/1.jpg,properties1.xlsx,frogs/ab78.jpg,0,0,400,l,0,3,3,0,0,85,85,76,,,['l'],0,[0.21758753718313528],2018_Jul_09_0610,59.9874987292,go-nogo,001,30,
logos/1.jpg,properties1.xlsx,frogs/ab69.jpg,0,0,400,l,0,3,3,0,0,86,86,67,,,['l'],0,[0.16788217260182137],2018_Jul_09_0610,59.9874987292,go-nogo,001,30,
logos/1.jpg,properties1.xlsx,frogs/ab76.jpg,0,0,400,l,0,3,3,0,0,87,87,74,,,['l'],0,[0.15099033649312332],2018_Jul_09_0610,59.9874987292,go-nogo,001,30,
logos/1.jpg,properties1.xlsx,frogs/ab53.jpg,0,0,400,l,0,3,3,0,0,88,88,52,,,['l'],0,[0.08447479924507206],2018_Jul_09_0610,59.9874987292,go-nogo,001,30,
logos/1.jpg,properties1.xlsx,frogs/ab47.jpg,0,0,400,l,0,3,3,0,0,89,89,46,,,['a'],0,[1.4622819798241835],2018_Jul_09_0610,59.9874987292,go-nogo,001,30,
logos/1.jpg,properties1.xlsx,,,,,,0,3,3,0,,,,,,,,,,2018_Jul_09_0610,59.9874987292,go-nogo,001,30,
