pix,source,image1,x,y,size,answer,trials_2.thisRepN,trials_2.thisTrialN,trials_2.thisN,trials_2.thisIndex,trials.thisRepN,trials.thisTrialN,trials.thisN,trials.thisIndex,key_resp_3.keys,key_resp_3.rt,key_resp_2.keys,key_resp_2.corr,key_resp_2.rt,date,frameRate,expName,session,participant,
logos/2.jpg,properties2.xlsx,frogs/ab56.jpg,0,0,400,l,0,0,0,1,0,0,0,55,space,15.5146706353,['a'],0,[4.287847989988222],2018_Jul_09_0617,60.0448814974,go-nogo,001,31,
logos/2.jpg,properties2.xlsx,logos/2.jpg,0,0,400,a,0,0,0,1,0,1,1,82,,,['a'],0,[0.3509568678709911],2018_Jul_09_0617,60.0448814974,go-nogo,001,31,
logos/2.jpg,properties2.xlsx,frogs/ab4.jpg,0,0,400,l,0,0,0,1,0,2,2,3,,,['l'],0,[0.10099937302584294],2018_Jul_09_0617,60.0448814974,go-nogo,001,31,
logos/2.jpg,properties2.xlsx,frogs/ab61.jpg,0,0,400,l,0,0,0,1,0,3,3,59,,,['l'],0,[0.0010125373446498998],2018_Jul_09_0617,60.0448814974,go-nogo,001,31,
logos/2.jpg,properties2.xlsx,frogs/ab80.jpg,0,0,400,l,0,0,0,1,0,4,4,78,,,['l'],0,[2.000513185521413],2018_Jul_09_0617,60.0448814974,go-nogo,001,31,
logos/2.jpg,properties2.xlsx,frogs/ab64.jpg,0,0,400,l,0,0,0,1,0,5,5,62,,,['l'],0,[0.08428201999049634],2018_Jul_09_0617,60.0448814974,go-nogo,001,31,
logos/2.jpg,properties2.xlsx,frogs/ab28.jpg,0,0,400,l,0,0,0,1,0,6,6,27,,,['l'],0,[0.8358872866156162],2018_Jul_09_0617,60.0448814974,go-nogo,001,31,
logos/2.jpg,properties2.xlsx,frogs/ab41.jpg,0,0,400,l,0,0,0,1,0,7,7,40,,,['l'],0,[1.1942706183472183],2018_Jul_09_0617,60.0448814974,go-nogo,001,31,
logos/2.jpg,properties2.xlsx,frogs/ab17.jpg,0,0,400,l,0,0,0,1,0,8,8,16,,,['l'],0,[0.7177060160975088],2018_Jul_09_0617,60.0448814974,go-nogo,001,31,
logos/2.jpg,properties2.xlsx,frogs/ab53.jpg,0,0,400,l,0,0,0,1,0,9,9,52,,,['l'],0,[0.4010803670826135],2018_Jul_09_0617,60.0448814974,go-nogo,001,31,
logos/2.jpg,properties2.xlsx,frogs/ab70.jpg,0,0,400,l,0,0,0,1,0,10,10,68,,,['l'],0,[0.016858813738508616],2018_Jul_09_0617,60.0448814974,go-nogo,001,31,
logos/2.jpg,properties2.xlsx,frogs/ab49.jpg,0,0,400,l,0,0,0,1,0,11,11,48,,,['l'],0,[0.5858641932645696],2018_Jul_09_0617,60.0448814974,go-nogo,001,31,
logos/2.jpg,properties2.xlsx,frogs/ab48.jpg,0,0,400,l,0,0,0,1,0,12,12,47,,,['l'],0,[0.5009444844836253],2018_Jul_09_0617,60.0448814974,go-nogo,001,31,
logos/2.jpg,properties2.xlsx,frogs/ab8.jpg,0,0,400,l,0,0,0,1,0,13,13,7,,,['l'],0,[0.8508049203373957],2018_Jul_09_0617,60.0448814974,go-nogo,001,31,
logos/2.jpg,properties2.xlsx,frogs/ab21.jpg,0,0,400,l,0,0,0,1,0,14,14,20,,,['l'],0,[0.5842081658920506],2018_Jul_09_0617,60.0448814974,go-nogo,001,31,
logos/2.jpg,properties2.xlsx,frogs/ab58.jpg,0,0,400,l,0,0,0,1,0,15,15,57,,,['l'],0,[0.09523206025914988],2018_Jul_09_0617,60.0448814974,go-nogo,001,31,
logos/2.jpg,properties2.xlsx,frogs/ab72.jpg,0,0,400,l,0,0,0,1,0,16,16,70,,,['l'],0,[0.1176292613890837],2018_Jul_09_0617,60.0448814974,go-nogo,001,31,
logos/2.jpg,properties2.xlsx,frogs/ab69.jpg,0,0,400,l,0,0,0,1,0,17,17,67,,,['l'],0,[0.08422043771861354],2018_Jul_09_0617,60.0448814974,go-nogo,001,31,
logos/2.jpg,properties2.xlsx,frogs/ab43.jpg,0,0,400,l,0,0,0,1,0,18,18,42,,,['l'],0,[0.25096601596305845],2018_Jul_09_0617,60.0448814974,go-nogo,001,31,
logos/2.jpg,properties2.xlsx,frogs/ab75.jpg,0,0,400,l,0,0,0,1,0,19,19,73,,,['l'],0,[0.01692619722598465],2018_Jul_09_0617,60.0448814974,go-nogo,001,31,
logos/2.jpg,properties2.xlsx,frogs/ab73.jpg,0,0,400,l,0,0,0,1,0,20,20,71,,,['l'],0,[0.43414067084813723],2018_Jul_09_0617,60.0448814974,go-nogo,001,31,
logos/2.jpg,properties2.xlsx,frogs/ab16.jpg,0,0,400,l,0,0,0,1,0,21,21,15,,,['l'],0,[0.48421151276124874],2018_Jul_09_0617,60.0448814974,go-nogo,001,31,
logos/2.jpg,properties2.xlsx,frogs/ab51.jpg,0,0,400,l,0,0,0,1,0,22,22,50,,,['l'],0,[0.5001457000616938],2018_Jul_09_0617,60.0448814974,go-nogo,001,31,
logos/2.jpg,properties2.xlsx,frogs/ab15.jpg,0,0,400,l,0,0,0,1,0,23,23,14,,,['l'],0,[0.5342381760929129],2018_Jul_09_0617,60.0448814974,go-nogo,001,31,
logos/2.jpg,properties2.xlsx,frogs/ab10.jpg,0,0,400,l,0,0,0,1,0,24,24,9,,,['l'],0,[0.051115062888129614],2018_Jul_09_0617,60.0448814974,go-nogo,001,31,
logos/2.jpg,properties2.xlsx,frogs/ab12.jpg,0,0,400,l,0,0,0,1,0,25,25,11,,,['l'],0,[0.017556746046466287],2018_Jul_09_0617,60.0448814974,go-nogo,001,31,
logos/2.jpg,properties2.xlsx,frogs/ab57.jpg,0,0,400,l,0,0,0,1,0,26,26,56,,,['l'],0,[0.018126605100405868],2018_Jul_09_0617,60.0448814974,go-nogo,001,31,
logos/2.jpg,properties2.xlsx,frogs/ab78.jpg,0,0,400,l,0,0,0,1,0,27,27,76,,,['l'],0,[0.5007079728966346],2018_Jul_09_0617,60.0448814974,go-nogo,001,31,
logos/2.jpg,properties2.xlsx,frogs/ab33.jpg,0,0,400,l,0,0,0,1,0,28,28,32,,,['l'],0,[0.05107400804263307],2018_Jul_09_0617,60.0448814974,go-nogo,001,31,
logos/2.jpg,properties2.xlsx,frogs/ab9.jpg,0,0,400,l,0,0,0,1,0,29,29,8,,,['l'],0,[0.11762167517008493],2018_Jul_09_0617,60.0448814974,go-nogo,001,31,
logos/2.jpg,properties2.xlsx,frogs/ab2.jpg,0,0,400,l,0,0,0,1,0,30,30,1,,,['l'],0,[0.7188533204243868],2018_Jul_09_0617,60.0448814974,go-nogo,001,31,
logos/2.jpg,properties2.xlsx,frogs/ab7.jpg,0,0,400,l,0,0,0,1,0,31,31,6,,,['l'],0,[0.08460108751023654],2018_Jul_09_0617,60.0448814974,go-nogo,001,31,
logos/2.jpg,properties2.xlsx,frogs/ab37.jpg,0,0,400,l,0,0,0,1,0,32,32,36,,,['l'],0,[0.10096858188626356],2018_Jul_09_0617,60.0448814974,go-nogo,001,31,
logos/2.jpg,properties2.xlsx,logos/2.jpg,0,0,400,a,0,0,0,1,0,33,33,86,,,['a'],0,[0.03446910958155058],2018_Jul_09_0617,60.0448814974,go-nogo,001,31,
logos/2.jpg,properties2.xlsx,logos/2.jpg,0,0,400,a,0,0,0,1,0,34,34,83,,,['l'],0,[0.4676860464824131],2018_Jul_09_0617,60.0448814974,go-nogo,001,31,
logos/2.jpg,properties2.xlsx,frogs/ab63.jpg,0,0,400,l,0,0,0,1,0,35,35,61,,,['l'],0,[0.38483737596834544],2018_Jul_09_0617,60.0448814974,go-nogo,001,31,
logos/2.jpg,properties2.xlsx,frogs/ab71.jpg,0,0,400,l,0,0,0,1,0,36,36,69,,,['l'],0,[0.7504218161921017],2018_Jul_09_0617,60.0448814974,go-nogo,001,31,
logos/2.jpg,properties2.xlsx,frogs/ab77.jpg,0,0,400,l,0,0,0,1,0,37,37,75,,,['l'],0,[0.4008349305295269],2018_Jul_09_0617,60.0448814974,go-nogo,001,31,
logos/2.jpg,properties2.xlsx,frogs/ab20.jpg,0,0,400,l,0,0,0,1,0,38,38,19,,,['l'],0,[0.35095329788600793],2018_Jul_09_0617,60.0448814974,go-nogo,001,31,
logos/2.jpg,properties2.xlsx,frogs/ab22.jpg,0,0,400,l,0,0,0,1,0,39,39,21,,,['l'],0,[0.11781713191885501],2018_Jul_09_0617,60.0448814974,go-nogo,001,31,
logos/2.jpg,properties2.xlsx,frogs/ab39.jpg,0,0,400,l,0,0,0,1,0,40,40,38,,,['l'],0,[0.06778555984783452],2018_Jul_09_0617,60.0448814974,go-nogo,001,31,
logos/2.jpg,properties2.xlsx,logos/2.jpg,0,0,400,a,0,0,0,1,0,41,41,89,,,['a'],0,[0.03471097614237806],2018_Jul_09_0617,60.0448814974,go-nogo,001,31,
logos/2.jpg,properties2.xlsx,frogs/ab29.jpg,0,0,400,l,0,0,0,1,0,42,42,28,,,['l'],0,[0.0010018273897003382],2018_Jul_09_0617,60.0448814974,go-nogo,001,31,
logos/2.jpg,properties2.xlsx,frogs/ab42.jpg,0,0,400,l,0,0,0,1,0,43,43,41,,,['l'],0,[0.41808064152428415],2018_Jul_09_0617,60.0448814974,go-nogo,001,31,
logos/2.jpg,properties2.xlsx,frogs/ab6.jpg,0,0,400,l,0,0,0,1,0,44,44,5,,,['l'],0,[0.3177144948131172],2018_Jul_09_0617,60.0448814974,go-nogo,001,31,
logos/2.jpg,properties2.xlsx,frogs/ab23.jpg,0,0,400,l,0,0,0,1,0,45,45,22,,,['l'],0,[0.3676287035777932],2018_Jul_09_0617,60.0448814974,go-nogo,001,31,
logos/2.jpg,properties2.xlsx,frogs/ab47.jpg,0,0,400,l,0,0,0,1,0,46,46,46,,,['l'],0,[0.24364799043542007],2018_Jul_09_0617,60.0448814974,go-nogo,001,31,
logos/2.jpg,properties2.xlsx,frogs/ab50.jpg,0,0,400,l,0,0,0,1,0,47,47,49,,,['l'],0,[0.5340654780084151],2018_Jul_09_0617,60.0448814974,go-nogo,001,31,
logos/2.jpg,properties2.xlsx,logos/2.jpg,0,0,400,a,0,0,0,1,0,48,48,87,,,['l'],0,[0.9000756390814786],2018_Jul_09_0617,60.0448814974,go-nogo,001,31,
logos/2.jpg,properties2.xlsx,frogs/ab76.jpg,0,0,400,l,0,0,0,1,0,49,49,74,,,['l'],0,[1.0173822629731148],2018_Jul_09_0617,60.0448814974,go-nogo,001,31,
logos/2.jpg,properties2.xlsx,frogs/ab45.jpg,0,0,400,l,0,0,0,1,0,50,50,44,,,['l'],0,[0.13438588427379727],2018_Jul_09_0617,60.0448814974,go-nogo,001,31,
logos/2.jpg,properties2.xlsx,frogs/ab31.jpg,0,0,400,l,0,0,0,1,0,51,51,30,,,['l'],0,[0.4846077812326257],2018_Jul_09_0617,60.0448814974,go-nogo,001,31,
logos/2.jpg,properties2.xlsx,frogs/ab66.jpg,0,0,400,l,0,0,0,1,0,52,52,64,,,['l'],0,[0.15116348082665354],2018_Jul_09_0617,60.0448814974,go-nogo,001,31,
logos/2.jpg,properties2.xlsx,frogs/ab68.jpg,0,0,400,l,0,0,0,1,0,53,53,66,,,['l'],0,[0.08462072243128205],2018_Jul_09_0617,60.0448814974,go-nogo,001,31,
logos/2.jpg,properties2.xlsx,frogs/ab54.jpg,0,0,400,l,0,0,0,1,0,54,54,53,,,['l'],0,[0.11787335919507314],2018_Jul_09_0617,60.0448814974,go-nogo,001,31,
logos/2.jpg,properties2.xlsx,frogs/ab38.jpg,0,0,400,l,0,0,0,1,0,55,55,37,,,['l'],0,[0.0010183385747950524],2018_Jul_09_0617,60.0448814974,go-nogo,001,31,
logos/2.jpg,properties2.xlsx,logos/2.jpg,0,0,400,a,0,0,0,1,0,56,56,85,,,['l'],0,[0.48434895723039517],2018_Jul_09_0617,60.0448814974,go-nogo,001,31,
logos/2.jpg,properties2.xlsx,logos/2.jpg,0,0,400,a,0,0,0,1,0,57,57,80,,,['a'],0,[0.18425814570946386],2018_Jul_09_0617,60.0448814974,go-nogo,001,31,
logos/2.jpg,properties2.xlsx,frogs/ab35.jpg,0,0,400,l,0,0,0,1,0,58,58,34,,,['l'],0,[0.08434137100994121],2018_Jul_09_0617,60.0448814974,go-nogo,001,31,
logos/2.jpg,properties2.xlsx,logos/2.jpg,0,0,400,a,0,0,0,1,0,59,59,81,,,['a'],0,[0.10109888638544362],2018_Jul_09_0617,60.0448814974,go-nogo,001,31,
logos/2.jpg,properties2.xlsx,frogs/ab67.jpg,0,0,400,l,0,0,0,1,0,60,60,65,,,['l'],0,[0.05109989045013208],2018_Jul_09_0617,60.0448814974,go-nogo,001,31,
logos/2.jpg,properties2.xlsx,frogs/ab11.jpg,0,0,400,l,0,0,0,1,0,61,61,10,,,['l'],0,[0.5508881456407835],2018_Jul_09_0617,60.0448814974,go-nogo,001,31,
logos/2.jpg,properties2.xlsx,frogs/ab34.jpg,0,0,400,l,0,0,0,1,0,62,62,33,,,['l'],0,[0.6507843929139199],2018_Jul_09_0617,60.0448814974,go-nogo,001,31,
logos/2.jpg,properties2.xlsx,logos/2.jpg,0,0,400,a,0,0,0,1,0,63,63,88,,,['l'],0,[0.4509923446094035],2018_Jul_09_0617,60.0448814974,go-nogo,001,31,
logos/2.jpg,properties2.xlsx,frogs/ab5.jpg,0,0,400,l,0,0,0,1,0,64,64,4,,,['l'],0,[0.43414334833505563],2018_Jul_09_0617,60.0448814974,go-nogo,001,31,
logos/2.jpg,properties2.xlsx,frogs/ab65.jpg,0,0,400,l,0,0,0,1,0,65,65,63,,,['l'],0,[0.36755685761454515],2018_Jul_09_0617,60.0448814974,go-nogo,001,31,
logos/2.jpg,properties2.xlsx,frogs/ab52.jpg,0,0,400,l,0,0,0,1,0,66,66,51,,,['l'],0,[0.4341446870821528],2018_Jul_09_0617,60.0448814974,go-nogo,001,31,
logos/2.jpg,properties2.xlsx,frogs/ab13.jpg,0,0,400,l,0,0,0,1,0,67,67,12,,,['l'],0,[0.43433568134059897],2018_Jul_09_0617,60.0448814974,go-nogo,001,31,
logos/2.jpg,properties2.xlsx,frogs/ab14.jpg,0,0,400,l,0,0,0,1,0,68,68,13,,,['l'],0,[0.5008945046793087],2018_Jul_09_0617,60.0448814974,go-nogo,001,31,
logos/2.jpg,properties2.xlsx,frogs/ab79.jpg,0,0,400,l,0,0,0,1,0,69,69,77,,,['l'],0,[0.5840613502150518],2018_Jul_09_0617,60.0448814974,go-nogo,001,31,
logos/2.jpg,properties2.xlsx,frogs/ab25.jpg,0,0,400,l,0,0,0,1,0,70,70,24,,,['l'],0,[0.0009821924613788724],2018_Jul_09_0617,60.0448814974,go-nogo,001,31,
logos/2.jpg,properties2.xlsx,frogs/ab62.jpg,0,0,400,l,0,0,0,1,0,71,71,60,,,['l'],0,[0.5371294186988962],2018_Jul_09_0617,60.0448814974,go-nogo,001,31,
logos/2.jpg,properties2.xlsx,frogs/ab26.jpg,0,0,400,l,0,0,0,1,0,72,72,25,,,['l'],0,[0.7674305693508359],2018_Jul_09_0617,60.0448814974,go-nogo,001,31,
logos/2.jpg,properties2.xlsx,frogs/ab44.jpg,0,0,400,l,0,0,0,1,0,73,73,43,,,['l'],0,[0.41777987018576823],2018_Jul_09_0617,60.0448814974,go-nogo,001,31,
logos/2.jpg,properties2.xlsx,frogs/ab18.jpg,0,0,400,l,0,0,0,1,0,74,74,17,,,['l'],0,[0.5995733866438968],2018_Jul_09_0617,60.0448814974,go-nogo,001,31,
logos/2.jpg,properties2.xlsx,frogs/ab30.jpg,0,0,400,l,0,0,0,1,0,75,75,29,,,['l'],0,[0.13435866312647704],2018_Jul_09_0617,60.0448814974,go-nogo,001,31,
logos/2.jpg,properties2.xlsx,frogs/ab60.jpg,0,0,400,l,0,0,0,1,0,76,76,58,,,['l'],0,[0.13445505275740288],2018_Jul_09_0617,60.0448814974,go-nogo,001,31,
logos/2.jpg,properties2.xlsx,frogs/ab81.jpg,0,0,400,l,0,0,0,1,0,77,77,79,,,['l'],0,[0.4507299506221898],2018_Jul_09_0617,60.0448814974,go-nogo,001,31,
logos/2.jpg,properties2.xlsx,frogs/ab36.jpg,0,0,400,l,0,0,0,1,0,78,78,35,,,['l'],0,[0.38423449454421643],2018_Jul_09_0617,60.0448814974,go-nogo,001,31,
logos/2.jpg,properties2.xlsx,frogs/ab27.jpg,0,0,400,l,0,0,0,1,0,79,79,26,,,['l'],0,[0.33421095494850306],2018_Jul_09_0617,60.0448814974,go-nogo,001,31,
logos/2.jpg,properties2.xlsx,frogs/ab32.jpg,0,0,400,l,0,0,0,1,0,80,80,31,,,['l'],0,[0.36764610726822866],2018_Jul_09_0617,60.0448814974,go-nogo,001,31,
logos/2.jpg,properties2.xlsx,frogs/ab1.jpg,0,0,400,l,0,0,0,1,0,81,81,0,,,['l'],0,[0.4008590279336204],2018_Jul_09_0617,60.0448814974,go-nogo,001,31,
logos/2.jpg,properties2.xlsx,frogs/ab55.jpg,0,0,400,l,0,0,0,1,0,82,82,54,,,['l'],0,[0.28419321658293484],2018_Jul_09_0617,60.0448814974,go-nogo,001,31,
logos/2.jpg,properties2.xlsx,frogs/ab40.jpg,0,0,400,l,0,0,0,1,0,83,83,39,,,['l'],0,[0.5002304872323293],2018_Jul_09_0617,60.0448814974,go-nogo,001,31,
logos/2.jpg,properties2.xlsx,frogs/ab46.jpg,0,0,400,l,0,0,0,1,0,84,84,45,,,['l'],0,[0.33426896722085075],2018_Jul_09_0617,60.0448814974,go-nogo,001,31,
logos/2.jpg,properties2.xlsx,frogs/ab24.jpg,0,0,400,l,0,0,0,1,0,85,85,23,,,['l'],0,[0.3177127098169876],2018_Jul_09_0617,60.0448814974,go-nogo,001,31,
logos/2.jpg,properties2.xlsx,logos/2.jpg,0,0,400,a,0,0,0,1,0,86,86,84,,,['a'],0,[0.11751993056532228],2018_Jul_09_0617,60.0448814974,go-nogo,001,31,
logos/2.jpg,properties2.xlsx,frogs/ab74.jpg,0,0,400,l,0,0,0,1,0,87,87,72,,,['l'],0,[0.43428480903821765],2018_Jul_09_0617,60.0448814974,go-nogo,001,31,
logos/2.jpg,properties2.xlsx,frogs/ab3.jpg,0,0,400,l,0,0,0,1,0,88,88,2,,,['l'],0,[0.2342401842106483],2018_Jul_09_0617,60.0448814974,go-nogo,001,31,
logos/2.jpg,properties2.xlsx,frogs/ab19.jpg,0,0,400,l,0,0,0,1,0,89,89,18,,,['l'],0,[0.2509187136456603],2018_Jul_09_0617,60.0448814974,go-nogo,001,31,
logos/2.jpg,properties2.xlsx,,,,,,0,0,0,1,,,,,,,,,,2018_Jul_09_0617,60.0448814974,go-nogo,001,31,
logos/4.jpg,properties4.xlsx,frogs/ab73.jpg,0,0,400,l,0,1,1,3,0,0,0,71,space,6.34934278784,['l'],0,[0.5675064315582858],2018_Jul_09_0617,60.0448814974,go-nogo,001,31,
logos/4.jpg,properties4.xlsx,frogs/ab20.jpg,0,0,400,l,0,1,1,3,0,1,1,19,,,['l'],0,[0.03439146238088142],2018_Jul_09_0617,60.0448814974,go-nogo,001,31,
logos/4.jpg,properties4.xlsx,frogs/ab38.jpg,0,0,400,l,0,1,1,3,0,2,2,37,,,['l'],0,[0.30091637084115064],2018_Jul_09_0617,60.0448814974,go-nogo,001,31,
logos/4.jpg,properties4.xlsx,frogs/ab68.jpg,0,0,400,l,0,1,1,3,0,3,3,66,,,['l'],0,[2.317173195653595],2018_Jul_09_0617,60.0448814974,go-nogo,001,31,
logos/4.jpg,properties4.xlsx,logos/4.jpg,0,0,400,a,0,1,1,3,0,4,4,83,,,['l'],0,[0.9006548693505465],2018_Jul_09_0617,60.0448814974,go-nogo,001,31,
logos/4.jpg,properties4.xlsx,frogs/ab60.jpg,0,0,400,l,0,1,1,3,0,5,5,58,,,['l'],0,[0.38433400791109307],2018_Jul_09_0617,60.0448814974,go-nogo,001,31,
logos/4.jpg,properties4.xlsx,frogs/ab50.jpg,0,0,400,l,0,1,1,3,0,6,6,49,,,['a'],0,[1.067430346221954],2018_Jul_09_0617,60.0448814974,go-nogo,001,31,
logos/4.jpg,properties4.xlsx,frogs/ab34.jpg,0,0,400,l,0,1,1,3,0,7,7,33,,,['a'],0,[0.5674457417844678],2018_Jul_09_0617,60.0448814974,go-nogo,001,31,
logos/4.jpg,properties4.xlsx,frogs/ab64.jpg,0,0,400,l,0,1,1,3,0,8,8,62,,,['a'],0,[0.5174226484377868],2018_Jul_09_0617,60.0448814974,go-nogo,001,31,
logos/4.jpg,properties4.xlsx,frogs/ab61.jpg,0,0,400,l,0,1,1,3,0,9,9,59,,,['a'],0,[0.4675753769115545],2018_Jul_09_0617,60.0448814974,go-nogo,001,31,
logos/4.jpg,properties4.xlsx,frogs/ab41.jpg,0,0,400,l,0,1,1,3,0,10,10,40,,,['l'],0,[0.6342370604761527],2018_Jul_09_0617,60.0448814974,go-nogo,001,31,
logos/4.jpg,properties4.xlsx,frogs/ab37.jpg,0,0,400,l,0,1,1,3,0,11,11,36,,,['l'],0,[19.711243448517052],2018_Jul_09_0617,60.0448814974,go-nogo,001,31,
logos/4.jpg,properties4.xlsx,frogs/ab46.jpg,0,0,400,l,0,1,1,3,0,12,12,45,,,['l'],0,[0.03427142159489449],2018_Jul_09_0617,60.0448814974,go-nogo,001,31,
logos/4.jpg,properties4.xlsx,frogs/ab22.jpg,0,0,400,l,0,1,1,3,0,13,13,21,,,['l'],0,[0.48422668520652223],2018_Jul_09_0617,60.0448814974,go-nogo,001,31,
logos/4.jpg,properties4.xlsx,logos/4.jpg,0,0,400,a,0,1,1,3,0,14,14,81,,,['a'],0,[0.01773703034996288],2018_Jul_09_0617,60.0448814974,go-nogo,001,31,
logos/4.jpg,properties4.xlsx,frogs/ab32.jpg,0,0,400,l,0,1,1,3,0,15,15,31,,,['l'],0,[0.41754960607067915],2018_Jul_09_0617,60.0448814974,go-nogo,001,31,
logos/4.jpg,properties4.xlsx,frogs/ab35.jpg,0,0,400,l,0,1,1,3,0,16,16,34,,,['l'],0,[0.4335333269336843],2018_Jul_09_0617,60.0448814974,go-nogo,001,31,
logos/4.jpg,properties4.xlsx,frogs/ab81.jpg,0,0,400,l,0,1,1,3,0,17,17,79,,,['l'],0,[0.4675481557715102],2018_Jul_09_0617,60.0448814974,go-nogo,001,31,
logos/4.jpg,properties4.xlsx,logos/4.jpg,0,0,400,a,0,1,1,3,0,18,18,89,,,['a'],0,[0.001000934891635552],2018_Jul_09_0617,60.0448814974,go-nogo,001,31,
logos/4.jpg,properties4.xlsx,frogs/ab3.jpg,0,0,400,l,0,1,1,3,0,19,19,2,,,['l'],0,[0.335678219293186],2018_Jul_09_0617,60.0448814974,go-nogo,001,31,
logos/4.jpg,properties4.xlsx,frogs/ab69.jpg,0,0,400,l,0,1,1,3,0,20,20,67,,,['l'],0,[0.48427220252051484],2018_Jul_09_0617,60.0448814974,go-nogo,001,31,
logos/4.jpg,properties4.xlsx,frogs/ab47.jpg,0,0,400,l,0,1,1,3,0,21,21,46,,,['a'],0,[0.7019293544362881],2018_Jul_09_0617,60.0448814974,go-nogo,001,31,
logos/4.jpg,properties4.xlsx,frogs/ab14.jpg,0,0,400,l,0,1,1,3,0,22,22,13,,,['l'],0,[0.6679265743077849],2018_Jul_09_0617,60.0448814974,go-nogo,001,31,
logos/4.jpg,properties4.xlsx,frogs/ab6.jpg,0,0,400,l,0,1,1,3,0,23,23,5,,,['l'],0,[0.034262496628798544],2018_Jul_09_0617,60.0448814974,go-nogo,001,31,
logos/4.jpg,properties4.xlsx,frogs/ab11.jpg,0,0,400,l,0,1,1,3,0,24,24,10,,,['l'],0,[0.5342149711796083],2018_Jul_09_0617,60.0448814974,go-nogo,001,31,
logos/4.jpg,properties4.xlsx,frogs/ab77.jpg,0,0,400,l,0,1,1,3,0,25,25,75,,,['l'],0,[0.6687146487674909],2018_Jul_09_0617,60.0448814974,go-nogo,001,31,
logos/4.jpg,properties4.xlsx,frogs/ab17.jpg,0,0,400,l,0,1,1,3,0,26,26,16,,,['l'],0,[0.23361052788823145],2018_Jul_09_0617,60.0448814974,go-nogo,001,31,
logos/4.jpg,properties4.xlsx,frogs/ab9.jpg,0,0,400,l,0,1,1,3,0,27,27,8,,,['l'],0,[0.4505041489901487],2018_Jul_09_0617,60.0448814974,go-nogo,001,31,
logos/4.jpg,properties4.xlsx,frogs/ab66.jpg,0,0,400,l,0,1,1,3,0,28,28,64,,,['l'],0,[0.26759010310343],2018_Jul_09_0617,60.0448814974,go-nogo,001,31,
logos/4.jpg,properties4.xlsx,logos/4.jpg,0,0,400,a,0,1,1,3,0,29,29,82,,,['a'],0,[0.05097583342285361],2018_Jul_09_0617,60.0448814974,go-nogo,001,31,
logos/4.jpg,properties4.xlsx,frogs/ab10.jpg,0,0,400,l,0,1,1,3,0,30,30,9,,,['l'],0,[0.051116401627950836],2018_Jul_09_0617,60.0448814974,go-nogo,001,31,
logos/4.jpg,properties4.xlsx,frogs/ab15.jpg,0,0,400,l,0,1,1,3,0,31,31,14,,,['l'],0,[0.20087330788373947],2018_Jul_09_0617,60.0448814974,go-nogo,001,31,
logos/4.jpg,properties4.xlsx,frogs/ab5.jpg,0,0,400,l,0,1,1,3,0,32,32,4,,,['l'],0,[0.10091994082904421],2018_Jul_09_0617,60.0448814974,go-nogo,001,31,
logos/4.jpg,properties4.xlsx,frogs/ab58.jpg,0,0,400,l,0,1,1,3,0,33,33,57,,,['l'],0,[0.1177858945375192],2018_Jul_09_0617,60.0448814974,go-nogo,001,31,
logos/4.jpg,properties4.xlsx,frogs/ab24.jpg,0,0,400,l,0,1,1,3,0,34,34,23,,,['l'],0,[0.23454720302834176],2018_Jul_09_0617,60.0448814974,go-nogo,001,31,
logos/4.jpg,properties4.xlsx,frogs/ab63.jpg,0,0,400,l,0,1,1,3,0,35,35,61,,,['l'],0,[0.23449097574484767],2018_Jul_09_0617,60.0448814974,go-nogo,001,31,
logos/4.jpg,properties4.xlsx,frogs/ab56.jpg,0,0,400,l,0,1,1,3,0,36,36,55,,,['l'],0,[0.1413187975413166],2018_Jul_09_0617,60.0448814974,go-nogo,001,31,
logos/4.jpg,properties4.xlsx,frogs/ab75.jpg,0,0,400,l,0,1,1,3,0,37,37,73,,,['l'],0,[0.20097460624674568],2018_Jul_09_0617,60.0448814974,go-nogo,001,31,
logos/4.jpg,properties4.xlsx,frogs/ab72.jpg,0,0,400,l,0,1,1,3,0,38,38,70,,,['l'],0,[0.03437271995062474],2018_Jul_09_0617,60.0448814974,go-nogo,001,31,
logos/4.jpg,properties4.xlsx,frogs/ab74.jpg,0,0,400,l,0,1,1,3,0,39,39,72,,,['l'],0,[0.03435531626746524],2018_Jul_09_0617,60.0448814974,go-nogo,001,31,
logos/4.jpg,properties4.xlsx,frogs/ab4.jpg,0,0,400,l,0,1,1,3,0,40,40,3,,,['l'],0,[0.10104087410581997],2018_Jul_09_0617,60.0448814974,go-nogo,001,31,
logos/4.jpg,properties4.xlsx,logos/4.jpg,0,0,400,a,0,1,1,3,0,41,41,85,,,['a'],0,[0.8506589971439098],2018_Jul_09_0617,60.0448814974,go-nogo,001,31,
logos/4.jpg,properties4.xlsx,frogs/ab65.jpg,0,0,400,l,0,1,1,3,0,42,42,63,,,['l'],0,[0.5175404579858878],2018_Jul_09_0617,60.0448814974,go-nogo,001,31,
logos/4.jpg,properties4.xlsx,frogs/ab19.jpg,0,0,400,l,0,1,1,3,0,43,43,18,,,['l'],0,[0.15098944399505854],2018_Jul_09_0617,60.0448814974,go-nogo,001,31,
logos/4.jpg,properties4.xlsx,frogs/ab28.jpg,0,0,400,l,0,1,1,3,0,44,44,27,,,['l'],0,[0.2843052249008906],2018_Jul_09_0617,60.0448814974,go-nogo,001,31,
logos/4.jpg,properties4.xlsx,frogs/ab18.jpg,0,0,400,l,0,1,1,3,0,45,45,17,,,['l'],0,[0.3177136023150524],2018_Jul_09_0617,60.0448814974,go-nogo,001,31,
logos/4.jpg,properties4.xlsx,frogs/ab29.jpg,0,0,400,l,0,1,1,3,0,46,46,28,,,['l'],0,[0.31753688800381497],2018_Jul_09_0617,60.0448814974,go-nogo,001,31,
logos/4.jpg,properties4.xlsx,frogs/ab2.jpg,0,0,400,l,0,1,1,3,0,47,47,1,,,['l'],0,[0.36604229094518814],2018_Jul_09_0617,60.0448814974,go-nogo,001,31,
logos/4.jpg,properties4.xlsx,frogs/ab62.jpg,0,0,400,l,0,1,1,3,0,48,48,60,,,['l'],0,[0.4336386415307061],2018_Jul_09_0617,60.0448814974,go-nogo,001,31,
logos/4.jpg,properties4.xlsx,frogs/ab12.jpg,0,0,400,l,0,1,1,3,0,49,49,11,,,['l'],0,[0.30032643061713316],2018_Jul_09_0617,60.0448814974,go-nogo,001,31,
logos/4.jpg,properties4.xlsx,frogs/ab80.jpg,0,0,400,l,0,1,1,3,0,50,50,78,,,['l'],0,[0.31772029604326235],2018_Jul_09_0617,60.0448814974,go-nogo,001,31,
logos/4.jpg,properties4.xlsx,frogs/ab27.jpg,0,0,400,l,0,1,1,3,0,51,51,26,,,['l'],0,[0.3509167055308353],2018_Jul_09_0617,60.0448814974,go-nogo,001,31,
logos/4.jpg,properties4.xlsx,frogs/ab43.jpg,0,0,400,l,0,1,1,3,0,52,52,42,,,['l'],0,[0.3675921112226206],2018_Jul_09_0617,60.0448814974,go-nogo,001,31,
logos/4.jpg,properties4.xlsx,frogs/ab53.jpg,0,0,400,l,0,1,1,3,0,53,53,52,,,['l'],0,[0.26695732304506237],2018_Jul_09_0617,60.0448814974,go-nogo,001,31,
logos/4.jpg,properties4.xlsx,frogs/ab31.jpg,0,0,400,l,0,1,1,3,0,54,54,30,,,['l'],0,[0.2342941802489804],2018_Jul_09_0617,60.0448814974,go-nogo,001,31,
logos/4.jpg,properties4.xlsx,frogs/ab71.jpg,0,0,400,l,0,1,1,3,0,55,55,69,,,['l'],0,[0.2508718575700186],2018_Jul_09_0617,60.0448814974,go-nogo,001,31,
logos/4.jpg,properties4.xlsx,frogs/ab76.jpg,0,0,400,l,0,1,1,3,0,56,56,74,,,['l'],0,[0.2842039265378844],2018_Jul_09_0617,60.0448814974,go-nogo,001,31,
logos/4.jpg,properties4.xlsx,frogs/ab30.jpg,0,0,400,l,0,1,1,3,0,57,57,29,,,['l'],0,[0.2677503062368487],2018_Jul_09_0617,60.0448814974,go-nogo,001,31,
logos/4.jpg,properties4.xlsx,frogs/ab57.jpg,0,0,400,l,0,1,1,3,0,58,58,56,,,['l'],0,[0.18434605660877423],2018_Jul_09_0617,60.0448814974,go-nogo,001,31,
logos/4.jpg,properties4.xlsx,logos/4.jpg,0,0,400,a,0,1,1,3,0,59,59,80,,,['a'],0,[0.051310073387867305],2018_Jul_09_0617,60.0448814974,go-nogo,001,31,
logos/4.jpg,properties4.xlsx,logos/4.jpg,0,0,400,a,0,1,1,3,0,60,60,86,,,['a'],0,[0.1512995865487028],2018_Jul_09_0617,60.0448814974,go-nogo,001,31,
logos/4.jpg,properties4.xlsx,frogs/ab67.jpg,0,0,400,l,0,1,1,3,0,61,61,65,,,['l'],0,[0.10077223264670465],2018_Jul_09_0617,60.0448814974,go-nogo,001,31,
logos/4.jpg,properties4.xlsx,frogs/ab49.jpg,0,0,400,l,0,1,1,3,0,62,62,48,,,['l'],0,[0.23459227410785388],2018_Jul_09_0617,60.0448814974,go-nogo,001,31,
logos/4.jpg,properties4.xlsx,logos/4.jpg,0,0,400,a,0,1,1,3,0,63,63,88,,,['a'],0,[0.15104388628242305],2018_Jul_09_0617,60.0448814974,go-nogo,001,31,
logos/4.jpg,properties4.xlsx,frogs/ab52.jpg,0,0,400,l,0,1,1,3,0,64,64,51,,,['l'],0,[0.4013597185112303],2018_Jul_09_0617,60.0448814974,go-nogo,001,31,
logos/4.jpg,properties4.xlsx,frogs/ab25.jpg,0,0,400,l,0,1,1,3,0,65,65,24,,,['l'],0,[0.20120710159244481],2018_Jul_09_0617,60.0448814974,go-nogo,001,31,
logos/4.jpg,properties4.xlsx,frogs/ab8.jpg,0,0,400,l,0,1,1,3,0,66,66,7,,,['l'],0,[0.2517447192076361],2018_Jul_09_0617,60.0448814974,go-nogo,001,31,
logos/4.jpg,properties4.xlsx,frogs/ab23.jpg,0,0,400,l,0,1,1,3,0,67,67,22,,,['l'],0,[0.2178584098801366],2018_Jul_09_0617,60.0448814974,go-nogo,001,31,
logos/4.jpg,properties4.xlsx,frogs/ab54.jpg,0,0,400,l,0,1,1,3,0,68,68,53,,,['l'],0,[0.21874822895188117],2018_Jul_09_0617,60.0448814974,go-nogo,001,31,
logos/4.jpg,properties4.xlsx,frogs/ab39.jpg,0,0,400,l,0,1,1,3,0,69,69,38,,,['l'],0,[0.06772130009630928],2018_Jul_09_0617,60.0448814974,go-nogo,001,31,
logos/4.jpg,properties4.xlsx,frogs/ab51.jpg,0,0,400,l,0,1,1,3,0,70,70,50,,,['l'],0,[0.13451931250892812],2018_Jul_09_0617,60.0448814974,go-nogo,001,31,
logos/4.jpg,properties4.xlsx,frogs/ab16.jpg,0,0,400,l,0,1,1,3,0,71,71,15,,,['l'],0,[0.1511143935204018],2018_Jul_09_0617,60.0448814974,go-nogo,001,31,
logos/4.jpg,properties4.xlsx,frogs/ab70.jpg,0,0,400,l,0,1,1,3,0,72,72,68,,,['l'],0,[0.15130315653368598],2018_Jul_09_0617,60.0448814974,go-nogo,001,31,
logos/4.jpg,properties4.xlsx,frogs/ab1.jpg,0,0,400,l,0,1,1,3,0,73,73,0,,,['l'],0,[0.15122060060093645],2018_Jul_09_0617,60.0448814974,go-nogo,001,31,
logos/4.jpg,properties4.xlsx,frogs/ab44.jpg,0,0,400,l,0,1,1,3,0,74,74,43,,,['l'],0,[0.2511851238668896],2018_Jul_09_0617,60.0448814974,go-nogo,001,31,
logos/4.jpg,properties4.xlsx,frogs/ab7.jpg,0,0,400,l,0,1,1,3,0,75,75,6,,,['l'],0,[0.10106274027202744],2018_Jul_09_0617,60.0448814974,go-nogo,001,31,
logos/4.jpg,properties4.xlsx,logos/4.jpg,0,0,400,a,0,1,1,3,0,76,76,84,,,['a'],0,[0.03440306483389577],2018_Jul_09_0617,60.0448814974,go-nogo,001,31,
logos/4.jpg,properties4.xlsx,frogs/ab13.jpg,0,0,400,l,0,1,1,3,0,77,77,12,,,['l'],0,[0.03441689853207208],2018_Jul_09_0617,60.0448814974,go-nogo,001,31,
logos/4.jpg,properties4.xlsx,logos/4.jpg,0,0,400,a,0,1,1,3,0,78,78,87,,,['a'],0,[0.10198692046105862],2018_Jul_09_0617,60.0448814974,go-nogo,001,31,
logos/4.jpg,properties4.xlsx,frogs/ab33.jpg,0,0,400,l,0,1,1,3,0,79,79,32,,,['l'],0,[0.03430444396508392],2018_Jul_09_0617,60.0448814974,go-nogo,001,31,
logos/4.jpg,properties4.xlsx,frogs/ab79.jpg,0,0,400,l,0,1,1,3,0,80,80,77,,,['l'],0,[0.10084630986239063],2018_Jul_09_0617,60.0448814974,go-nogo,001,31,
logos/4.jpg,properties4.xlsx,frogs/ab45.jpg,0,0,400,l,0,1,1,3,0,81,81,44,,,['l'],0,[0.15092384549643612],2018_Jul_09_0617,60.0448814974,go-nogo,001,31,
logos/4.jpg,properties4.xlsx,frogs/ab42.jpg,0,0,400,l,0,1,1,3,0,82,82,41,,,['l'],0,[0.5006968166926526],2018_Jul_09_0617,60.0448814974,go-nogo,001,31,
logos/4.jpg,properties4.xlsx,frogs/ab26.jpg,0,0,400,l,0,1,1,3,0,83,83,25,,,['l'],0,[0.0010152148315683007],2018_Jul_09_0617,60.0448814974,go-nogo,001,31,
logos/4.jpg,properties4.xlsx,frogs/ab55.jpg,0,0,400,l,0,1,1,3,0,84,84,54,,,['l'],0,[0.017780762682377826],2018_Jul_09_0617,60.0448814974,go-nogo,001,31,
logos/4.jpg,properties4.xlsx,frogs/ab40.jpg,0,0,400,l,0,1,1,3,0,85,85,39,,,['l'],0,[0.0677199613492121],2018_Jul_09_0617,60.0448814974,go-nogo,001,31,
logos/4.jpg,properties4.xlsx,frogs/ab21.jpg,0,0,400,l,0,1,1,3,0,86,86,20,,,['l'],0,[0.034345052554272115],2018_Jul_09_0617,60.0448814974,go-nogo,001,31,
logos/4.jpg,properties4.xlsx,frogs/ab48.jpg,0,0,400,l,0,1,1,3,0,87,87,47,,,['l'],0,[0.06746872357325628],2018_Jul_09_0617,60.0448814974,go-nogo,001,31,
logos/4.jpg,properties4.xlsx,frogs/ab78.jpg,0,0,400,l,0,1,1,3,0,88,88,76,,,['l'],0,[0.05083124898374081],2018_Jul_09_0617,60.0448814974,go-nogo,001,31,
logos/4.jpg,properties4.xlsx,frogs/ab36.jpg,0,0,400,l,0,1,1,3,0,89,89,35,,,['l'],0,[0.051045894404524006],2018_Jul_09_0617,60.0448814974,go-nogo,001,31,
logos/4.jpg,properties4.xlsx,,,,,,0,1,1,3,,,,,,,,,,2018_Jul_09_0617,60.0448814974,go-nogo,001,31,
logos/1.jpg,properties1.xlsx,frogs/ab33.jpg,0,0,400,l,0,2,2,0,0,0,0,32,space,3.70594960518,['l'],0,[0.8510267057281453],2018_Jul_09_0617,60.0448814974,go-nogo,001,31,
logos/1.jpg,properties1.xlsx,frogs/ab17.jpg,0,0,400,l,0,2,2,0,0,1,1,16,,,['l'],0,[0.1682463112010737],2018_Jul_09_0617,60.0448814974,go-nogo,001,31,
logos/1.jpg,properties1.xlsx,frogs/ab55.jpg,0,0,400,l,0,2,2,0,0,2,2,54,,,['l'],0,[0.10131665554217761],2018_Jul_09_0617,60.0448814974,go-nogo,001,31,
logos/1.jpg,properties1.xlsx,logos/1.jpg,0,0,400,a,0,2,2,0,0,3,3,89,,,['a'],0,[0.3203272784812725],2018_Jul_09_0617,60.0448814974,go-nogo,001,31,
logos/1.jpg,properties1.xlsx,logos/1.jpg,0,0,400,a,0,2,2,0,0,4,4,84,,,['l'],0,[0.05098252715106355],2018_Jul_09_0617,60.0448814974,go-nogo,001,31,
logos/1.jpg,properties1.xlsx,frogs/ab31.jpg,0,0,400,l,0,2,2,0,0,5,5,30,,,['a'],0,[0.3512545154808322],2018_Jul_09_0617,60.0448814974,go-nogo,001,31,
logos/1.jpg,properties1.xlsx,logos/1.jpg,0,0,400,a,0,2,2,0,0,6,6,87,,,['l'],0,[0.03426071163266897],2018_Jul_09_0617,60.0448814974,go-nogo,001,31,
logos/1.jpg,properties1.xlsx,frogs/ab39.jpg,0,0,400,l,0,2,2,0,0,7,7,38,,,['l'],0,[0.11764711132127559],2018_Jul_09_0617,60.0448814974,go-nogo,001,31,
logos/1.jpg,properties1.xlsx,frogs/ab48.jpg,0,0,400,l,0,2,2,0,0,8,8,47,,,['l'],0,[0.36756890630931593],2018_Jul_09_0617,60.0448814974,go-nogo,001,31,
logos/1.jpg,properties1.xlsx,frogs/ab51.jpg,0,0,400,l,0,2,2,0,0,9,9,50,,,['l'],0,[0.3512054281673045],2018_Jul_09_0617,60.0448814974,go-nogo,001,31,
logos/1.jpg,properties1.xlsx,frogs/ab35.jpg,0,0,400,l,0,2,2,0,0,10,10,34,,,['l'],0,[0.45096824720531004],2018_Jul_09_0617,60.0448814974,go-nogo,001,31,
logos/1.jpg,properties1.xlsx,frogs/ab63.jpg,0,0,400,l,0,2,2,0,0,11,11,61,,,['l'],0,[0.2509383485667058],2018_Jul_09_0617,60.0448814974,go-nogo,001,31,
logos/1.jpg,properties1.xlsx,frogs/ab49.jpg,0,0,400,l,0,2,2,0,0,12,12,48,,,['l'],0,[0.2509646772159613],2018_Jul_09_0617,60.0448814974,go-nogo,001,31,
logos/1.jpg,properties1.xlsx,logos/1.jpg,0,0,400,a,0,2,2,0,0,13,13,83,,,['l'],0,[0.10077892637491459],2018_Jul_09_0617,60.0448814974,go-nogo,001,31,
logos/1.jpg,properties1.xlsx,frogs/ab28.jpg,0,0,400,l,0,2,2,0,0,14,14,27,,,['l'],0,[0.25079599536547903],2018_Jul_09_0617,60.0448814974,go-nogo,001,31,
logos/1.jpg,properties1.xlsx,frogs/ab52.jpg,0,0,400,l,0,2,2,0,0,15,15,51,,,['l'],0,[0.0009665737743489444],2018_Jul_09_0617,60.0448814974,go-nogo,001,31,
logos/1.jpg,properties1.xlsx,frogs/ab73.jpg,0,0,400,l,0,2,2,0,0,16,16,71,,,['l'],0,[0.03440306483389577],2018_Jul_09_0617,60.0448814974,go-nogo,001,31,
logos/1.jpg,properties1.xlsx,frogs/ab67.jpg,0,0,400,l,0,2,2,0,0,17,17,65,,,['l'],0,[0.1510639674597769],2018_Jul_09_0617,60.0448814974,go-nogo,001,31,
logos/1.jpg,properties1.xlsx,frogs/ab7.jpg,0,0,400,l,0,2,2,0,0,18,18,6,,,['l'],0,[0.18439112768828636],2018_Jul_09_0617,60.0448814974,go-nogo,001,31,
logos/1.jpg,properties1.xlsx,frogs/ab69.jpg,0,0,400,l,0,2,2,0,0,19,19,67,,,['l'],0,[0.16752472773077898],2018_Jul_09_0617,60.0448814974,go-nogo,001,31,
logos/1.jpg,properties1.xlsx,frogs/ab70.jpg,0,0,400,l,0,2,2,0,0,20,20,68,,,['l'],0,[0.0842199914768571],2018_Jul_09_0617,60.0448814974,go-nogo,001,31,
logos/1.jpg,properties1.xlsx,frogs/ab32.jpg,0,0,400,l,0,2,2,0,0,21,21,31,,,['l'],0,[0.08437662461801665],2018_Jul_09_0617,60.0448814974,go-nogo,001,31,
logos/1.jpg,properties1.xlsx,frogs/ab1.jpg,0,0,400,l,0,2,2,0,0,22,22,0,,,['l'],0,[0.10102570166782243],2018_Jul_09_0617,60.0448814974,go-nogo,001,31,
logos/1.jpg,properties1.xlsx,logos/1.jpg,0,0,400,a,0,2,2,0,0,23,23,82,,,['l'],0,[0.08368003105715616],2018_Jul_09_0617,60.0448814974,go-nogo,001,31,
logos/1.jpg,properties1.xlsx,frogs/ab44.jpg,0,0,400,l,0,2,2,0,0,24,24,43,,,['l'],0,[0.28479832924494985],2018_Jul_09_0617,60.0448814974,go-nogo,001,31,
logos/1.jpg,properties1.xlsx,frogs/ab25.jpg,0,0,400,l,0,2,2,0,0,25,25,24,,,['l'],0,[0.0010736733602243476],2018_Jul_09_0617,60.0448814974,go-nogo,001,31,
logos/1.jpg,properties1.xlsx,frogs/ab53.jpg,0,0,400,l,0,2,2,0,0,26,26,52,,,['l'],0,[0.06831257906742394],2018_Jul_09_0617,60.0448814974,go-nogo,001,31,
logos/1.jpg,properties1.xlsx,frogs/ab14.jpg,0,0,400,l,0,2,2,0,0,27,27,13,,,['l'],0,[0.23427990030904766],2018_Jul_09_0617,60.0448814974,go-nogo,001,31,
logos/1.jpg,properties1.xlsx,frogs/ab65.jpg,0,0,400,l,0,2,2,0,0,28,28,63,,,['l'],0,[0.21777273021143628],2018_Jul_09_0617,60.0448814974,go-nogo,001,31,
logos/1.jpg,properties1.xlsx,frogs/ab58.jpg,0,0,400,l,0,2,2,0,0,29,29,57,,,['l'],0,[0.201027709787013],2018_Jul_09_0617,60.0448814974,go-nogo,001,31,
logos/1.jpg,properties1.xlsx,frogs/ab21.jpg,0,0,400,l,0,2,2,0,0,30,30,20,,,['l'],0,[0.13458535725658294],2018_Jul_09_0617,60.0448814974,go-nogo,001,31,
logos/1.jpg,properties1.xlsx,frogs/ab57.jpg,0,0,400,l,0,2,2,0,0,31,31,56,,,['l'],0,[0.03454407928802539],2018_Jul_09_0617,60.0448814974,go-nogo,001,31,
logos/1.jpg,properties1.xlsx,frogs/ab23.jpg,0,0,400,l,0,2,2,0,0,32,32,22,,,['l'],0,[0.11785952550417278],2018_Jul_09_0617,60.0448814974,go-nogo,001,31,
logos/1.jpg,properties1.xlsx,frogs/ab50.jpg,0,0,400,l,0,2,2,0,0,33,33,49,,,['l'],0,[0.06797967785678338],2018_Jul_09_0617,60.0448814974,go-nogo,001,31,
logos/1.jpg,properties1.xlsx,logos/1.jpg,0,0,400,a,0,2,2,0,0,34,34,80,,,['a'],0,[0.26736340898060007],2018_Jul_09_0617,60.0448814974,go-nogo,001,31,
logos/1.jpg,properties1.xlsx,frogs/ab29.jpg,0,0,400,l,0,2,2,0,0,35,35,28,,,['l'],0,[0.050313154730247334],2018_Jul_09_0617,60.0448814974,go-nogo,001,31,
logos/1.jpg,properties1.xlsx,frogs/ab60.jpg,0,0,400,l,0,2,2,0,0,36,36,58,,,['l'],0,[0.23428837902611122],2018_Jul_09_0617,60.0448814974,go-nogo,001,31,
logos/1.jpg,properties1.xlsx,frogs/ab40.jpg,0,0,400,l,0,2,2,0,0,37,37,39,,,['l'],0,[0.0182988569358713],2018_Jul_09_0617,60.0448814974,go-nogo,001,31,
logos/1.jpg,properties1.xlsx,frogs/ab68.jpg,0,0,400,l,0,2,2,0,0,38,38,66,,,['l'],0,[0.051063298087683506],2018_Jul_09_0617,60.0448814974,go-nogo,001,31,
logos/1.jpg,properties1.xlsx,frogs/ab72.jpg,0,0,400,l,0,2,2,0,0,39,39,70,,,['l'],0,[0.05093834856961621],2018_Jul_09_0617,60.0448814974,go-nogo,001,31,
logos/1.jpg,properties1.xlsx,frogs/ab66.jpg,0,0,400,l,0,2,2,0,0,40,40,64,,,['l'],0,[0.4342009143656469],2018_Jul_09_0617,60.0448814974,go-nogo,001,31,
logos/1.jpg,properties1.xlsx,frogs/ab43.jpg,0,0,400,l,0,2,2,0,0,41,41,42,,,['l'],0,[0.46740669506107224],2018_Jul_09_0617,60.0448814974,go-nogo,001,31,
logos/1.jpg,properties1.xlsx,frogs/ab64.jpg,0,0,400,l,0,2,2,0,0,42,42,62,,,['l'],0,[0.5175734803560772],2018_Jul_09_0617,60.0448814974,go-nogo,001,31,
logos/1.jpg,properties1.xlsx,frogs/ab30.jpg,0,0,400,l,0,2,2,0,0,43,43,29,,,['l'],0,[0.45095173601293936],2018_Jul_09_0617,60.0448814974,go-nogo,001,31,
logos/1.jpg,properties1.xlsx,logos/1.jpg,0,0,400,a,0,2,2,0,0,44,44,85,,,['a'],0,[0.21777049897355027],2018_Jul_09_0617,60.0448814974,go-nogo,001,31,
logos/1.jpg,properties1.xlsx,logos/1.jpg,0,0,400,a,0,2,2,0,0,45,45,81,,,['a'],0,[0.16783531653345563],2018_Jul_09_0617,60.0448814974,go-nogo,001,31,
logos/1.jpg,properties1.xlsx,frogs/ab4.jpg,0,0,400,l,0,2,2,0,0,46,46,3,,,['l'],0,[0.43451016442122636],2018_Jul_09_0617,60.0448814974,go-nogo,001,31,
logos/1.jpg,properties1.xlsx,frogs/ab19.jpg,0,0,400,l,0,2,2,0,0,47,47,18,,,['l'],0,[0.5344586227438413],2018_Jul_09_0617,60.0448814974,go-nogo,001,31,
logos/1.jpg,properties1.xlsx,frogs/ab38.jpg,0,0,400,l,0,2,2,0,0,48,48,37,,,['l'],0,[0.43451551939506317],2018_Jul_09_0617,60.0448814974,go-nogo,001,31,
logos/1.jpg,properties1.xlsx,frogs/ab81.jpg,0,0,400,l,0,2,2,0,0,49,49,79,,,['l'],0,[0.06767042779392796],2018_Jul_09_0617,60.0448814974,go-nogo,001,31,
logos/1.jpg,properties1.xlsx,frogs/ab47.jpg,0,0,400,l,0,2,2,0,0,50,50,46,,,['l'],0,[0.7453171821180149],2018_Jul_09_0617,60.0448814974,go-nogo,001,31,
logos/1.jpg,properties1.xlsx,frogs/ab77.jpg,0,0,400,l,0,2,2,0,0,51,51,75,,,['l'],0,[0.15091358179051895],2018_Jul_09_0617,60.0448814974,go-nogo,001,31,
logos/1.jpg,properties1.xlsx,frogs/ab74.jpg,0,0,400,l,0,2,2,0,0,52,52,72,,,['l'],0,[0.6173706605186453],2018_Jul_09_0617,60.0448814974,go-nogo,001,31,
logos/1.jpg,properties1.xlsx,frogs/ab37.jpg,0,0,400,l,0,2,2,0,0,53,53,36,,,['l'],0,[0.0676824764959747],2018_Jul_09_0617,60.0448814974,go-nogo,001,31,
logos/1.jpg,properties1.xlsx,frogs/ab11.jpg,0,0,400,l,0,2,2,0,0,54,54,10,,,['l'],0,[0.06765391660883324],2018_Jul_09_0617,60.0448814974,go-nogo,001,31,
logos/1.jpg,properties1.xlsx,frogs/ab2.jpg,0,0,400,l,0,2,2,0,0,55,55,1,,,['l'],0,[0.12778765722032404],2018_Jul_09_0617,60.0448814974,go-nogo,001,31,
logos/1.jpg,properties1.xlsx,frogs/ab15.jpg,0,0,400,l,0,2,2,0,0,56,56,14,,,['l'],0,[0.01774238533107564],2018_Jul_09_0617,60.0448814974,go-nogo,001,31,
logos/1.jpg,properties1.xlsx,frogs/ab46.jpg,0,0,400,l,0,2,2,0,0,57,57,45,,,['l'],0,[0.0010094136086991057],2018_Jul_09_0617,60.0448814974,go-nogo,001,31,
logos/1.jpg,properties1.xlsx,frogs/ab78.jpg,0,0,400,l,0,2,2,0,0,58,58,76,,,['l'],0,[0.000993348665360827],2018_Jul_09_0617,60.0448814974,go-nogo,001,31,
logos/1.jpg,properties1.xlsx,frogs/ab45.jpg,0,0,400,l,0,2,2,0,0,59,59,44,,,['l'],0,[0.034347730041190516],2018_Jul_09_0617,60.0448814974,go-nogo,001,31,
logos/1.jpg,properties1.xlsx,frogs/ab41.jpg,0,0,400,l,0,2,2,0,0,60,60,40,,,['l'],0,[0.5340980541295721],2018_Jul_09_0617,60.0448814974,go-nogo,001,31,
logos/1.jpg,properties1.xlsx,frogs/ab8.jpg,0,0,400,l,0,2,2,0,0,61,61,7,,,['l'],0,[0.050505487735790666],2018_Jul_09_0617,60.0448814974,go-nogo,001,31,
logos/1.jpg,properties1.xlsx,frogs/ab71.jpg,0,0,400,l,0,2,2,0,0,62,62,69,,,['l'],0,[0.033880954346386716],2018_Jul_09_0617,60.0448814974,go-nogo,001,31,
logos/1.jpg,properties1.xlsx,frogs/ab75.jpg,0,0,400,l,0,2,2,0,0,63,63,73,,,['l'],0,[0.0009937949216691777],2018_Jul_09_0617,60.0448814974,go-nogo,001,31,
logos/1.jpg,properties1.xlsx,frogs/ab36.jpg,0,0,400,l,0,2,2,0,0,64,64,35,,,['l'],0,[0.0009884399405564182],2018_Jul_09_0617,60.0448814974,go-nogo,001,31,
logos/1.jpg,properties1.xlsx,frogs/ab79.jpg,0,0,400,l,0,2,2,0,0,65,65,77,,,['l'],0,[0.03377742475277046],2018_Jul_09_0617,60.0448814974,go-nogo,001,31,
logos/1.jpg,properties1.xlsx,frogs/ab61.jpg,0,0,400,l,0,2,2,0,0,66,66,59,,,['l'],0,[0.0010103060994879343],2018_Jul_09_0617,60.0448814974,go-nogo,001,31,
logos/1.jpg,properties1.xlsx,frogs/ab24.jpg,0,0,400,l,0,2,2,0,0,67,67,23,,,['l'],0,[0.018319384354981594],2018_Jul_09_0617,60.0448814974,go-nogo,001,31,
logos/1.jpg,properties1.xlsx,frogs/ab42.jpg,0,0,400,l,0,2,2,0,0,68,68,41,,,['l'],0,[0.46750397719006287],2018_Jul_09_0617,60.0448814974,go-nogo,001,31,
logos/1.jpg,properties1.xlsx,frogs/ab27.jpg,0,0,400,l,0,2,2,0,0,69,69,26,,,['l'],0,[0.034351746282482054],2018_Jul_09_0617,60.0448814974,go-nogo,001,31,
logos/1.jpg,properties1.xlsx,frogs/ab13.jpg,0,0,400,l,0,2,2,0,0,70,70,12,,,['l'],0,[0.45054475758661283],2018_Jul_09_0617,60.0448814974,go-nogo,001,31,
logos/1.jpg,properties1.xlsx,frogs/ab12.jpg,0,0,400,l,0,2,2,0,0,71,71,11,,,['l'],0,[0.0669488443309092],2018_Jul_09_0617,60.0448814974,go-nogo,001,31,
logos/1.jpg,properties1.xlsx,frogs/ab80.jpg,0,0,400,l,0,2,2,0,0,72,72,78,,,['l'],0,[0.6009304276667535],2018_Jul_09_0617,60.0448814974,go-nogo,001,31,
logos/1.jpg,properties1.xlsx,logos/1.jpg,0,0,400,a,0,2,2,0,0,73,73,86,,,['l'],0,[0.09547035684227012],2018_Jul_09_0617,60.0448814974,go-nogo,001,31,
logos/1.jpg,properties1.xlsx,frogs/ab56.jpg,0,0,400,l,0,2,2,0,0,74,74,55,,,['a'],0,[0.43767718845629133],2018_Jul_09_0617,60.0448814974,go-nogo,001,31,
logos/1.jpg,properties1.xlsx,frogs/ab22.jpg,0,0,400,l,0,2,2,0,0,75,75,21,,,['l'],0,[0.45378095011255937],2018_Jul_09_0617,60.0448814974,go-nogo,001,31,
logos/1.jpg,properties1.xlsx,frogs/ab26.jpg,0,0,400,l,0,2,2,0,0,76,76,25,,,['l'],0,[0.41745678643201245],2018_Jul_09_0617,60.0448814974,go-nogo,001,31,
logos/1.jpg,properties1.xlsx,frogs/ab10.jpg,0,0,400,l,0,2,2,0,0,77,77,9,,,['l'],0,[0.48422445396136027],2018_Jul_09_0617,60.0448814974,go-nogo,001,31,
logos/1.jpg,properties1.xlsx,frogs/ab9.jpg,0,0,400,l,0,2,2,0,0,78,78,8,,,['l'],0,[0.16720253647508798],2018_Jul_09_0617,60.0448814974,go-nogo,001,31,
logos/1.jpg,properties1.xlsx,frogs/ab6.jpg,0,0,400,l,0,2,2,0,0,79,79,5,,,['l'],0,[0.0010161073369090445],2018_Jul_09_0617,60.0448814974,go-nogo,001,31,
logos/1.jpg,properties1.xlsx,frogs/ab54.jpg,0,0,400,l,0,2,2,0,0,80,80,53,,,['l'],0,[0.03441823727916926],2018_Jul_09_0617,60.0448814974,go-nogo,001,31,
logos/1.jpg,properties1.xlsx,logos/1.jpg,0,0,400,a,0,2,2,0,0,81,81,88,,,['l'],0,[0.0010254785447614267],2018_Jul_09_0617,60.0448814974,go-nogo,001,31,
logos/1.jpg,properties1.xlsx,frogs/ab76.jpg,0,0,400,l,0,2,2,0,0,82,82,74,,,['l'],0,[0.40077379451395245],2018_Jul_09_0617,60.0448814974,go-nogo,001,31,
logos/1.jpg,properties1.xlsx,frogs/ab18.jpg,0,0,400,l,0,2,2,0,0,83,83,17,,,['l'],0,[0.45089684747654246],2018_Jul_09_0617,60.0448814974,go-nogo,001,31,
logos/1.jpg,properties1.xlsx,frogs/ab20.jpg,0,0,400,l,0,2,2,0,0,84,84,19,,,['l'],0,[0.15217467942420626],2018_Jul_09_0617,60.0448814974,go-nogo,001,31,
logos/1.jpg,properties1.xlsx,frogs/ab3.jpg,0,0,400,l,0,2,2,0,0,85,85,2,,,['l'],0,[0.734858461197291],2018_Jul_09_0617,60.0448814974,go-nogo,001,31,
logos/1.jpg,properties1.xlsx,frogs/ab5.jpg,0,0,400,l,0,2,2,0,0,86,86,4,,,['l'],0,[0.08451451534347143],2018_Jul_09_0617,60.0448814974,go-nogo,001,31,
logos/1.jpg,properties1.xlsx,frogs/ab16.jpg,0,0,400,l,0,2,2,0,0,87,87,15,,,['l'],0,[0.01764911944337655],2018_Jul_09_0617,60.0448814974,go-nogo,001,31,
logos/1.jpg,properties1.xlsx,frogs/ab34.jpg,0,0,400,l,0,2,2,0,0,88,88,33,,,['l'],0,[0.5342372835948481],2018_Jul_09_0617,60.0448814974,go-nogo,001,31,
logos/1.jpg,properties1.xlsx,frogs/ab62.jpg,0,0,400,l,0,2,2,0,0,89,89,60,,,['l'],0,[0.017974434435018338],2018_Jul_09_0617,60.0448814974,go-nogo,001,31,
logos/1.jpg,properties1.xlsx,,,,,,0,2,2,0,,,,,,,,,,2018_Jul_09_0617,60.0448814974,go-nogo,001,31,
logos/3.jpg,properties3.xlsx,frogs/ab44.jpg,0,0,400,l,0,3,3,2,0,0,0,43,space,2.2481814267,['l'],0,[0.13470941427658545],2018_Jul_09_0617,60.0448814974,go-nogo,001,31,
logos/3.jpg,properties3.xlsx,frogs/ab75.jpg,0,0,400,l,0,3,3,2,0,1,1,73,,,['l'],0,[0.001016107329633087],2018_Jul_09_0617,60.0448814974,go-nogo,001,31,
logos/3.jpg,properties3.xlsx,frogs/ab47.jpg,0,0,400,l,0,3,3,2,0,2,2,46,,,['l'],0,[0.3741577621549368],2018_Jul_09_0617,60.0448814974,go-nogo,001,31,
logos/3.jpg,properties3.xlsx,logos/3.jpg,0,0,400,a,0,3,3,2,0,3,3,81,,,['a'],0,[0.017782993920263834],2018_Jul_09_0617,60.0448814974,go-nogo,001,31,
logos/3.jpg,properties3.xlsx,frogs/ab4.jpg,0,0,400,l,0,3,3,2,0,4,4,3,,,['l'],0,[0.0009795149744604714],2018_Jul_09_0617,60.0448814974,go-nogo,001,31,
logos/3.jpg,properties3.xlsx,frogs/ab31.jpg,0,0,400,l,0,3,3,2,0,5,5,30,,,['l'],0,[0.46715724227397004],2018_Jul_09_0617,60.0448814974,go-nogo,001,31,
logos/3.jpg,properties3.xlsx,frogs/ab11.jpg,0,0,400,l,0,3,3,2,0,6,6,10,,,['l'],0,[0.05071388568467228],2018_Jul_09_0617,60.0448814974,go-nogo,001,31,
logos/3.jpg,properties3.xlsx,frogs/ab13.jpg,0,0,400,l,0,3,3,2,0,7,7,12,,,['l'],0,[0.5341533889222774],2018_Jul_09_0617,60.0448814974,go-nogo,001,31,
logos/3.jpg,properties3.xlsx,frogs/ab80.jpg,0,0,400,l,0,3,3,2,0,8,8,78,,,['l'],0,[0.06788194947876036],2018_Jul_09_0617,60.0448814974,go-nogo,001,31,
logos/3.jpg,properties3.xlsx,frogs/ab3.jpg,0,0,400,l,0,3,3,2,0,9,9,2,,,['l'],0,[0.5342238961457042],2018_Jul_09_0617,60.0448814974,go-nogo,001,31,
logos/3.jpg,properties3.xlsx,frogs/ab55.jpg,0,0,400,l,0,3,3,2,0,10,10,54,,,['l'],0,[0.0003467349160928279],2018_Jul_09_0617,60.0448814974,go-nogo,001,31,
logos/3.jpg,properties3.xlsx,frogs/ab36.jpg,0,0,400,l,0,3,3,2,0,11,11,35,,,['l'],0,[0.5177341297385283],2018_Jul_09_0617,60.0448814974,go-nogo,001,31,
logos/3.jpg,properties3.xlsx,frogs/ab58.jpg,0,0,400,l,0,3,3,2,0,12,12,57,,,['l'],0,[0.07041976344044087],2018_Jul_09_0617,60.0448814974,go-nogo,001,31,
logos/3.jpg,properties3.xlsx,frogs/ab50.jpg,0,0,400,l,0,3,3,2,0,13,13,49,,,['l'],0,[0.5341261677749571],2018_Jul_09_0617,60.0448814974,go-nogo,001,31,
logos/3.jpg,properties3.xlsx,frogs/ab79.jpg,0,0,400,l,0,3,3,2,0,14,14,77,,,['l'],0,[0.017701776734611485],2018_Jul_09_0617,60.0448814974,go-nogo,001,31,
logos/3.jpg,properties3.xlsx,frogs/ab5.jpg,0,0,400,l,0,3,3,2,0,15,15,4,,,['l'],0,[0.06760929178562947],2018_Jul_09_0617,60.0448814974,go-nogo,001,31,
logos/3.jpg,properties3.xlsx,logos/3.jpg,0,0,400,a,0,3,3,2,0,16,16,89,,,['a'],0,[0.05111015415604925],2018_Jul_09_0617,60.0448814974,go-nogo,001,31,
logos/3.jpg,properties3.xlsx,frogs/ab26.jpg,0,0,400,l,0,3,3,2,0,17,17,25,,,['l'],0,[0.3675492713882704],2018_Jul_09_0617,60.0448814974,go-nogo,001,31,
logos/3.jpg,properties3.xlsx,frogs/ab62.jpg,0,0,400,l,0,3,3,2,0,18,18,60,,,['l'],0,[0.501069880243449],2018_Jul_09_0617,60.0448814974,go-nogo,001,31,
logos/3.jpg,properties3.xlsx,frogs/ab24.jpg,0,0,400,l,0,3,3,2,0,19,19,23,,,['l'],0,[0.41788563102454646],2018_Jul_09_0617,60.0448814974,go-nogo,001,31,
logos/3.jpg,properties3.xlsx,logos/3.jpg,0,0,400,a,0,3,3,2,0,20,20,82,,,['a'],0,[0.08460019501217175],2018_Jul_09_0617,60.0448814974,go-nogo,001,31,
logos/3.jpg,properties3.xlsx,frogs/ab16.jpg,0,0,400,l,0,3,3,2,0,21,21,15,,,['l'],0,[0.017867334849142935],2018_Jul_09_0617,60.0448814974,go-nogo,001,31,
logos/3.jpg,properties3.xlsx,frogs/ab67.jpg,0,0,400,l,0,3,3,2,0,22,22,65,,,['l'],0,[0.4844158944761148],2018_Jul_09_0617,60.0448814974,go-nogo,001,31,
logos/3.jpg,properties3.xlsx,frogs/ab43.jpg,0,0,400,l,0,3,3,2,0,23,23,42,,,['l'],0,[0.0009674662724137306],2018_Jul_09_0617,60.0448814974,go-nogo,001,31,
logos/3.jpg,properties3.xlsx,frogs/ab18.jpg,0,0,400,l,0,3,3,2,0,24,24,17,,,['l'],0,[0.6011276694043772],2018_Jul_09_0617,60.0448814974,go-nogo,001,31,
logos/3.jpg,properties3.xlsx,logos/3.jpg,0,0,400,a,0,3,3,2,0,25,25,84,,,['l'],0,[0.484726037029759],2018_Jul_09_0617,60.0448814974,go-nogo,001,31,
logos/3.jpg,properties3.xlsx,logos/3.jpg,0,0,400,a,0,3,3,2,0,26,26,83,,,['l'],0,[0.8675436932826415],2018_Jul_09_0617,60.0448814974,go-nogo,001,31,
logos/3.jpg,properties3.xlsx,frogs/ab30.jpg,0,0,400,l,0,3,3,2,0,27,27,29,,,['l'],0,[0.7343167157887365],2018_Jul_09_0617,60.0448814974,go-nogo,001,31,
logos/3.jpg,properties3.xlsx,frogs/ab48.jpg,0,0,400,l,0,3,3,2,0,28,28,47,,,['l'],0,[0.2676775677682599],2018_Jul_09_0617,60.0448814974,go-nogo,001,31,
logos/3.jpg,properties3.xlsx,frogs/ab42.jpg,0,0,400,l,0,3,3,2,0,29,29,41,,,['l'],0,[0.13435687813762343],2018_Jul_09_0617,60.0448814974,go-nogo,001,31,
logos/3.jpg,properties3.xlsx,frogs/ab29.jpg,0,0,400,l,0,3,3,2,0,30,30,28,,,['l'],0,[0.21769776050496148],2018_Jul_09_0617,60.0448814974,go-nogo,001,31,
logos/3.jpg,properties3.xlsx,frogs/ab14.jpg,0,0,400,l,0,3,3,2,0,31,31,13,,,['l'],0,[0.23430489021120593],2018_Jul_09_0617,60.0448814974,go-nogo,001,31,
logos/3.jpg,properties3.xlsx,logos/3.jpg,0,0,400,a,0,3,3,2,0,32,32,86,,,['a'],0,[0.03437271995062474],2018_Jul_09_0617,60.0448814974,go-nogo,001,31,
logos/3.jpg,properties3.xlsx,frogs/ab1.jpg,0,0,400,l,0,3,3,2,0,33,33,0,,,['l'],0,[0.0010709958733059466],2018_Jul_09_0617,60.0448814974,go-nogo,001,31,
logos/3.jpg,properties3.xlsx,frogs/ab27.jpg,0,0,400,l,0,3,3,2,0,34,34,26,,,['l'],0,[0.10030456445383606],2018_Jul_09_0617,60.0448814974,go-nogo,001,31,
logos/3.jpg,properties3.xlsx,frogs/ab34.jpg,0,0,400,l,0,3,3,2,0,35,35,33,,,['l'],0,[0.03443430221523158],2018_Jul_09_0617,60.0448814974,go-nogo,001,31,
logos/3.jpg,properties3.xlsx,frogs/ab35.jpg,0,0,400,l,0,3,3,2,0,36,36,34,,,['l'],0,[0.0009844236992648803],2018_Jul_09_0617,60.0448814974,go-nogo,001,31,
logos/3.jpg,properties3.xlsx,frogs/ab23.jpg,0,0,400,l,0,3,3,2,0,37,37,22,,,['l'],0,[0.051034738193266094],2018_Jul_09_0617,60.0448814974,go-nogo,001,31,
logos/3.jpg,properties3.xlsx,frogs/ab74.jpg,0,0,400,l,0,3,3,2,0,38,38,72,,,['l'],0,[0.001039758491970133],2018_Jul_09_0617,60.0448814974,go-nogo,001,31,
logos/3.jpg,properties3.xlsx,frogs/ab7.jpg,0,0,400,l,0,3,3,2,0,39,39,6,,,['l'],0,[0.018333218053157907],2018_Jul_09_0617,60.0448814974,go-nogo,001,31,
logos/3.jpg,properties3.xlsx,frogs/ab71.jpg,0,0,400,l,0,3,3,2,0,40,40,69,,,['l'],0,[0.03437138121080352],2018_Jul_09_0617,60.0448814974,go-nogo,001,31,
logos/3.jpg,properties3.xlsx,frogs/ab77.jpg,0,0,400,l,0,3,3,2,0,41,41,75,,,['l'],0,[0.05087408881081501],2018_Jul_09_0617,60.0448814974,go-nogo,001,31,
logos/3.jpg,properties3.xlsx,frogs/ab78.jpg,0,0,400,l,0,3,3,2,0,42,42,76,,,['l'],0,[0.017682141813565977],2018_Jul_09_0617,60.0448814974,go-nogo,001,31,
logos/3.jpg,properties3.xlsx,frogs/ab61.jpg,0,0,400,l,0,3,3,2,0,43,43,59,,,['l'],0,[0.03369308382389136],2018_Jul_09_0617,60.0448814974,go-nogo,001,31,
logos/3.jpg,properties3.xlsx,frogs/ab51.jpg,0,0,400,l,0,3,3,2,0,44,44,50,,,['l'],0,[0.683344452350866],2018_Jul_09_0617,60.0448814974,go-nogo,001,31,
logos/3.jpg,properties3.xlsx,frogs/ab54.jpg,0,0,400,l,0,3,3,2,0,45,45,53,,,['l'],0,[0.05017347901593894],2018_Jul_09_0617,60.0448814974,go-nogo,001,31,
logos/3.jpg,properties3.xlsx,logos/3.jpg,0,0,400,a,0,3,3,2,0,46,46,80,,,['l'],0,[0.4834738643548917],2018_Jul_09_0617,60.0448814974,go-nogo,001,31,
logos/3.jpg,properties3.xlsx,frogs/ab57.jpg,0,0,400,l,0,3,3,2,0,47,47,56,,,['l'],0,[0.051066868072666693],2018_Jul_09_0617,60.0448814974,go-nogo,001,31,
logos/3.jpg,properties3.xlsx,frogs/ab41.jpg,0,0,400,l,0,3,3,2,0,48,48,40,,,['l'],0,[0.4844837242126232],2018_Jul_09_0617,60.0448814974,go-nogo,001,31,
logos/3.jpg,properties3.xlsx,frogs/ab19.jpg,0,0,400,l,0,3,3,2,0,49,49,18,,,['l'],0,[0.5343644643580774],2018_Jul_09_0617,60.0448814974,go-nogo,001,31,
logos/3.jpg,properties3.xlsx,frogs/ab53.jpg,0,0,400,l,0,3,3,2,0,50,50,52,,,['l'],0,[0.5839899504862842],2018_Jul_09_0617,60.0448814974,go-nogo,001,31,
logos/3.jpg,properties3.xlsx,frogs/ab39.jpg,0,0,400,l,0,3,3,2,0,51,51,38,,,['l'],0,[0.5837141690499266],2018_Jul_09_0617,60.0448814974,go-nogo,001,31,
logos/3.jpg,properties3.xlsx,frogs/ab10.jpg,0,0,400,l,0,3,3,2,0,52,52,9,,,['l'],0,[0.0003445036709308624],2018_Jul_09_0617,60.0448814974,go-nogo,001,31,
logos/3.jpg,properties3.xlsx,frogs/ab33.jpg,0,0,400,l,0,3,3,2,0,53,53,32,,,['l'],0,[0.017864657354948577],2018_Jul_09_0617,60.0448814974,go-nogo,001,31,
logos/3.jpg,properties3.xlsx,frogs/ab45.jpg,0,0,400,l,0,3,3,2,0,54,54,44,,,['l'],0,[0.0009728212462505326],2018_Jul_09_0617,60.0448814974,go-nogo,001,31,
logos/3.jpg,properties3.xlsx,frogs/ab20.jpg,0,0,400,l,0,3,3,2,0,55,55,19,,,['l'],0,[0.00100316612952156],2018_Jul_09_0617,60.0448814974,go-nogo,001,31,
logos/3.jpg,properties3.xlsx,frogs/ab68.jpg,0,0,400,l,0,3,3,2,0,56,56,66,,,['l'],0,[0.01796550946892239],2018_Jul_09_0617,60.0448814974,go-nogo,001,31,
logos/3.jpg,properties3.xlsx,frogs/ab63.jpg,0,0,400,l,0,3,3,2,0,57,57,61,,,['l'],0,[0.5505030333661125],2018_Jul_09_0617,60.0448814974,go-nogo,001,31,
logos/3.jpg,properties3.xlsx,frogs/ab66.jpg,0,0,400,l,0,3,3,2,0,58,58,64,,,['l'],0,[0.017855286139820237],2018_Jul_09_0617,60.0448814974,go-nogo,001,31,
logos/3.jpg,properties3.xlsx,frogs/ab52.jpg,0,0,400,l,0,3,3,2,0,59,59,51,,,['l'],0,[0.0010299410278094001],2018_Jul_09_0617,60.0448814974,go-nogo,001,31,
logos/3.jpg,properties3.xlsx,logos/3.jpg,0,0,400,a,0,3,3,2,0,60,60,88,,,['a'],0,[0.1841140075121075],2018_Jul_09_0617,60.0448814974,go-nogo,001,31,
logos/3.jpg,properties3.xlsx,frogs/ab37.jpg,0,0,400,l,0,3,3,2,0,61,61,36,,,['l'],0,[0.36781434286240255],2018_Jul_09_0617,60.0448814974,go-nogo,001,31,
logos/3.jpg,properties3.xlsx,frogs/ab70.jpg,0,0,400,l,0,3,3,2,0,62,62,68,,,['l'],0,[0.48453325776790734],2018_Jul_09_0617,60.0448814974,go-nogo,001,31,
logos/3.jpg,properties3.xlsx,frogs/ab8.jpg,0,0,400,l,0,3,3,2,0,63,63,7,,,['l'],0,[0.0003476274068816565],2018_Jul_09_0617,60.0448814974,go-nogo,001,31,
logos/3.jpg,properties3.xlsx,frogs/ab32.jpg,0,0,400,l,0,3,3,2,0,64,64,31,,,['l'],0,[0.0010098598577314988],2018_Jul_09_0617,60.0448814974,go-nogo,001,31,
logos/3.jpg,properties3.xlsx,frogs/ab69.jpg,0,0,400,l,0,3,3,2,0,65,65,67,,,['l'],0,[0.4843065636450774],2018_Jul_09_0617,60.0448814974,go-nogo,001,31,
logos/3.jpg,properties3.xlsx,logos/3.jpg,0,0,400,a,0,3,3,2,0,66,66,85,,,['l'],0,[0.35020627826452255],2018_Jul_09_0617,60.0448814974,go-nogo,001,31,
logos/3.jpg,properties3.xlsx,frogs/ab9.jpg,0,0,400,l,0,3,3,2,0,67,67,8,,,['l'],0,[0.1180206211283803],2018_Jul_09_0617,60.0448814974,go-nogo,001,31,
logos/3.jpg,properties3.xlsx,frogs/ab56.jpg,0,0,400,l,0,3,3,2,0,68,68,55,,,['l'],0,[0.8147779580176575],2018_Jul_09_0617,60.0448814974,go-nogo,001,31,
logos/3.jpg,properties3.xlsx,logos/3.jpg,0,0,400,a,0,3,3,2,0,69,69,87,,,['a'],0,[0.051119079122145195],2018_Jul_09_0617,60.0448814974,go-nogo,001,31,
logos/3.jpg,properties3.xlsx,frogs/ab17.jpg,0,0,400,l,0,3,3,2,0,70,70,16,,,['l'],0,[0.8840785307693295],2018_Jul_09_0617,60.0448814974,go-nogo,001,31,
logos/3.jpg,properties3.xlsx,frogs/ab15.jpg,0,0,400,l,0,3,3,2,0,71,71,14,,,['l'],0,[0.084309687379573],2018_Jul_09_0617,60.0448814974,go-nogo,001,31,
logos/3.jpg,properties3.xlsx,frogs/ab81.jpg,0,0,400,l,0,3,3,2,0,72,72,79,,,['l'],0,[0.21798559064336587],2018_Jul_09_0617,60.0448814974,go-nogo,001,31,
logos/3.jpg,properties3.xlsx,frogs/ab64.jpg,0,0,400,l,0,3,3,2,0,73,73,62,,,['l'],0,[0.10124079333763802],2018_Jul_09_0617,60.0448814974,go-nogo,001,31,
logos/3.jpg,properties3.xlsx,frogs/ab38.jpg,0,0,400,l,0,3,3,2,0,74,74,37,,,['l'],0,[0.06788507322198711],2018_Jul_09_0617,60.0448814974,go-nogo,001,31,
logos/3.jpg,properties3.xlsx,frogs/ab72.jpg,0,0,400,l,0,3,3,2,0,75,75,70,,,['l'],0,[0.0671835709217703],2018_Jul_09_0617,60.0448814974,go-nogo,001,31,
logos/3.jpg,properties3.xlsx,frogs/ab21.jpg,0,0,400,l,0,3,3,2,0,76,76,20,,,['l'],0,[1.0009170402117888],2018_Jul_09_0617,60.0448814974,go-nogo,001,31,
logos/3.jpg,properties3.xlsx,frogs/ab46.jpg,0,0,400,l,0,3,3,2,0,77,77,45,,,['l'],0,[0.0010022736314567737],2018_Jul_09_0617,60.0448814974,go-nogo,001,31,
logos/3.jpg,properties3.xlsx,frogs/ab73.jpg,0,0,400,l,0,3,3,2,0,78,78,71,,,['l'],0,[0.40108661456179107],2018_Jul_09_0617,60.0448814974,go-nogo,001,31,
logos/3.jpg,properties3.xlsx,frogs/ab2.jpg,0,0,400,l,0,3,3,2,0,79,79,1,,,['l'],0,[0.7004830637597479],2018_Jul_09_0617,60.0448814974,go-nogo,001,31,
logos/3.jpg,properties3.xlsx,frogs/ab28.jpg,0,0,400,l,0,3,3,2,0,80,80,27,,,['l'],0,[0.15100149269710528],2018_Jul_09_0617,60.0448814974,go-nogo,001,31,
logos/3.jpg,properties3.xlsx,frogs/ab49.jpg,0,0,400,l,0,3,3,2,0,81,81,48,,,['l'],0,[0.01769463676464511],2018_Jul_09_0617,60.0448814974,go-nogo,001,31,
logos/3.jpg,properties3.xlsx,frogs/ab6.jpg,0,0,400,l,0,3,3,2,0,82,82,5,,,['l'],0,[0.01761475832608994],2018_Jul_09_0617,60.0448814974,go-nogo,001,31,
logos/3.jpg,properties3.xlsx,frogs/ab12.jpg,0,0,400,l,0,3,3,2,0,83,83,11,,,['l'],0,[0.03430712145200232],2018_Jul_09_0617,60.0448814974,go-nogo,001,31,
logos/3.jpg,properties3.xlsx,frogs/ab76.jpg,0,0,400,l,0,3,3,2,0,84,84,74,,,['l'],0,[0.0509445960415178],2018_Jul_09_0617,60.0448814974,go-nogo,001,31,
logos/3.jpg,properties3.xlsx,frogs/ab25.jpg,0,0,400,l,0,3,3,2,0,85,85,24,,,['l'],0,[0.034233044236316346],2018_Jul_09_0617,60.0448814974,go-nogo,001,31,
logos/3.jpg,properties3.xlsx,frogs/ab40.jpg,0,0,400,l,0,3,3,2,0,86,86,39,,,['l'],0,[0.8175790584646165],2018_Jul_09_0617,60.0448814974,go-nogo,001,31,
logos/3.jpg,properties3.xlsx,frogs/ab65.jpg,0,0,400,l,0,3,3,2,0,87,87,63,,,['l'],0,[0.08427443376422161],2018_Jul_09_0617,60.0448814974,go-nogo,001,31,
logos/3.jpg,properties3.xlsx,frogs/ab22.jpg,0,0,400,l,0,3,3,2,0,88,88,21,,,['l'],0,[0.05135603695816826],2018_Jul_09_0617,60.0448814974,go-nogo,001,31,
logos/3.jpg,properties3.xlsx,frogs/ab60.jpg,0,0,400,l,0,3,3,2,0,89,89,58,,,['l'],0,[0.0678011785421404],2018_Jul_09_0617,60.0448814974,go-nogo,001,31,
logos/3.jpg,properties3.xlsx,,,,,,0,3,3,2,,,,,,,,,,2018_Jul_09_0617,60.0448814974,go-nogo,001,31,
