pix,source,image1,x,y,size,answer,trials_2.thisRepN,trials_2.thisTrialN,trials_2.thisN,trials_2.thisIndex,trials.thisRepN,trials.thisTrialN,trials.thisN,trials.thisIndex,key_resp_3.keys,key_resp_3.rt,key_resp_2.keys,key_resp_2.corr,key_resp_2.rt,date,frameRate,expName,session,participant,
logos/3.jpg,properties3.xlsx,frogs/ab33.jpg,0,0,400,l,0,0,0,2,0,0,0,32,space,2.24000589369,['l'],0,[0.937691253495359],2018_Jul_09_1318,60.0080906976,go-nogo,001,32,
logos/3.jpg,properties3.xlsx,frogs/ab68.jpg,0,0,400,l,0,0,0,2,0,1,1,66,,,['l'],0,[0.41771043644621386],2018_Jul_09_1318,60.0080906976,go-nogo,001,32,
logos/3.jpg,properties3.xlsx,frogs/ab54.jpg,0,0,400,l,0,0,0,2,0,2,2,53,,,['l'],0,[0.01764012171952345],2018_Jul_09_1318,60.0080906976,go-nogo,001,32,
logos/3.jpg,properties3.xlsx,frogs/ab79.jpg,0,0,400,l,0,0,0,2,0,3,3,77,,,['l'],0,[1.6667281067202566],2018_Jul_09_1318,60.0080906976,go-nogo,001,32,
logos/3.jpg,properties3.xlsx,frogs/ab47.jpg,0,0,400,l,0,0,0,2,0,4,4,46,,,['l'],0,[2.2830600104334735],2018_Jul_09_1318,60.0080906976,go-nogo,001,32,
logos/3.jpg,properties3.xlsx,logos/3.jpg,0,0,400,a,0,0,0,2,0,5,5,86,,,['a'],0,[0.7174098921896075],2018_Jul_09_1318,60.0080906976,go-nogo,001,32,
logos/3.jpg,properties3.xlsx,frogs/ab23.jpg,0,0,400,l,0,0,0,2,0,6,6,22,,,['l'],0,[0.08431623194883286],2018_Jul_09_1318,60.0080906976,go-nogo,001,32,
logos/3.jpg,properties3.xlsx,frogs/ab51.jpg,0,0,400,l,0,0,0,2,0,7,7,50,,,['l'],0,[0.08435207197908312],2018_Jul_09_1318,60.0080906976,go-nogo,001,32,
logos/3.jpg,properties3.xlsx,frogs/ab45.jpg,0,0,400,l,0,0,0,2,0,8,8,44,,,['l'],0,[0.017009223403874785],2018_Jul_09_1318,60.0080906976,go-nogo,001,32,
logos/3.jpg,properties3.xlsx,frogs/ab42.jpg,0,0,400,l,0,0,0,2,0,9,9,41,,,['l'],0,[1.8335065601477254],2018_Jul_09_1318,60.0080906976,go-nogo,001,32,
logos/3.jpg,properties3.xlsx,frogs/ab52.jpg,0,0,400,l,0,0,0,2,0,10,10,51,,,['l'],0,[0.10100346396757232],2018_Jul_09_1318,60.0080906976,go-nogo,001,32,
logos/3.jpg,properties3.xlsx,logos/3.jpg,0,0,400,a,0,0,0,2,0,11,11,80,,,['a'],0,[0.06770978222266422],2018_Jul_09_1318,60.0080906976,go-nogo,001,32,
logos/3.jpg,properties3.xlsx,frogs/ab77.jpg,0,0,400,l,0,0,0,2,0,12,12,75,,,['l'],0,[1.5334560996598157],2018_Jul_09_1318,60.0080906976,go-nogo,001,32,
logos/3.jpg,properties3.xlsx,frogs/ab69.jpg,0,0,400,l,0,0,0,2,0,13,13,67,,,['l'],0,[0.6841463615819521],2018_Jul_09_1318,60.0080906976,go-nogo,001,32,
logos/3.jpg,properties3.xlsx,frogs/ab21.jpg,0,0,400,l,0,0,0,2,0,14,14,20,,,['l'],0,[0.0011019387184205698],2018_Jul_09_1318,60.0080906976,go-nogo,001,32,
logos/3.jpg,properties3.xlsx,frogs/ab30.jpg,0,0,400,l,0,0,0,2,0,15,15,29,,,['l'],0,[0.08542727289750474],2018_Jul_09_1318,60.0080906976,go-nogo,001,32,
logos/3.jpg,properties3.xlsx,frogs/ab48.jpg,0,0,400,l,0,0,0,2,0,16,16,47,,,['l'],0,[0.8671648999807076],2018_Jul_09_1318,60.0080906976,go-nogo,001,32,
logos/3.jpg,properties3.xlsx,frogs/ab2.jpg,0,0,400,l,0,0,0,2,0,17,17,1,,,['l'],0,[0.4009020309913467],2018_Jul_09_1318,60.0080906976,go-nogo,001,32,
logos/3.jpg,properties3.xlsx,frogs/ab12.jpg,0,0,400,l,0,0,0,2,0,18,18,11,,,['l'],0,[0.2836920465288131],2018_Jul_09_1318,60.0080906976,go-nogo,001,32,
logos/3.jpg,properties3.xlsx,frogs/ab14.jpg,0,0,400,l,0,0,0,2,0,19,19,13,,,['l'],0,[0.30085543895256706],2018_Jul_09_1318,60.0080906976,go-nogo,001,32,
logos/3.jpg,properties3.xlsx,frogs/ab24.jpg,0,0,400,l,0,0,0,2,0,20,20,23,,,['l'],0,[0.3675196025051264],2018_Jul_09_1318,60.0080906976,go-nogo,001,32,
logos/3.jpg,properties3.xlsx,frogs/ab1.jpg,0,0,400,l,0,0,0,2,0,21,21,0,,,['l'],0,[0.2857354971620225],2018_Jul_09_1318,60.0080906976,go-nogo,001,32,
logos/3.jpg,properties3.xlsx,frogs/ab41.jpg,0,0,400,l,0,0,0,2,0,22,22,40,,,['l'],0,[0.3006711187936162],2018_Jul_09_1318,60.0080906976,go-nogo,001,32,
logos/3.jpg,properties3.xlsx,frogs/ab35.jpg,0,0,400,l,0,0,0,2,0,23,23,34,,,['l'],0,[0.20080031357247208],2018_Jul_09_1318,60.0080906976,go-nogo,001,32,
logos/3.jpg,properties3.xlsx,frogs/ab34.jpg,0,0,400,l,0,0,0,2,0,24,24,33,,,['l'],0,[0.3344216187069833],2018_Jul_09_1318,60.0080906976,go-nogo,001,32,
logos/3.jpg,properties3.xlsx,frogs/ab80.jpg,0,0,400,l,0,0,0,2,0,25,25,78,,,['l'],0,[0.3008799011950032],2018_Jul_09_1318,60.0080906976,go-nogo,001,32,
logos/3.jpg,properties3.xlsx,frogs/ab73.jpg,0,0,400,l,0,0,0,2,0,26,26,71,,,['l'],0,[0.26762945504378877],2018_Jul_09_1318,60.0080906976,go-nogo,001,32,
logos/3.jpg,properties3.xlsx,frogs/ab60.jpg,0,0,400,l,0,0,0,2,0,27,27,58,,,['l'],0,[0.28429165592751815],2018_Jul_09_1318,60.0080906976,go-nogo,001,32,
logos/3.jpg,properties3.xlsx,frogs/ab75.jpg,0,0,400,l,0,0,0,2,0,28,28,73,,,['l'],0,[0.23432894662801118],2018_Jul_09_1318,60.0080906976,go-nogo,001,32,
logos/3.jpg,properties3.xlsx,frogs/ab63.jpg,0,0,400,l,0,0,0,2,0,29,29,61,,,['l'],0,[0.3177161822295602],2018_Jul_09_1318,60.0080906976,go-nogo,001,32,
logos/3.jpg,properties3.xlsx,frogs/ab25.jpg,0,0,400,l,0,0,0,2,0,30,30,24,,,['l'],0,[0.18416200604042388],2018_Jul_09_1318,60.0080906976,go-nogo,001,32,
logos/3.jpg,properties3.xlsx,logos/3.jpg,0,0,400,a,0,0,0,2,0,31,31,88,,,['a'],0,[0.033591210885788314],2018_Jul_09_1318,60.0080906976,go-nogo,001,32,
logos/3.jpg,properties3.xlsx,frogs/ab40.jpg,0,0,400,l,0,0,0,2,0,32,32,39,,,['l'],0,[0.10088570386687934],2018_Jul_09_1318,60.0080906976,go-nogo,001,32,
logos/3.jpg,properties3.xlsx,frogs/ab66.jpg,0,0,400,l,0,0,0,2,0,33,33,64,,,['l'],0,[0.184121046006112],2018_Jul_09_1318,60.0080906976,go-nogo,001,32,
logos/3.jpg,properties3.xlsx,logos/3.jpg,0,0,400,a,0,0,0,2,0,34,34,85,,,['a'],0,[0.08433329863146355],2018_Jul_09_1318,60.0080906976,go-nogo,001,32,
logos/3.jpg,properties3.xlsx,frogs/ab19.jpg,0,0,400,l,0,0,0,2,0,35,35,18,,,['l'],0,[0.0178039618585899],2018_Jul_09_1318,60.0080906976,go-nogo,001,32,
logos/3.jpg,properties3.xlsx,frogs/ab70.jpg,0,0,400,l,0,0,0,2,0,36,36,68,,,['l'],0,[0.456681065255907],2018_Jul_09_1318,60.0080906976,go-nogo,001,32,
logos/3.jpg,properties3.xlsx,frogs/ab27.jpg,0,0,400,l,0,0,0,2,0,37,37,26,,,['a'],0,[0.0691103878634749],2018_Jul_09_1318,60.0080906976,go-nogo,001,32,
logos/3.jpg,properties3.xlsx,logos/3.jpg,0,0,400,a,0,0,0,2,0,38,38,84,,,['a'],0,[0.134329003514722],2018_Jul_09_1318,60.0080906976,go-nogo,001,32,
logos/3.jpg,properties3.xlsx,frogs/ab46.jpg,0,0,400,l,0,0,0,2,0,39,39,45,,,['l'],0,[1.2004703577349574],2018_Jul_09_1318,60.0080906976,go-nogo,001,32,
logos/3.jpg,properties3.xlsx,frogs/ab8.jpg,0,0,400,l,0,0,0,2,0,40,40,7,,,['l'],0,[0.5340511579452141],2018_Jul_09_1318,60.0080906976,go-nogo,001,32,
logos/3.jpg,properties3.xlsx,frogs/ab16.jpg,0,0,400,l,0,0,0,2,0,41,41,15,,,['l'],0,[0.3340649250694696],2018_Jul_09_1318,60.0080906976,go-nogo,001,32,
logos/3.jpg,properties3.xlsx,frogs/ab58.jpg,0,0,400,l,0,0,0,2,0,42,42,57,,,['l'],0,[0.30096637238057156],2018_Jul_09_1318,60.0080906976,go-nogo,001,32,
logos/3.jpg,properties3.xlsx,frogs/ab74.jpg,0,0,400,l,0,0,0,2,0,43,43,72,,,['l'],0,[0.20093684702260362],2018_Jul_09_1318,60.0080906976,go-nogo,001,32,
logos/3.jpg,properties3.xlsx,logos/3.jpg,0,0,400,a,0,0,0,2,0,44,44,83,,,['a'],0,[0.5342548203425395],2018_Jul_09_1318,60.0080906976,go-nogo,001,32,
logos/3.jpg,properties3.xlsx,frogs/ab72.jpg,0,0,400,l,0,0,0,2,0,45,45,70,,,['l'],0,[0.06802153359967633],2018_Jul_09_1318,60.0080906976,go-nogo,001,32,
logos/3.jpg,properties3.xlsx,frogs/ab39.jpg,0,0,400,l,0,0,0,2,0,46,46,38,,,['l'],0,[0.2677153573404212],2018_Jul_09_1318,60.0080906976,go-nogo,001,32,
logos/3.jpg,properties3.xlsx,frogs/ab10.jpg,0,0,400,l,0,0,0,2,0,47,47,9,,,['l'],0,[0.3009919724026986],2018_Jul_09_1318,60.0080906976,go-nogo,001,32,
logos/3.jpg,properties3.xlsx,frogs/ab9.jpg,0,0,400,l,0,0,0,2,0,48,48,8,,,['l'],0,[0.40087643096921965],2018_Jul_09_1318,60.0080906976,go-nogo,001,32,
logos/3.jpg,properties3.xlsx,frogs/ab5.jpg,0,0,400,l,0,0,0,2,0,49,49,4,,,['l'],0,[0.3509996239645261],2018_Jul_09_1318,60.0080906976,go-nogo,001,32,
logos/3.jpg,properties3.xlsx,frogs/ab26.jpg,0,0,400,l,0,0,0,2,0,50,50,25,,,['l'],0,[0.18423141054518055],2018_Jul_09_1318,60.0080906976,go-nogo,001,32,
logos/3.jpg,properties3.xlsx,logos/3.jpg,0,0,400,a,0,0,0,2,0,51,51,82,,,['a'],0,[0.11764689150186314],2018_Jul_09_1318,60.0080906976,go-nogo,001,32,
logos/3.jpg,properties3.xlsx,frogs/ab11.jpg,0,0,400,l,0,0,0,2,0,52,52,10,,,['l'],0,[0.05099979463193449],2018_Jul_09_1318,60.0080906976,go-nogo,001,32,
logos/3.jpg,properties3.xlsx,frogs/ab61.jpg,0,0,400,l,0,0,0,2,0,53,53,59,,,['l'],0,[0.267496334929092],2018_Jul_09_1318,60.0080906976,go-nogo,001,32,
logos/3.jpg,properties3.xlsx,frogs/ab81.jpg,0,0,400,l,0,0,0,2,0,54,54,79,,,['l'],0,[0.4340352859326231],2018_Jul_09_1318,60.0080906976,go-nogo,001,32,
logos/3.jpg,properties3.xlsx,frogs/ab50.jpg,0,0,400,l,0,0,0,2,0,55,55,49,,,['l'],0,[0.33417016960265755],2018_Jul_09_1318,60.0080906976,go-nogo,001,32,
logos/3.jpg,properties3.xlsx,frogs/ab71.jpg,0,0,400,l,0,0,0,2,0,56,56,69,,,['l'],0,[0.36763906927444623],2018_Jul_09_1318,60.0080906976,go-nogo,001,32,
logos/3.jpg,properties3.xlsx,frogs/ab78.jpg,0,0,400,l,0,0,0,2,0,57,57,76,,,['l'],0,[0.3834439538732113],2018_Jul_09_1318,60.0080906976,go-nogo,001,32,
logos/3.jpg,properties3.xlsx,frogs/ab17.jpg,0,0,400,l,0,0,0,2,0,58,58,16,,,['l'],0,[0.28402257125344477],2018_Jul_09_1318,60.0080906976,go-nogo,001,32,
logos/3.jpg,properties3.xlsx,frogs/ab36.jpg,0,0,400,l,0,0,0,2,0,59,59,35,,,['l'],0,[0.28433432263227587],2018_Jul_09_1318,60.0080906976,go-nogo,001,32,
logos/3.jpg,properties3.xlsx,frogs/ab56.jpg,0,0,400,l,0,0,0,2,0,60,60,55,,,['l'],0,[0.3674029801841243],2018_Jul_09_1318,60.0080906976,go-nogo,001,32,
logos/3.jpg,properties3.xlsx,frogs/ab22.jpg,0,0,400,l,0,0,0,2,0,61,61,21,,,['l'],0,[0.01780339296965394],2018_Jul_09_1318,60.0080906976,go-nogo,001,32,
logos/3.jpg,properties3.xlsx,frogs/ab53.jpg,0,0,400,l,0,0,0,2,0,62,62,52,,,['l'],0,[0.3021547822845605],2018_Jul_09_1318,60.0080906976,go-nogo,001,32,
logos/3.jpg,properties3.xlsx,frogs/ab65.jpg,0,0,400,l,0,0,0,2,0,63,63,63,,,['l'],0,[0.33422990298822697],2018_Jul_09_1318,60.0080906976,go-nogo,001,32,
logos/3.jpg,properties3.xlsx,frogs/ab49.jpg,0,0,400,l,0,0,0,2,0,64,64,48,,,['l'],0,[0.13548555561465037],2018_Jul_09_1318,60.0080906976,go-nogo,001,32,
logos/3.jpg,properties3.xlsx,logos/3.jpg,0,0,400,a,0,0,0,2,0,65,65,81,,,['a'],0,[0.03423178032244323],2018_Jul_09_1318,60.0080906976,go-nogo,001,32,
logos/3.jpg,properties3.xlsx,frogs/ab62.jpg,0,0,400,l,0,0,0,2,0,66,66,60,,,['l'],0,[0.01773626402427908],2018_Jul_09_1318,60.0080906976,go-nogo,001,32,
logos/3.jpg,properties3.xlsx,frogs/ab6.jpg,0,0,400,l,0,0,0,2,0,67,67,5,,,['l'],0,[0.05086041673348518],2018_Jul_09_1318,60.0080906976,go-nogo,001,32,
logos/3.jpg,properties3.xlsx,frogs/ab31.jpg,0,0,400,l,0,0,0,2,0,68,68,30,,,['l'],0,[0.016941525567744975],2018_Jul_09_1318,60.0080906976,go-nogo,001,32,
logos/3.jpg,properties3.xlsx,logos/3.jpg,0,0,400,a,0,0,0,2,0,69,69,87,,,['a'],0,[0.08369955586749711],2018_Jul_09_1318,60.0080906976,go-nogo,001,32,
logos/3.jpg,properties3.xlsx,frogs/ab43.jpg,0,0,400,l,0,0,0,2,0,70,70,42,,,['l'],0,[1.3855926490377897],2018_Jul_09_1318,60.0080906976,go-nogo,001,32,
logos/3.jpg,properties3.xlsx,frogs/ab7.jpg,0,0,400,l,0,0,0,2,0,71,71,6,,,['l'],0,[0.36747807358187856],2018_Jul_09_1318,60.0080906976,go-nogo,001,32,
logos/3.jpg,properties3.xlsx,frogs/ab64.jpg,0,0,400,l,0,0,0,2,0,72,72,62,,,['l'],0,[0.06692016377201071],2018_Jul_09_1318,60.0080906976,go-nogo,001,32,
logos/3.jpg,properties3.xlsx,logos/3.jpg,0,0,400,a,0,0,0,2,0,73,73,89,,,['a'],0,[0.051012879086556495],2018_Jul_09_1318,60.0080906976,go-nogo,001,32,
logos/3.jpg,properties3.xlsx,frogs/ab44.jpg,0,0,400,l,0,0,0,2,0,74,74,43,,,['l'],0,[0.8352996994563],2018_Jul_09_1318,60.0080906976,go-nogo,001,32,
logos/3.jpg,properties3.xlsx,frogs/ab37.jpg,0,0,400,l,0,0,0,2,0,75,75,36,,,['l'],0,[0.06754651097253372],2018_Jul_09_1318,60.0080906976,go-nogo,001,32,
logos/3.jpg,properties3.xlsx,frogs/ab20.jpg,0,0,400,l,0,0,0,2,0,76,76,19,,,['l'],0,[0.06769897332560504],2018_Jul_09_1318,60.0080906976,go-nogo,001,32,
logos/3.jpg,properties3.xlsx,frogs/ab4.jpg,0,0,400,l,0,0,0,2,0,77,77,3,,,['l'],0,[0.06776610227279889],2018_Jul_09_1318,60.0080906976,go-nogo,001,32,
logos/3.jpg,properties3.xlsx,frogs/ab57.jpg,0,0,400,l,0,0,0,2,0,78,78,56,,,['l'],0,[0.05104758133893483],2018_Jul_09_1318,60.0080906976,go-nogo,001,32,
logos/3.jpg,properties3.xlsx,frogs/ab28.jpg,0,0,400,l,0,0,0,2,0,79,79,27,,,['l'],0,[0.1676408897201327],2018_Jul_09_1318,60.0080906976,go-nogo,001,32,
logos/3.jpg,properties3.xlsx,frogs/ab67.jpg,0,0,400,l,0,0,0,2,0,80,80,65,,,['l'],0,[0.15094171102646214],2018_Jul_09_1318,60.0080906976,go-nogo,001,32,
logos/3.jpg,properties3.xlsx,frogs/ab18.jpg,0,0,400,l,0,0,0,2,0,81,81,17,,,['l'],0,[0.20080714024516055],2018_Jul_09_1318,60.0080906976,go-nogo,001,32,
logos/3.jpg,properties3.xlsx,frogs/ab76.jpg,0,0,400,l,0,0,0,2,0,82,82,74,,,['l'],0,[0.06741225307996501],2018_Jul_09_1318,60.0080906976,go-nogo,001,32,
logos/3.jpg,properties3.xlsx,frogs/ab29.jpg,0,0,400,l,0,0,0,2,0,83,83,28,,,['l'],0,[0.0174711615745764],2018_Jul_09_1318,60.0080906976,go-nogo,001,32,
logos/3.jpg,properties3.xlsx,frogs/ab38.jpg,0,0,400,l,0,0,0,2,0,84,84,37,,,['l'],0,[0.0006439827720896574],2018_Jul_09_1318,60.0080906976,go-nogo,001,32,
logos/3.jpg,properties3.xlsx,frogs/ab15.jpg,0,0,400,l,0,0,0,2,0,85,85,14,,,['l'],0,[0.7674607793433097],2018_Jul_09_1318,60.0080906976,go-nogo,001,32,
logos/3.jpg,properties3.xlsx,frogs/ab3.jpg,0,0,400,l,0,0,0,2,0,86,86,2,,,['l'],0,[0.08431338750233408],2018_Jul_09_1318,60.0080906976,go-nogo,001,32,
logos/3.jpg,properties3.xlsx,frogs/ab32.jpg,0,0,400,l,0,0,0,2,0,87,87,31,,,['l'],0,[0.03445649162495101],2018_Jul_09_1318,60.0080906976,go-nogo,001,32,
logos/3.jpg,properties3.xlsx,frogs/ab13.jpg,0,0,400,l,0,0,0,2,0,88,88,12,,,['l'],0,[0.034276722582944785],2018_Jul_09_1318,60.0080906976,go-nogo,001,32,
logos/3.jpg,properties3.xlsx,frogs/ab55.jpg,0,0,400,l,0,0,0,2,0,89,89,54,,,['l'],0,[0.0509867101754935],2018_Jul_09_1318,60.0080906976,go-nogo,001,32,
logos/3.jpg,properties3.xlsx,,,,,,0,0,0,2,,,,,,,,,,2018_Jul_09_1318,60.0080906976,go-nogo,001,32,
logos/4.jpg,properties4.xlsx,frogs/ab36.jpg,0,0,400,l,0,1,1,3,0,0,0,35,space,2.42830258771,['l'],0,[2.533020330398358],2018_Jul_09_1318,60.0080906976,go-nogo,001,32,
logos/4.jpg,properties4.xlsx,frogs/ab60.jpg,0,0,400,l,0,1,1,3,0,1,1,58,,,['l'],0,[0.684017223695264],2018_Jul_09_1318,60.0080906976,go-nogo,001,32,
logos/4.jpg,properties4.xlsx,frogs/ab64.jpg,0,0,400,l,0,1,1,3,0,2,2,62,,,['l'],0,[0.4174032361843274],2018_Jul_09_1318,60.0080906976,go-nogo,001,32,
logos/4.jpg,properties4.xlsx,frogs/ab39.jpg,0,0,400,l,0,1,1,3,0,3,3,38,,,['l'],0,[0.33431239194760565],2018_Jul_09_1318,60.0080906976,go-nogo,001,32,
logos/4.jpg,properties4.xlsx,frogs/ab79.jpg,0,0,400,l,0,1,1,3,0,4,4,77,,,['l'],0,[0.317549497642176],2018_Jul_09_1318,60.0080906976,go-nogo,001,32,
logos/4.jpg,properties4.xlsx,frogs/ab5.jpg,0,0,400,l,0,1,1,3,0,5,5,4,,,['l'],0,[0.3175859065631812],2018_Jul_09_1318,60.0080906976,go-nogo,001,32,
logos/4.jpg,properties4.xlsx,frogs/ab2.jpg,0,0,400,l,0,1,1,3,0,6,6,1,,,['l'],0,[0.13424423899778049],2018_Jul_09_1318,60.0080906976,go-nogo,001,32,
logos/4.jpg,properties4.xlsx,frogs/ab18.jpg,0,0,400,l,0,1,1,3,0,7,7,17,,,['l'],0,[0.3342464007801027],2018_Jul_09_1318,60.0080906976,go-nogo,001,32,
logos/4.jpg,properties4.xlsx,frogs/ab40.jpg,0,0,400,l,0,1,1,3,0,8,8,39,,,['l'],0,[0.034310855944568175],2018_Jul_09_1318,60.0080906976,go-nogo,001,32,
logos/4.jpg,properties4.xlsx,frogs/ab29.jpg,0,0,400,l,0,1,1,3,0,9,9,28,,,['l'],0,[1.3502987522551848],2018_Jul_09_1318,60.0080906976,go-nogo,001,32,
logos/4.jpg,properties4.xlsx,frogs/ab13.jpg,0,0,400,l,0,1,1,3,0,10,10,12,,,['l'],0,[0.48424318655452225],2018_Jul_09_1318,60.0080906976,go-nogo,001,32,
logos/4.jpg,properties4.xlsx,logos/4.jpg,0,0,400,a,0,1,1,3,0,11,11,89,,,['a'],0,[0.08432192084364942],2018_Jul_09_1318,60.0080906976,go-nogo,001,32,
logos/4.jpg,properties4.xlsx,frogs/ab70.jpg,0,0,400,l,0,1,1,3,0,12,12,68,,,['l'],0,[0.35066625478975766],2018_Jul_09_1318,60.0080906976,go-nogo,001,32,
logos/4.jpg,properties4.xlsx,logos/4.jpg,0,0,400,a,0,1,1,3,0,13,13,81,,,['a'],0,[0.03448778054007562],2018_Jul_09_1318,60.0080906976,go-nogo,001,32,
logos/4.jpg,properties4.xlsx,frogs/ab23.jpg,0,0,400,l,0,1,1,3,0,14,14,22,,,['l'],0,[0.534038642379528],2018_Jul_09_1318,60.0080906976,go-nogo,001,32,
logos/4.jpg,properties4.xlsx,frogs/ab51.jpg,0,0,400,l,0,1,1,3,0,15,15,50,,,['l'],0,[0.7006026245144312],2018_Jul_09_1318,60.0080906976,go-nogo,001,32,
logos/4.jpg,properties4.xlsx,frogs/ab1.jpg,0,0,400,l,0,1,1,3,0,16,16,0,,,['l'],0,[0.3842398301057983],2018_Jul_09_1318,60.0080906976,go-nogo,001,32,
logos/4.jpg,properties4.xlsx,frogs/ab27.jpg,0,0,400,l,0,1,1,3,0,17,17,26,,,['l'],0,[0.3341787029439729],2018_Jul_09_1318,60.0080906976,go-nogo,001,32,
logos/4.jpg,properties4.xlsx,frogs/ab30.jpg,0,0,400,l,0,1,1,3,0,18,18,29,,,['l'],0,[0.33424867633766553],2018_Jul_09_1318,60.0080906976,go-nogo,001,32,
logos/4.jpg,properties4.xlsx,frogs/ab62.jpg,0,0,400,l,0,1,1,3,0,19,19,60,,,['l'],0,[0.3509330639062682],2018_Jul_09_1318,60.0080906976,go-nogo,001,32,
logos/4.jpg,properties4.xlsx,frogs/ab38.jpg,0,0,400,l,0,1,1,3,0,20,20,37,,,['l'],0,[0.2841528469216428],2018_Jul_09_1318,60.0080906976,go-nogo,001,32,
logos/4.jpg,properties4.xlsx,frogs/ab22.jpg,0,0,400,l,0,1,1,3,0,21,21,21,,,['l'],0,[0.2843485448665888],2018_Jul_09_1318,60.0080906976,go-nogo,001,32,
logos/4.jpg,properties4.xlsx,frogs/ab25.jpg,0,0,400,l,0,1,1,3,0,22,22,24,,,['l'],0,[0.3010716169137595],2018_Jul_09_1318,60.0080906976,go-nogo,001,32,
logos/4.jpg,properties4.xlsx,frogs/ab4.jpg,0,0,400,l,0,1,1,3,0,23,23,3,,,['l'],0,[0.31755632431486447],2018_Jul_09_1318,60.0080906976,go-nogo,001,32,
logos/4.jpg,properties4.xlsx,frogs/ab57.jpg,0,0,400,l,0,1,1,3,0,24,24,56,,,['l'],0,[0.28422623365077015],2018_Jul_09_1318,60.0080906976,go-nogo,001,32,
logos/4.jpg,properties4.xlsx,frogs/ab73.jpg,0,0,400,l,0,1,1,3,0,25,25,71,,,['l'],0,[0.3508238371468906],2018_Jul_09_1318,60.0080906976,go-nogo,001,32,
logos/4.jpg,properties4.xlsx,frogs/ab69.jpg,0,0,400,l,0,1,1,3,0,26,26,67,,,['l'],0,[1.2334716303412279],2018_Jul_09_1318,60.0080906976,go-nogo,001,32,
logos/4.jpg,properties4.xlsx,frogs/ab63.jpg,0,0,400,l,0,1,1,3,0,27,27,61,,,['l'],0,[0.3340928006473405],2018_Jul_09_1318,60.0080906976,go-nogo,001,32,
logos/4.jpg,properties4.xlsx,frogs/ab41.jpg,0,0,400,l,0,1,1,3,0,28,28,40,,,['l'],0,[0.3841550655906758],2018_Jul_09_1318,60.0080906976,go-nogo,001,32,
logos/4.jpg,properties4.xlsx,frogs/ab76.jpg,0,0,400,l,0,1,1,3,0,29,29,74,,,['l'],0,[0.3173850886123546],2018_Jul_09_1318,60.0080906976,go-nogo,001,32,
logos/4.jpg,properties4.xlsx,frogs/ab33.jpg,0,0,400,l,0,1,1,3,0,30,30,32,,,['l'],0,[0.28384621554869227],2018_Jul_09_1318,60.0080906976,go-nogo,001,32,
logos/4.jpg,properties4.xlsx,frogs/ab10.jpg,0,0,400,l,0,1,1,3,0,31,31,9,,,['l'],0,[0.5338742333497066],2018_Jul_09_1318,60.0080906976,go-nogo,001,32,
logos/4.jpg,properties4.xlsx,frogs/ab52.jpg,0,0,400,l,0,1,1,3,0,32,32,51,,,['l'],0,[0.7009820737275732],2018_Jul_09_1318,60.0080906976,go-nogo,001,32,
logos/4.jpg,properties4.xlsx,frogs/ab28.jpg,0,0,400,l,0,1,1,3,0,33,33,27,,,['l'],0,[0.7674209570886887],2018_Jul_09_1318,60.0080906976,go-nogo,001,32,
logos/4.jpg,properties4.xlsx,frogs/ab32.jpg,0,0,400,l,0,1,1,3,0,34,34,31,,,['l'],0,[0.48413111534682685],2018_Jul_09_1318,60.0080906976,go-nogo,001,32,
logos/4.jpg,properties4.xlsx,frogs/ab47.jpg,0,0,400,l,0,1,1,3,0,35,35,46,,,['l'],0,[0.1842962639329926],2018_Jul_09_1318,60.0080906976,go-nogo,001,32,
logos/4.jpg,properties4.xlsx,frogs/ab17.jpg,0,0,400,l,0,1,1,3,0,36,36,16,,,['l'],0,[0.017450112667575013],2018_Jul_09_1318,60.0080906976,go-nogo,001,32,
logos/4.jpg,properties4.xlsx,logos/4.jpg,0,0,400,a,0,1,1,3,0,37,37,85,,,['a'],0,[0.035083407716228976],2018_Jul_09_1318,60.0080906976,go-nogo,001,32,
logos/4.jpg,properties4.xlsx,frogs/ab45.jpg,0,0,400,l,0,1,1,3,0,38,38,44,,,['l'],0,[1.4837277727820037],2018_Jul_09_1318,60.0080906976,go-nogo,001,32,
logos/4.jpg,properties4.xlsx,frogs/ab75.jpg,0,0,400,l,0,1,1,3,0,39,39,73,,,['l'],0,[0.0690387078011554],2018_Jul_09_1318,60.0080906976,go-nogo,001,32,
logos/4.jpg,properties4.xlsx,frogs/ab31.jpg,0,0,400,l,0,1,1,3,0,40,40,30,,,['l'],0,[0.05097021238361776],2018_Jul_09_1318,60.0080906976,go-nogo,001,32,
logos/4.jpg,properties4.xlsx,logos/4.jpg,0,0,400,a,0,1,1,3,0,41,41,88,,,['a'],0,[0.00038172477070474997],2018_Jul_09_1318,60.0080906976,go-nogo,001,32,
logos/4.jpg,properties4.xlsx,frogs/ab61.jpg,0,0,400,l,0,1,1,3,0,42,42,59,,,['l'],0,[0.8006202031956491],2018_Jul_09_1318,60.0080906976,go-nogo,001,32,
logos/4.jpg,properties4.xlsx,logos/4.jpg,0,0,400,a,0,1,1,3,0,43,43,84,,,['a'],0,[0.06771376444885391],2018_Jul_09_1318,60.0080906976,go-nogo,001,32,
logos/4.jpg,properties4.xlsx,frogs/ab37.jpg,0,0,400,l,0,1,1,3,0,44,44,36,,,['l'],0,[0.9172021337908518],2018_Jul_09_1318,60.0080906976,go-nogo,001,32,
logos/4.jpg,properties4.xlsx,frogs/ab56.jpg,0,0,400,l,0,1,1,3,0,45,45,55,,,['l'],0,[0.13428463014497538],2018_Jul_09_1318,60.0080906976,go-nogo,001,32,
logos/4.jpg,properties4.xlsx,frogs/ab35.jpg,0,0,400,l,0,1,1,3,0,46,46,34,,,['l'],0,[0.08362048024537216],2018_Jul_09_1318,60.0080906976,go-nogo,001,32,
logos/4.jpg,properties4.xlsx,frogs/ab50.jpg,0,0,400,l,0,1,1,3,0,47,47,49,,,['l'],0,[0.05078816778222972],2018_Jul_09_1318,60.0080906976,go-nogo,001,32,
logos/4.jpg,properties4.xlsx,frogs/ab58.jpg,0,0,400,l,0,1,1,3,0,48,48,57,,,['l'],0,[0.01768733953758783],2018_Jul_09_1318,60.0080906976,go-nogo,001,32,
logos/4.jpg,properties4.xlsx,frogs/ab46.jpg,0,0,400,l,0,1,1,3,0,49,49,45,,,['l'],0,[0.10071731261268724],2018_Jul_09_1318,60.0080906976,go-nogo,001,32,
logos/4.jpg,properties4.xlsx,frogs/ab80.jpg,0,0,400,l,0,1,1,3,0,50,50,78,,,['l'],0,[0.017583801671207766],2018_Jul_09_1318,60.0080906976,go-nogo,001,32,
logos/4.jpg,properties4.xlsx,logos/4.jpg,0,0,400,a,0,1,1,3,0,51,51,80,,,['a'],0,[0.017572992774148588],2018_Jul_09_1318,60.0080906976,go-nogo,001,32,
logos/4.jpg,properties4.xlsx,frogs/ab44.jpg,0,0,400,l,0,1,1,3,0,52,52,43,,,['l'],0,[0.6175151936131442],2018_Jul_09_1318,60.0080906976,go-nogo,001,32,
logos/4.jpg,properties4.xlsx,frogs/ab43.jpg,0,0,400,l,0,1,1,3,0,53,53,42,,,['l'],0,[0.08401927169506962],2018_Jul_09_1318,60.0080906976,go-nogo,001,32,
logos/4.jpg,properties4.xlsx,frogs/ab26.jpg,0,0,400,l,0,1,1,3,0,54,54,25,,,['l'],0,[0.03427444702538196],2018_Jul_09_1318,60.0080906976,go-nogo,001,32,
logos/4.jpg,properties4.xlsx,frogs/ab68.jpg,0,0,400,l,0,1,1,3,0,55,55,66,,,['l'],0,[0.06768133775585738],2018_Jul_09_1318,60.0080906976,go-nogo,001,32,
logos/4.jpg,properties4.xlsx,frogs/ab53.jpg,0,0,400,l,0,1,1,3,0,56,56,52,,,['l'],0,[1.3004879364161752],2018_Jul_09_1318,60.0080906976,go-nogo,001,32,
logos/4.jpg,properties4.xlsx,frogs/ab34.jpg,0,0,400,l,0,1,1,3,0,57,57,33,,,['l'],0,[0.06763980883079057],2018_Jul_09_1318,60.0080906976,go-nogo,001,32,
logos/4.jpg,properties4.xlsx,frogs/ab65.jpg,0,0,400,l,0,1,1,3,0,58,58,63,,,['l'],0,[0.034426340487698326],2018_Jul_09_1318,60.0080906976,go-nogo,001,32,
logos/4.jpg,properties4.xlsx,frogs/ab42.jpg,0,0,400,l,0,1,1,3,0,59,59,41,,,['l'],0,[0.017709526224280125],2018_Jul_09_1318,60.0080906976,go-nogo,001,32,
logos/4.jpg,properties4.xlsx,frogs/ab67.jpg,0,0,400,l,0,1,1,3,0,60,60,65,,,['l'],0,[0.044851238273622585],2018_Jul_09_1318,60.0080906976,go-nogo,001,32,
logos/4.jpg,properties4.xlsx,frogs/ab14.jpg,0,0,400,l,0,1,1,3,0,61,61,13,,,['l'],0,[0.03479270524621825],2018_Jul_09_1318,60.0080906976,go-nogo,001,32,
logos/4.jpg,properties4.xlsx,frogs/ab74.jpg,0,0,400,l,0,1,1,3,0,62,62,72,,,['l'],0,[0.01796893977734726],2018_Jul_09_1318,60.0080906976,go-nogo,001,32,
logos/4.jpg,properties4.xlsx,logos/4.jpg,0,0,400,a,0,1,1,3,0,63,63,87,,,['a'],0,[0.0011133165062346961],2018_Jul_09_1318,60.0080906976,go-nogo,001,32,
logos/4.jpg,properties4.xlsx,frogs/ab71.jpg,0,0,400,l,0,1,1,3,0,64,64,69,,,['l'],0,[0.2009203492289089],2018_Jul_09_1318,60.0080906976,go-nogo,001,32,
logos/4.jpg,properties4.xlsx,frogs/ab12.jpg,0,0,400,l,0,1,1,3,0,65,65,11,,,['l'],0,[0.11759227812399331],2018_Jul_09_1318,60.0080906976,go-nogo,001,32,
logos/4.jpg,properties4.xlsx,frogs/ab48.jpg,0,0,400,l,0,1,1,3,0,66,66,47,,,['l'],0,[0.0680727336439304],2018_Jul_09_1318,60.0080906976,go-nogo,001,32,
logos/4.jpg,properties4.xlsx,frogs/ab9.jpg,0,0,400,l,0,1,1,3,0,67,67,8,,,['l'],0,[0.18447034408200125],2018_Jul_09_1318,60.0080906976,go-nogo,001,32,
logos/4.jpg,properties4.xlsx,frogs/ab8.jpg,0,0,400,l,0,1,1,3,0,68,68,7,,,['l'],0,[0.05100036352087045],2018_Jul_09_1318,60.0080906976,go-nogo,001,32,
logos/4.jpg,properties4.xlsx,frogs/ab19.jpg,0,0,400,l,0,1,1,3,0,69,69,18,,,['l'],0,[0.9175150229475548],2018_Jul_09_1318,60.0080906976,go-nogo,001,32,
logos/4.jpg,properties4.xlsx,logos/4.jpg,0,0,400,a,0,1,1,3,0,70,70,82,,,['a'],0,[0.03436034932201437],2018_Jul_09_1318,60.0080906976,go-nogo,001,32,
logos/4.jpg,properties4.xlsx,frogs/ab6.jpg,0,0,400,l,0,1,1,3,0,71,71,5,,,['l'],0,[0.40027739045945054],2018_Jul_09_1318,60.0080906976,go-nogo,001,32,
logos/4.jpg,properties4.xlsx,frogs/ab7.jpg,0,0,400,l,0,1,1,3,0,72,72,6,,,['l'],0,[0.05091730567073682],2018_Jul_09_1318,60.0080906976,go-nogo,001,32,
logos/4.jpg,properties4.xlsx,frogs/ab49.jpg,0,0,400,l,0,1,1,3,0,73,73,48,,,['l'],0,[0.6006777748007153],2018_Jul_09_1318,60.0080906976,go-nogo,001,32,
logos/4.jpg,properties4.xlsx,frogs/ab3.jpg,0,0,400,l,0,1,1,3,0,74,74,2,,,['l'],0,[0.08441408092221536],2018_Jul_09_1318,60.0080906976,go-nogo,001,32,
logos/4.jpg,properties4.xlsx,frogs/ab11.jpg,0,0,400,l,0,1,1,3,0,75,75,10,,,['l'],0,[0.5009645519348851],2018_Jul_09_1318,60.0080906976,go-nogo,001,32,
logos/4.jpg,properties4.xlsx,frogs/ab24.jpg,0,0,400,l,0,1,1,3,0,76,76,23,,,['l'],0,[0.4007177108342148],2018_Jul_09_1318,60.0080906976,go-nogo,001,32,
logos/4.jpg,properties4.xlsx,logos/4.jpg,0,0,400,a,0,1,1,3,0,77,77,86,,,['l'],0,[0.40082579981572053],2018_Jul_09_1318,60.0080906976,go-nogo,001,32,
logos/4.jpg,properties4.xlsx,frogs/ab21.jpg,0,0,400,l,0,1,1,3,0,78,78,20,,,['l'],0,[0.43428389058863104],2018_Jul_09_1318,60.0080906976,go-nogo,001,32,
logos/4.jpg,properties4.xlsx,logos/4.jpg,0,0,400,a,0,1,1,3,0,79,79,83,,,['a'],0,[0.06768133775585738],2018_Jul_09_1318,60.0080906976,go-nogo,001,32,
logos/4.jpg,properties4.xlsx,frogs/ab54.jpg,0,0,400,l,0,1,1,3,0,80,80,53,,,['l'],0,[3.015294590830308],2018_Jul_09_1318,60.0080906976,go-nogo,001,32,
logos/4.jpg,properties4.xlsx,frogs/ab20.jpg,0,0,400,l,0,1,1,3,0,81,81,19,,,['l'],0,[1.8000655360574456],2018_Jul_09_1318,60.0080906976,go-nogo,001,32,
logos/4.jpg,properties4.xlsx,frogs/ab78.jpg,0,0,400,l,0,1,1,3,0,82,82,76,,,['l'],0,[0.03433645596669521],2018_Jul_09_1318,60.0080906976,go-nogo,001,32,
logos/4.jpg,properties4.xlsx,frogs/ab15.jpg,0,0,400,l,0,1,1,3,0,83,83,14,,,['l'],0,[0.4340546281709976],2018_Jul_09_1318,60.0080906976,go-nogo,001,32,
logos/4.jpg,properties4.xlsx,frogs/ab72.jpg,0,0,400,l,0,1,1,3,0,84,84,70,,,['l'],0,[0.43425658389787714],2018_Jul_09_1318,60.0080906976,go-nogo,001,32,
logos/4.jpg,properties4.xlsx,frogs/ab81.jpg,0,0,400,l,0,1,1,3,0,85,85,79,,,['l'],0,[0.3675651136563829],2018_Jul_09_1318,60.0080906976,go-nogo,001,32,
logos/4.jpg,properties4.xlsx,frogs/ab55.jpg,0,0,400,l,0,1,1,3,0,86,86,54,,,['l'],0,[0.5342878159244719],2018_Jul_09_1318,60.0080906976,go-nogo,001,32,
logos/4.jpg,properties4.xlsx,frogs/ab77.jpg,0,0,400,l,0,1,1,3,0,87,87,75,,,['l'],0,[0.4007910975651612],2018_Jul_09_1318,60.0080906976,go-nogo,001,32,
logos/4.jpg,properties4.xlsx,frogs/ab16.jpg,0,0,400,l,0,1,1,3,0,88,88,15,,,['l'],0,[0.4005350973457098],2018_Jul_09_1318,60.0080906976,go-nogo,001,32,
logos/4.jpg,properties4.xlsx,frogs/ab66.jpg,0,0,400,l,0,1,1,3,0,89,89,64,,,['l'],0,[0.48394167518745235],2018_Jul_09_1318,60.0080906976,go-nogo,001,32,
logos/4.jpg,properties4.xlsx,,,,,,0,1,1,3,,,,,,,,,,2018_Jul_09_1318,60.0080906976,go-nogo,001,32,
logos/1.jpg,properties1.xlsx,frogs/ab33.jpg,0,0,400,l,0,2,2,0,0,0,0,32,space,17.5188731894,['l'],0,[0.23423394210294646],2018_Jul_09_1318,60.0080906976,go-nogo,001,32,
logos/1.jpg,properties1.xlsx,frogs/ab62.jpg,0,0,400,l,0,2,2,0,0,1,1,60,,,['l'],0,[0.6173837801688933],2018_Jul_09_1318,60.0080906976,go-nogo,001,32,
logos/1.jpg,properties1.xlsx,frogs/ab70.jpg,0,0,400,l,0,2,2,0,0,2,2,68,,,['l'],0,[0.434128014900125],2018_Jul_09_1318,60.0080906976,go-nogo,001,32,
logos/1.jpg,properties1.xlsx,frogs/ab29.jpg,0,0,400,l,0,2,2,0,0,3,3,28,,,['l'],0,[0.40082181758953084],2018_Jul_09_1318,60.0080906976,go-nogo,001,32,
logos/1.jpg,properties1.xlsx,frogs/ab57.jpg,0,0,400,l,0,2,2,0,0,4,4,56,,,['l'],0,[0.36757762922024995],2018_Jul_09_1318,60.0080906976,go-nogo,001,32,
logos/1.jpg,properties1.xlsx,frogs/ab71.jpg,0,0,400,l,0,2,2,0,0,5,5,69,,,['l'],0,[0.3841983011825505],2018_Jul_09_1318,60.0080906976,go-nogo,001,32,
logos/1.jpg,properties1.xlsx,frogs/ab81.jpg,0,0,400,l,0,2,2,0,0,6,6,79,,,['l'],0,[0.3841965945157426],2018_Jul_09_1318,60.0080906976,go-nogo,001,32,
logos/1.jpg,properties1.xlsx,frogs/ab56.jpg,0,0,400,l,0,2,2,0,0,7,7,55,,,['l'],0,[0.08432021417502256],2018_Jul_09_1318,60.0080906976,go-nogo,001,32,
logos/1.jpg,properties1.xlsx,frogs/ab1.jpg,0,0,400,l,0,2,2,0,0,8,8,0,,,['l'],0,[0.1344382302759186],2018_Jul_09_1318,60.0080906976,go-nogo,001,32,
logos/1.jpg,properties1.xlsx,logos/1.jpg,0,0,400,a,0,2,2,0,0,9,9,81,,,['a'],0,[0.15003603914192354],2018_Jul_09_1318,60.0080906976,go-nogo,001,32,
logos/1.jpg,properties1.xlsx,frogs/ab19.jpg,0,0,400,l,0,2,2,0,0,10,10,18,,,['l'],0,[0.017508139384517563],2018_Jul_09_1318,60.0080906976,go-nogo,001,32,
logos/1.jpg,properties1.xlsx,frogs/ab49.jpg,0,0,400,l,0,2,2,0,0,11,11,48,,,['l'],0,[0.28411018021870404],2018_Jul_09_1318,60.0080906976,go-nogo,001,32,
logos/1.jpg,properties1.xlsx,logos/1.jpg,0,0,400,a,0,2,2,0,0,12,12,83,,,['a'],0,[0.5339709445433982],2018_Jul_09_1318,60.0080906976,go-nogo,001,32,
logos/1.jpg,properties1.xlsx,frogs/ab10.jpg,0,0,400,l,0,2,2,0,0,13,13,9,,,['l'],0,[0.5339521711957786],2018_Jul_09_1318,60.0080906976,go-nogo,001,32,
logos/1.jpg,properties1.xlsx,frogs/ab67.jpg,0,0,400,l,0,2,2,0,0,14,14,65,,,['l'],0,[0.6166328461931698],2018_Jul_09_1318,60.0080906976,go-nogo,001,32,
logos/1.jpg,properties1.xlsx,frogs/ab12.jpg,0,0,400,l,0,2,2,0,0,15,15,11,,,['l'],0,[0.6340181054747518],2018_Jul_09_1318,60.0080906976,go-nogo,001,32,
logos/1.jpg,properties1.xlsx,frogs/ab58.jpg,0,0,400,l,0,2,2,0,0,16,16,57,,,['l'],0,[0.6506899774776684],2018_Jul_09_1318,60.0080906976,go-nogo,001,32,
logos/1.jpg,properties1.xlsx,frogs/ab72.jpg,0,0,400,l,0,2,2,0,0,17,17,70,,,['l'],0,[0.5507952789012052],2018_Jul_09_1318,60.0080906976,go-nogo,001,32,
logos/1.jpg,properties1.xlsx,logos/1.jpg,0,0,400,a,0,2,2,0,0,18,18,87,,,['a'],0,[0.5341740380517876],2018_Jul_09_1318,60.0080906976,go-nogo,001,32,
logos/1.jpg,properties1.xlsx,logos/1.jpg,0,0,400,a,0,2,2,0,0,19,19,88,,,['l'],0,[0.7673140058850549],2018_Jul_09_1318,60.0080906976,go-nogo,001,32,
logos/1.jpg,properties1.xlsx,frogs/ab77.jpg,0,0,400,l,0,2,2,0,0,20,20,75,,,['l'],0,[0.3173077196588565],2018_Jul_09_1318,60.0080906976,go-nogo,001,32,
logos/1.jpg,properties1.xlsx,frogs/ab17.jpg,0,0,400,l,0,2,2,0,0,21,21,16,,,['l'],0,[0.434192868287937],2018_Jul_09_1318,60.0080906976,go-nogo,001,32,
logos/1.jpg,properties1.xlsx,frogs/ab52.jpg,0,0,400,l,0,2,2,0,0,22,22,51,,,['l'],0,[0.5672890885307424],2018_Jul_09_1318,60.0080906976,go-nogo,001,32,
logos/1.jpg,properties1.xlsx,frogs/ab68.jpg,0,0,400,l,0,2,2,0,0,23,23,66,,,['l'],0,[0.41766208085027756],2018_Jul_09_1318,60.0080906976,go-nogo,001,32,
logos/1.jpg,properties1.xlsx,logos/1.jpg,0,0,400,a,0,2,2,0,0,24,24,82,,,['a'],0,[1.1669895113864186],2018_Jul_09_1318,60.0080906976,go-nogo,001,32,
logos/1.jpg,properties1.xlsx,frogs/ab21.jpg,0,0,400,l,0,2,2,0,0,25,25,20,,,['l'],0,[0.38436327910130785],2018_Jul_09_1318,60.0080906976,go-nogo,001,32,
logos/1.jpg,properties1.xlsx,frogs/ab75.jpg,0,0,400,l,0,2,2,0,0,26,26,73,,,['l'],0,[0.5009105074441322],2018_Jul_09_1318,60.0080906976,go-nogo,001,32,
logos/1.jpg,properties1.xlsx,frogs/ab14.jpg,0,0,400,l,0,2,2,0,0,27,27,13,,,['l'],0,[0.15022775486249884],2018_Jul_09_1318,60.0080906976,go-nogo,001,32,
logos/1.jpg,properties1.xlsx,frogs/ab26.jpg,0,0,400,l,0,2,2,0,0,28,28,25,,,['l'],0,[0.3841880611744273],2018_Jul_09_1318,60.0080906976,go-nogo,001,32,
logos/1.jpg,properties1.xlsx,frogs/ab65.jpg,0,0,400,l,0,2,2,0,0,29,29,63,,,['l'],0,[0.0675351331847196],2018_Jul_09_1318,60.0080906976,go-nogo,001,32,
logos/1.jpg,properties1.xlsx,frogs/ab78.jpg,0,0,400,l,0,2,2,0,0,30,30,76,,,['l'],0,[0.434062592621558],2018_Jul_09_1318,60.0080906976,go-nogo,001,32,
logos/1.jpg,properties1.xlsx,frogs/ab4.jpg,0,0,400,l,0,2,2,0,0,31,31,3,,,['l'],0,[0.6333451093432814],2018_Jul_09_1318,60.0080906976,go-nogo,001,32,
logos/1.jpg,properties1.xlsx,frogs/ab13.jpg,0,0,400,l,0,2,2,0,0,32,32,12,,,['l'],0,[1.3003912252243026],2018_Jul_09_1318,60.0080906976,go-nogo,001,32,
logos/1.jpg,properties1.xlsx,frogs/ab60.jpg,0,0,400,l,0,2,2,0,0,33,33,58,,,['l'],0,[0.21845693308205227],2018_Jul_09_1318,60.0080906976,go-nogo,001,32,
logos/1.jpg,properties1.xlsx,frogs/ab55.jpg,0,0,400,l,0,2,2,0,0,34,34,54,,,['l'],0,[0.28423704254782933],2018_Jul_09_1318,60.0080906976,go-nogo,001,32,
logos/1.jpg,properties1.xlsx,frogs/ab2.jpg,0,0,400,l,0,2,2,0,0,35,35,1,,,['l'],0,[0.10100744619194302],2018_Jul_09_1318,60.0080906976,go-nogo,001,32,
logos/1.jpg,properties1.xlsx,frogs/ab22.jpg,0,0,400,l,0,2,2,0,0,36,36,21,,,['l'],0,[0.1677387386935152],2018_Jul_09_1318,60.0080906976,go-nogo,001,32,
logos/1.jpg,properties1.xlsx,frogs/ab15.jpg,0,0,400,l,0,2,2,0,0,37,37,14,,,['l'],0,[0.11765713151180535],2018_Jul_09_1318,60.0080906976,go-nogo,001,32,
logos/1.jpg,properties1.xlsx,frogs/ab30.jpg,0,0,400,l,0,2,2,0,0,38,38,29,,,['l'],0,[0.2843565093171492],2018_Jul_09_1318,60.0080906976,go-nogo,001,32,
logos/1.jpg,properties1.xlsx,frogs/ab20.jpg,0,0,400,l,0,2,2,0,0,39,39,19,,,['l'],0,[0.08432988529420982],2018_Jul_09_1318,60.0080906976,go-nogo,001,32,
logos/1.jpg,properties1.xlsx,logos/1.jpg,0,0,400,a,0,2,2,0,0,40,40,80,,,['a'],0,[0.41735032947144646],2018_Jul_09_1318,60.0080906976,go-nogo,001,32,
logos/1.jpg,properties1.xlsx,frogs/ab6.jpg,0,0,400,l,0,2,2,0,0,41,41,5,,,['l'],0,[0.06762160437028797],2018_Jul_09_1318,60.0080906976,go-nogo,001,32,
logos/1.jpg,properties1.xlsx,frogs/ab5.jpg,0,0,400,l,0,2,2,0,0,42,42,4,,,['l'],0,[0.10094429947275785],2018_Jul_09_1318,60.0080906976,go-nogo,001,32,
logos/1.jpg,properties1.xlsx,frogs/ab42.jpg,0,0,400,l,0,2,2,0,0,43,43,41,,,['l'],0,[0.0011514320940477774],2018_Jul_09_1318,60.0080906976,go-nogo,001,32,
logos/1.jpg,properties1.xlsx,frogs/ab61.jpg,0,0,400,l,0,2,2,0,0,44,44,59,,,['l'],0,[1.0836728180674982],2018_Jul_09_1318,60.0080906976,go-nogo,001,32,
logos/1.jpg,properties1.xlsx,frogs/ab40.jpg,0,0,400,l,0,2,2,0,0,45,45,39,,,['l'],0,[0.3508300949306431],2018_Jul_09_1318,60.0080906976,go-nogo,001,32,
logos/1.jpg,properties1.xlsx,frogs/ab43.jpg,0,0,400,l,0,2,2,0,0,46,46,42,,,['l'],0,[0.38409305664936255],2018_Jul_09_1318,60.0080906976,go-nogo,001,32,
logos/1.jpg,properties1.xlsx,frogs/ab46.jpg,0,0,400,l,0,2,2,0,0,47,47,45,,,['l'],0,[0.3175705465491774],2018_Jul_09_1318,60.0080906976,go-nogo,001,32,
logos/1.jpg,properties1.xlsx,frogs/ab54.jpg,0,0,400,l,0,2,2,0,0,48,48,53,,,['l'],0,[0.3509307883505244],2018_Jul_09_1318,60.0080906976,go-nogo,001,32,
logos/1.jpg,properties1.xlsx,frogs/ab76.jpg,0,0,400,l,0,2,2,0,0,49,49,74,,,['l'],0,[0.5840730317431735],2018_Jul_09_1318,60.0080906976,go-nogo,001,32,
logos/1.jpg,properties1.xlsx,frogs/ab11.jpg,0,0,400,l,0,2,2,0,0,50,50,10,,,['l'],0,[0.017724886236464954],2018_Jul_09_1318,60.0080906976,go-nogo,001,32,
logos/1.jpg,properties1.xlsx,logos/1.jpg,0,0,400,a,0,2,2,0,0,51,51,85,,,['a'],0,[0.3840771277464228],2018_Jul_09_1318,60.0080906976,go-nogo,001,32,
logos/1.jpg,properties1.xlsx,frogs/ab38.jpg,0,0,400,l,0,2,2,0,0,52,52,37,,,['l'],0,[0.3508460238335829],2018_Jul_09_1318,60.0080906976,go-nogo,001,32,
logos/1.jpg,properties1.xlsx,frogs/ab7.jpg,0,0,400,l,0,2,2,0,0,53,53,6,,,['l'],0,[0.2842689003537089],2018_Jul_09_1318,60.0080906976,go-nogo,001,32,
logos/1.jpg,properties1.xlsx,frogs/ab47.jpg,0,0,400,l,0,2,2,0,0,54,54,46,,,['l'],0,[0.20080827802303247],2018_Jul_09_1318,60.0080906976,go-nogo,001,32,
logos/1.jpg,properties1.xlsx,frogs/ab45.jpg,0,0,400,l,0,2,2,0,0,55,55,44,,,['l'],0,[0.7840962424288591],2018_Jul_09_1318,60.0080906976,go-nogo,001,32,
logos/1.jpg,properties1.xlsx,logos/1.jpg,0,0,400,a,0,2,2,0,0,56,56,86,,,['a'],0,[0.15090302654789411],2018_Jul_09_1318,60.0080906976,go-nogo,001,32,
logos/1.jpg,properties1.xlsx,frogs/ab37.jpg,0,0,400,l,0,2,2,0,0,57,57,36,,,['l'],0,[0.9340401214922167],2018_Jul_09_1318,60.0080906976,go-nogo,001,32,
logos/1.jpg,properties1.xlsx,frogs/ab18.jpg,0,0,400,l,0,2,2,0,0,58,58,17,,,['l'],0,[0.21764626572439738],2018_Jul_09_1318,60.0080906976,go-nogo,001,32,
logos/1.jpg,properties1.xlsx,frogs/ab3.jpg,0,0,400,l,0,2,2,0,0,59,59,2,,,['l'],0,[0.40086448429246957],2018_Jul_09_1318,60.0080906976,go-nogo,001,32,
logos/1.jpg,properties1.xlsx,logos/1.jpg,0,0,400,a,0,2,2,0,0,60,60,84,,,['l'],0,[7.830233170687279],2018_Jul_09_1318,60.0080906976,go-nogo,001,32,
logos/1.jpg,properties1.xlsx,frogs/ab74.jpg,0,0,400,l,0,2,2,0,0,61,61,72,,,['l'],0,[0.08410744954926486],2018_Jul_09_1318,60.0080906976,go-nogo,001,32,
logos/1.jpg,properties1.xlsx,frogs/ab64.jpg,0,0,400,l,0,2,2,0,0,62,62,62,,,['l'],0,[0.08435662309602776],2018_Jul_09_1318,60.0080906976,go-nogo,001,32,
logos/1.jpg,properties1.xlsx,frogs/ab27.jpg,0,0,400,l,0,2,2,0,0,63,63,26,,,['l'],0,[2.5504744252939417],2018_Jul_09_1318,60.0080906976,go-nogo,001,32,
logos/1.jpg,properties1.xlsx,frogs/ab63.jpg,0,0,400,l,0,2,2,0,0,64,64,61,,,['l'],0,[0.9505197088874411],2018_Jul_09_1318,60.0080906976,go-nogo,001,32,
logos/1.jpg,properties1.xlsx,frogs/ab31.jpg,0,0,400,l,0,2,2,0,0,65,65,30,,,['l'],0,[1.0015576191071887],2018_Jul_09_1318,60.0080906976,go-nogo,001,32,
logos/1.jpg,properties1.xlsx,frogs/ab28.jpg,0,0,400,l,0,2,2,0,0,66,66,27,,,['l'],0,[3.3324191281080857],2018_Jul_09_1318,60.0080906976,go-nogo,001,32,
logos/1.jpg,properties1.xlsx,frogs/ab50.jpg,0,0,400,l,0,2,2,0,0,67,67,49,,,['l'],0,[0.2856313904048875],2018_Jul_09_1318,60.0080906976,go-nogo,001,32,
logos/1.jpg,properties1.xlsx,frogs/ab39.jpg,0,0,400,l,0,2,2,0,0,68,68,38,,,['l'],0,[0.03430801149806939],2018_Jul_09_1318,60.0080906976,go-nogo,001,32,
logos/1.jpg,properties1.xlsx,frogs/ab79.jpg,0,0,400,l,0,2,2,0,0,69,69,77,,,['l'],0,[0.01771293955971487],2018_Jul_09_1318,60.0080906976,go-nogo,001,32,
logos/1.jpg,properties1.xlsx,frogs/ab32.jpg,0,0,400,l,0,2,2,0,0,70,70,31,,,['l'],0,[0.6962705319274392],2018_Jul_09_1318,60.0080906976,go-nogo,001,32,
logos/1.jpg,properties1.xlsx,frogs/ab53.jpg,0,0,400,l,0,2,2,0,0,71,71,52,,,['l'],0,[0.0011190053992322646],2018_Jul_09_1318,60.0080906976,go-nogo,001,32,
logos/1.jpg,properties1.xlsx,frogs/ab25.jpg,0,0,400,l,0,2,2,0,0,72,72,24,,,['l'],0,[0.03431370039288595],2018_Jul_09_1318,60.0080906976,go-nogo,001,32,
logos/1.jpg,properties1.xlsx,frogs/ab23.jpg,0,0,400,l,0,2,2,0,0,73,73,22,,,['l'],0,[0.08338268448824238],2018_Jul_09_1318,60.0080906976,go-nogo,001,32,
logos/1.jpg,properties1.xlsx,frogs/ab66.jpg,0,0,400,l,0,2,2,0,0,74,74,64,,,['l'],0,[0.019450896597845713],2018_Jul_09_1318,60.0080906976,go-nogo,001,32,
logos/1.jpg,properties1.xlsx,frogs/ab16.jpg,0,0,400,l,0,2,2,0,0,75,75,15,,,['l'],0,[0.0011571209870453458],2018_Jul_09_1318,60.0080906976,go-nogo,001,32,
logos/1.jpg,properties1.xlsx,logos/1.jpg,0,0,400,a,0,2,2,0,0,76,76,89,,,['a'],0,[0.48414021757889714],2018_Jul_09_1318,60.0080906976,go-nogo,001,32,
logos/1.jpg,properties1.xlsx,frogs/ab48.jpg,0,0,400,l,0,2,2,0,0,77,77,47,,,['l'],0,[0.20021890863245062],2018_Jul_09_1318,60.0080906976,go-nogo,001,32,
logos/1.jpg,properties1.xlsx,frogs/ab8.jpg,0,0,400,l,0,2,2,0,0,78,78,7,,,['l'],0,[0.7846890251566947],2018_Jul_09_1318,60.0080906976,go-nogo,001,32,
logos/1.jpg,properties1.xlsx,frogs/ab80.jpg,0,0,400,l,0,2,2,0,0,79,79,78,,,['l'],0,[0.6172523667228234],2018_Jul_09_1318,60.0080906976,go-nogo,001,32,
logos/1.jpg,properties1.xlsx,frogs/ab24.jpg,0,0,400,l,0,2,2,0,0,80,80,23,,,['l'],0,[0.3175574620945554],2018_Jul_09_1318,60.0080906976,go-nogo,001,32,
logos/1.jpg,properties1.xlsx,frogs/ab34.jpg,0,0,400,l,0,2,2,0,0,81,81,33,,,['l'],0,[0.3840549410597305],2018_Jul_09_1318,60.0080906976,go-nogo,001,32,
logos/1.jpg,properties1.xlsx,frogs/ab41.jpg,0,0,400,l,0,2,2,0,0,82,82,40,,,['l'],0,[0.10091528611337708],2018_Jul_09_1318,60.0080906976,go-nogo,001,32,
logos/1.jpg,properties1.xlsx,frogs/ab9.jpg,0,0,400,l,0,2,2,0,0,83,83,8,,,['l'],0,[0.28351057081818],2018_Jul_09_1318,60.0080906976,go-nogo,001,32,
logos/1.jpg,properties1.xlsx,frogs/ab44.jpg,0,0,400,l,0,2,2,0,0,84,84,43,,,['l'],0,[0.4833966791666171],2018_Jul_09_1318,60.0080906976,go-nogo,001,32,
logos/1.jpg,properties1.xlsx,frogs/ab51.jpg,0,0,400,l,0,2,2,0,0,85,85,50,,,['l'],0,[0.3843433679721784],2018_Jul_09_1318,60.0080906976,go-nogo,001,32,
logos/1.jpg,properties1.xlsx,frogs/ab73.jpg,0,0,400,l,0,2,2,0,0,86,86,71,,,['l'],0,[0.4386922143494303],2018_Jul_09_1318,60.0080906976,go-nogo,001,32,
logos/1.jpg,properties1.xlsx,frogs/ab36.jpg,0,0,400,l,0,2,2,0,0,87,87,35,,,['l'],0,[0.35088584608820383],2018_Jul_09_1318,60.0080906976,go-nogo,001,32,
logos/1.jpg,properties1.xlsx,frogs/ab35.jpg,0,0,400,l,0,2,2,0,0,88,88,34,,,['l'],0,[0.36752756695750577],2018_Jul_09_1318,60.0080906976,go-nogo,001,32,
logos/1.jpg,properties1.xlsx,frogs/ab69.jpg,0,0,400,l,0,2,2,0,0,89,89,67,,,['l'],0,[0.36765044706226035],2018_Jul_09_1318,60.0080906976,go-nogo,001,32,
logos/1.jpg,properties1.xlsx,,,,,,0,2,2,0,,,,,,,,,,2018_Jul_09_1318,60.0080906976,go-nogo,001,32,
logos/2.jpg,properties2.xlsx,frogs/ab5.jpg,0,0,400,l,0,3,3,1,0,0,0,4,space,10.3403158815,['l'],0,[0.5509488790321484],2018_Jul_09_1318,60.0080906976,go-nogo,001,32,
logos/2.jpg,properties2.xlsx,frogs/ab2.jpg,0,0,400,l,0,3,3,1,0,1,1,1,,,['l'],0,[0.40081897314303205],2018_Jul_09_1318,60.0080906976,go-nogo,001,32,
logos/2.jpg,properties2.xlsx,frogs/ab31.jpg,0,0,400,l,0,3,3,1,0,2,2,30,,,['l'],0,[0.3840924877586076],2018_Jul_09_1318,60.0080906976,go-nogo,001,32,
logos/2.jpg,properties2.xlsx,frogs/ab71.jpg,0,0,400,l,0,3,3,1,0,3,3,69,,,['l'],0,[0.3508101838033326],2018_Jul_09_1318,60.0080906976,go-nogo,001,32,
logos/2.jpg,properties2.xlsx,frogs/ab37.jpg,0,0,400,l,0,3,3,1,0,4,4,36,,,['l'],0,[0.43401196146805887],2018_Jul_09_1318,60.0080906976,go-nogo,001,32,
logos/2.jpg,properties2.xlsx,frogs/ab64.jpg,0,0,400,l,0,3,3,1,0,5,5,62,,,['l'],0,[0.4175204273942654],2018_Jul_09_1318,60.0080906976,go-nogo,001,32,
logos/2.jpg,properties2.xlsx,frogs/ab62.jpg,0,0,400,l,0,3,3,1,0,6,6,60,,,['l'],0,[0.3673995668468706],2018_Jul_09_1318,60.0080906976,go-nogo,001,32,
logos/2.jpg,properties2.xlsx,frogs/ab80.jpg,0,0,400,l,0,3,3,1,0,7,7,78,,,['l'],0,[0.6174298602054478],2018_Jul_09_1318,60.0080906976,go-nogo,001,32,
logos/2.jpg,properties2.xlsx,frogs/ab50.jpg,0,0,400,l,0,3,3,1,0,8,8,49,,,['l'],0,[0.2676084061367874],2018_Jul_09_1318,60.0080906976,go-nogo,001,32,
logos/2.jpg,properties2.xlsx,frogs/ab57.jpg,0,0,400,l,0,3,3,1,0,9,9,56,,,['l'],0,[0.36743483799000387],2018_Jul_09_1318,60.0080906976,go-nogo,001,32,
logos/2.jpg,properties2.xlsx,frogs/ab42.jpg,0,0,400,l,0,3,3,1,0,10,10,41,,,['l'],0,[0.20226292815277702],2018_Jul_09_1318,60.0080906976,go-nogo,001,32,
logos/2.jpg,properties2.xlsx,frogs/ab27.jpg,0,0,400,l,0,3,3,1,0,11,11,26,,,['l'],0,[0.23412755978824862],2018_Jul_09_1318,60.0080906976,go-nogo,001,32,
logos/2.jpg,properties2.xlsx,frogs/ab53.jpg,0,0,400,l,0,3,3,1,0,12,12,52,,,['l'],0,[0.25087623185936536],2018_Jul_09_1318,60.0080906976,go-nogo,001,32,
logos/2.jpg,properties2.xlsx,frogs/ab4.jpg,0,0,400,l,0,3,3,1,0,13,13,3,,,['l'],0,[0.26752250384197396],2018_Jul_09_1318,60.0080906976,go-nogo,001,32,
logos/2.jpg,properties2.xlsx,frogs/ab26.jpg,0,0,400,l,0,3,3,1,0,14,14,25,,,['l'],0,[0.18441573070231243],2018_Jul_09_1318,60.0080906976,go-nogo,001,32,
logos/2.jpg,properties2.xlsx,frogs/ab23.jpg,0,0,400,l,0,3,3,1,0,15,15,22,,,['l'],0,[0.31689698153059],2018_Jul_09_1318,60.0080906976,go-nogo,001,32,
logos/2.jpg,properties2.xlsx,frogs/ab79.jpg,0,0,400,l,0,3,3,1,0,16,16,77,,,['l'],0,[0.3674513357800606],2018_Jul_09_1318,60.0080906976,go-nogo,001,32,
logos/2.jpg,properties2.xlsx,logos/2.jpg,0,0,400,a,0,3,3,1,0,17,17,80,,,['a'],0,[0.23421289319412608],2018_Jul_09_1318,60.0080906976,go-nogo,001,32,
logos/2.jpg,properties2.xlsx,frogs/ab43.jpg,0,0,400,l,0,3,3,1,0,18,18,42,,,['l'],0,[0.05121824815068976],2018_Jul_09_1318,60.0080906976,go-nogo,001,32,
logos/2.jpg,properties2.xlsx,frogs/ab30.jpg,0,0,400,l,0,3,3,1,0,19,19,29,,,['l'],0,[0.3009020878798765],2018_Jul_09_1318,60.0080906976,go-nogo,001,32,
logos/2.jpg,properties2.xlsx,frogs/ab58.jpg,0,0,400,l,0,3,3,1,0,20,20,57,,,['l'],0,[0.2006592290072149],2018_Jul_09_1318,60.0080906976,go-nogo,001,32,
logos/2.jpg,properties2.xlsx,frogs/ab56.jpg,0,0,400,l,0,3,3,1,0,21,21,55,,,['l'],0,[0.16744519177518669],2018_Jul_09_1318,60.0080906976,go-nogo,001,32,
logos/2.jpg,properties2.xlsx,logos/2.jpg,0,0,400,a,0,3,3,1,0,22,22,87,,,['a'],0,[0.7341727864950371],2018_Jul_09_1318,60.0080906976,go-nogo,001,32,
logos/2.jpg,properties2.xlsx,frogs/ab44.jpg,0,0,400,l,0,3,3,1,0,23,23,43,,,['l'],0,[0.5341973625145329],2018_Jul_09_1318,60.0080906976,go-nogo,001,32,
logos/2.jpg,properties2.xlsx,frogs/ab16.jpg,0,0,400,l,0,3,3,1,0,24,24,15,,,['l'],0,[0.38412434556448716],2018_Jul_09_1318,60.0080906976,go-nogo,001,32,
logos/2.jpg,properties2.xlsx,frogs/ab12.jpg,0,0,400,l,0,3,3,1,0,25,25,11,,,['l'],0,[0.25094449858261214],2018_Jul_09_1318,60.0080906976,go-nogo,001,32,
logos/2.jpg,properties2.xlsx,frogs/ab40.jpg,0,0,400,l,0,3,3,1,0,26,26,39,,,['l'],0,[0.2501656890308368],2018_Jul_09_1318,60.0080906976,go-nogo,001,32,
logos/2.jpg,properties2.xlsx,frogs/ab61.jpg,0,0,400,l,0,3,3,1,0,27,27,59,,,['l'],0,[0.2175194033934531],2018_Jul_09_1318,60.0080906976,go-nogo,001,32,
logos/2.jpg,properties2.xlsx,frogs/ab55.jpg,0,0,400,l,0,3,3,1,0,28,28,54,,,['l'],0,[0.2509410852489964],2018_Jul_09_1318,60.0080906976,go-nogo,001,32,
logos/2.jpg,properties2.xlsx,frogs/ab69.jpg,0,0,400,l,0,3,3,1,0,29,29,67,,,['l'],0,[0.23435909776526387],2018_Jul_09_1318,60.0080906976,go-nogo,001,32,
logos/2.jpg,properties2.xlsx,frogs/ab63.jpg,0,0,400,l,0,3,3,1,0,30,30,61,,,['l'],0,[0.38400942991029297],2018_Jul_09_1318,60.0080906976,go-nogo,001,32,
logos/2.jpg,properties2.xlsx,frogs/ab36.jpg,0,0,400,l,0,3,3,1,0,31,31,35,,,['l'],0,[0.534208171413411],2018_Jul_09_1318,60.0080906976,go-nogo,001,32,
logos/2.jpg,properties2.xlsx,frogs/ab73.jpg,0,0,400,l,0,3,3,1,0,32,32,71,,,['l'],0,[0.38422105675817875],2018_Jul_09_1318,60.0080906976,go-nogo,001,32,
logos/2.jpg,properties2.xlsx,frogs/ab75.jpg,0,0,400,l,0,3,3,1,0,33,33,73,,,['l'],0,[0.10433431125420611],2018_Jul_09_1318,60.0080906976,go-nogo,001,32,
logos/2.jpg,properties2.xlsx,frogs/ab77.jpg,0,0,400,l,0,3,3,1,0,34,34,75,,,['l'],0,[0.017783481842343463],2018_Jul_09_1318,60.0080906976,go-nogo,001,32,
logos/2.jpg,properties2.xlsx,frogs/ab81.jpg,0,0,400,l,0,3,3,1,0,35,35,79,,,['l'],0,[0.434101277100126],2018_Jul_09_1318,60.0080906976,go-nogo,001,32,
logos/2.jpg,properties2.xlsx,frogs/ab10.jpg,0,0,400,l,0,3,3,1,0,36,36,9,,,['l'],0,[0.3009265501241316],2018_Jul_09_1318,60.0080906976,go-nogo,001,32,
logos/2.jpg,properties2.xlsx,frogs/ab65.jpg,0,0,400,l,0,3,3,1,0,37,37,63,,,['l'],0,[0.2842296469880239],2018_Jul_09_1318,60.0080906976,go-nogo,001,32,
logos/2.jpg,properties2.xlsx,frogs/ab52.jpg,0,0,400,l,0,3,3,1,0,38,38,51,,,['l'],0,[0.2842427314426459],2018_Jul_09_1318,60.0080906976,go-nogo,001,32,
logos/2.jpg,properties2.xlsx,frogs/ab9.jpg,0,0,400,l,0,3,3,1,0,39,39,8,,,['l'],0,[0.3008747811909416],2018_Jul_09_1318,60.0080906976,go-nogo,001,32,
logos/2.jpg,properties2.xlsx,frogs/ab14.jpg,0,0,400,l,0,3,3,1,0,40,40,13,,,['l'],0,[0.334268587464976],2018_Jul_09_1318,60.0080906976,go-nogo,001,32,
logos/2.jpg,properties2.xlsx,frogs/ab17.jpg,0,0,400,l,0,3,3,1,0,41,41,16,,,['l'],0,[0.3007297144013137],2018_Jul_09_1318,60.0080906976,go-nogo,001,32,
logos/2.jpg,properties2.xlsx,frogs/ab45.jpg,0,0,400,l,0,3,3,1,0,42,42,44,,,['l'],0,[0.36832685652734654],2018_Jul_09_1318,60.0080906976,go-nogo,001,32,
logos/2.jpg,properties2.xlsx,logos/2.jpg,0,0,400,a,0,3,3,1,0,43,43,82,,,['a'],0,[0.5329310147681099],2018_Jul_09_1318,60.0080906976,go-nogo,001,32,
logos/2.jpg,properties2.xlsx,frogs/ab34.jpg,0,0,400,l,0,3,3,1,0,44,44,33,,,['l'],0,[0.2843707315514621],2018_Jul_09_1318,60.0080906976,go-nogo,001,32,
logos/2.jpg,properties2.xlsx,frogs/ab18.jpg,0,0,400,l,0,3,3,1,0,45,45,17,,,['l'],0,[0.5008109518021229],2018_Jul_09_1318,60.0080906976,go-nogo,001,32,
logos/2.jpg,properties2.xlsx,logos/2.jpg,0,0,400,a,0,3,3,1,0,46,46,88,,,['a'],0,[0.6507559686451714],2018_Jul_09_1318,60.0080906976,go-nogo,001,32,
logos/2.jpg,properties2.xlsx,frogs/ab7.jpg,0,0,400,l,0,3,3,1,0,47,47,6,,,['l'],0,[0.3841106922191102],2018_Jul_09_1318,60.0080906976,go-nogo,001,32,
logos/2.jpg,properties2.xlsx,frogs/ab68.jpg,0,0,400,l,0,3,3,1,0,48,48,66,,,['l'],0,[0.3175142265008617],2018_Jul_09_1318,60.0080906976,go-nogo,001,32,
logos/2.jpg,properties2.xlsx,frogs/ab46.jpg,0,0,400,l,0,3,3,1,0,49,49,45,,,['l'],0,[0.35105366845527897],2018_Jul_09_1318,60.0080906976,go-nogo,001,32,
logos/2.jpg,properties2.xlsx,frogs/ab22.jpg,0,0,400,l,0,3,3,1,0,50,50,21,,,['l'],0,[0.33394830274664855],2018_Jul_09_1318,60.0080906976,go-nogo,001,32,
logos/2.jpg,properties2.xlsx,frogs/ab38.jpg,0,0,400,l,0,3,3,1,0,51,51,37,,,['l'],0,[0.38414425669179764],2018_Jul_09_1318,60.0080906976,go-nogo,001,32,
logos/2.jpg,properties2.xlsx,frogs/ab70.jpg,0,0,400,l,0,3,3,1,0,52,52,68,,,['l'],0,[0.31773780002549756],2018_Jul_09_1318,60.0080906976,go-nogo,001,32,
logos/2.jpg,properties2.xlsx,frogs/ab24.jpg,0,0,400,l,0,3,3,1,0,53,53,23,,,['l'],0,[0.3010545502329478],2018_Jul_09_1318,60.0080906976,go-nogo,001,32,
logos/2.jpg,properties2.xlsx,frogs/ab1.jpg,0,0,400,l,0,3,3,1,0,54,54,0,,,['l'],0,[0.017672548414338962],2018_Jul_09_1318,60.0080906976,go-nogo,001,32,
logos/2.jpg,properties2.xlsx,frogs/ab3.jpg,0,0,400,l,0,3,3,1,0,55,55,2,,,['l'],0,[0.43426568612812844],2018_Jul_09_1318,60.0080906976,go-nogo,001,32,
logos/2.jpg,properties2.xlsx,frogs/ab60.jpg,0,0,400,l,0,3,3,1,0,56,56,58,,,['l'],0,[0.40085424428616534],2018_Jul_09_1318,60.0080906976,go-nogo,001,32,
logos/2.jpg,properties2.xlsx,logos/2.jpg,0,0,400,a,0,3,3,1,0,57,57,86,,,['a'],0,[0.5340574157289666],2018_Jul_09_1318,60.0080906976,go-nogo,001,32,
logos/2.jpg,properties2.xlsx,frogs/ab20.jpg,0,0,400,l,0,3,3,1,0,58,58,19,,,['l'],0,[0.2010193359819823],2018_Jul_09_1318,60.0080906976,go-nogo,001,32,
logos/2.jpg,properties2.xlsx,frogs/ab49.jpg,0,0,400,l,0,3,3,1,0,59,59,48,,,['l'],0,[0.3009305323503213],2018_Jul_09_1318,60.0080906976,go-nogo,001,32,
logos/2.jpg,properties2.xlsx,logos/2.jpg,0,0,400,a,0,3,3,1,0,60,60,89,,,['a'],0,[0.6006874459199025],2018_Jul_09_1318,60.0080906976,go-nogo,001,32,
logos/2.jpg,properties2.xlsx,frogs/ab54.jpg,0,0,400,l,0,3,3,1,0,61,61,53,,,['l'],0,[0.2341850176162552],2018_Jul_09_1318,60.0080906976,go-nogo,001,32,
logos/2.jpg,properties2.xlsx,frogs/ab66.jpg,0,0,400,l,0,3,3,1,0,62,62,64,,,['l'],0,[0.3008872967566276],2018_Jul_09_1318,60.0080906976,go-nogo,001,32,
logos/2.jpg,properties2.xlsx,frogs/ab8.jpg,0,0,400,l,0,3,3,1,0,63,63,7,,,['l'],0,[0.3006785143570596],2018_Jul_09_1318,60.0080906976,go-nogo,001,32,
logos/2.jpg,properties2.xlsx,frogs/ab41.jpg,0,0,400,l,0,3,3,1,0,64,64,40,,,['l'],0,[0.3175898887875519],2018_Jul_09_1318,60.0080906976,go-nogo,001,32,
logos/2.jpg,properties2.xlsx,frogs/ab6.jpg,0,0,400,l,0,3,3,1,0,65,65,5,,,['l'],0,[0.3022173601148097],2018_Jul_09_1318,60.0080906976,go-nogo,001,32,
logos/2.jpg,properties2.xlsx,logos/2.jpg,0,0,400,a,0,3,3,1,0,66,66,81,,,['l'],0,[1.8499679430842662],2018_Jul_09_1318,60.0080906976,go-nogo,001,32,
logos/2.jpg,properties2.xlsx,frogs/ab78.jpg,0,0,400,l,0,3,3,1,0,67,67,76,,,['l'],0,[3.4325425202132465],2018_Jul_09_1318,60.0080906976,go-nogo,001,32,
logos/2.jpg,properties2.xlsx,frogs/ab72.jpg,0,0,400,l,0,3,3,1,0,68,68,70,,,['l'],0,[0.28412326467514504],2018_Jul_09_1318,60.0080906976,go-nogo,001,32,
logos/2.jpg,properties2.xlsx,frogs/ab15.jpg,0,0,400,l,0,3,3,1,0,69,69,14,,,['l'],0,[0.30083325226587476],2018_Jul_09_1318,60.0080906976,go-nogo,001,32,
logos/2.jpg,properties2.xlsx,logos/2.jpg,0,0,400,a,0,3,3,1,0,70,70,83,,,['l'],0,[0.5841731562722998],2018_Jul_09_1318,60.0080906976,go-nogo,001,32,
logos/2.jpg,properties2.xlsx,logos/2.jpg,0,0,400,a,0,3,3,1,0,71,71,85,,,['a'],0,[0.11760308702287148],2018_Jul_09_1318,60.0080906976,go-nogo,001,32,
logos/2.jpg,properties2.xlsx,frogs/ab39.jpg,0,0,400,l,0,3,3,1,0,72,72,38,,,['l'],0,[0.3675873003412562],2018_Jul_09_1318,60.0080906976,go-nogo,001,32,
logos/2.jpg,properties2.xlsx,frogs/ab19.jpg,0,0,400,l,0,3,3,1,0,73,73,18,,,['l'],0,[0.3508363527125766],2018_Jul_09_1318,60.0080906976,go-nogo,001,32,
logos/2.jpg,properties2.xlsx,frogs/ab33.jpg,0,0,400,l,0,3,3,1,0,74,74,32,,,['l'],0,[0.3171239683906606],2018_Jul_09_1318,60.0080906976,go-nogo,001,32,
logos/2.jpg,properties2.xlsx,frogs/ab21.jpg,0,0,400,l,0,3,3,1,0,75,75,20,,,['l'],0,[0.3508130282480124],2018_Jul_09_1318,60.0080906976,go-nogo,001,32,
logos/2.jpg,properties2.xlsx,frogs/ab47.jpg,0,0,400,l,0,3,3,1,0,76,76,46,,,['l'],0,[0.03420049140731862],2018_Jul_09_1318,60.0080906976,go-nogo,001,32,
logos/2.jpg,properties2.xlsx,frogs/ab25.jpg,0,0,400,l,0,3,3,1,0,77,77,24,,,['l'],0,[0.31754096430267964],2018_Jul_09_1318,60.0080906976,go-nogo,001,32,
logos/2.jpg,properties2.xlsx,frogs/ab29.jpg,0,0,400,l,0,3,3,1,0,78,78,28,,,['l'],0,[0.13430226571654202],2018_Jul_09_1318,60.0080906976,go-nogo,001,32,
logos/2.jpg,properties2.xlsx,frogs/ab48.jpg,0,0,400,l,0,3,3,1,0,79,79,47,,,['l'],0,[0.08431623195065185],2018_Jul_09_1318,60.0080906976,go-nogo,001,32,
logos/2.jpg,properties2.xlsx,frogs/ab74.jpg,0,0,400,l,0,3,3,1,0,80,80,72,,,['l'],0,[0.3672886334206851],2018_Jul_09_1318,60.0080906976,go-nogo,001,32,
logos/2.jpg,properties2.xlsx,frogs/ab11.jpg,0,0,400,l,0,3,3,1,0,81,81,10,,,['l'],0,[0.4673198654454609],2018_Jul_09_1318,60.0080906976,go-nogo,001,32,
logos/2.jpg,properties2.xlsx,frogs/ab67.jpg,0,0,400,l,0,3,3,1,0,82,82,65,,,['l'],0,[0.4007592397592816],2018_Jul_09_1318,60.0080906976,go-nogo,001,32,
logos/2.jpg,properties2.xlsx,frogs/ab51.jpg,0,0,400,l,0,3,3,1,0,83,83,50,,,['l'],0,[0.0009847475084825419],2018_Jul_09_1318,60.0080906976,go-nogo,001,32,
logos/2.jpg,properties2.xlsx,frogs/ab32.jpg,0,0,400,l,0,3,3,1,0,84,84,31,,,['l'],0,[0.40084627983378596],2018_Jul_09_1318,60.0080906976,go-nogo,001,32,
logos/2.jpg,properties2.xlsx,frogs/ab28.jpg,0,0,400,l,0,3,3,1,0,85,85,27,,,['l'],0,[0.4007558264220279],2018_Jul_09_1318,60.0080906976,go-nogo,001,32,
logos/2.jpg,properties2.xlsx,logos/2.jpg,0,0,400,a,0,3,3,1,0,86,86,84,,,['a'],0,[0.06759088434409932],2018_Jul_09_1318,60.0080906976,go-nogo,001,32,
logos/2.jpg,properties2.xlsx,frogs/ab35.jpg,0,0,400,l,0,3,3,1,0,87,87,34,,,['l'],0,[0.33502919255806773],2018_Jul_09_1318,60.0080906976,go-nogo,001,32,
logos/2.jpg,properties2.xlsx,frogs/ab76.jpg,0,0,400,l,0,3,3,1,0,88,88,74,,,['l'],0,[0.3675178958364995],2018_Jul_09_1318,60.0080906976,go-nogo,001,32,
logos/2.jpg,properties2.xlsx,frogs/ab13.jpg,0,0,400,l,0,3,3,1,0,89,89,12,,,['l'],0,[0.3508562638417061],2018_Jul_09_1318,60.0080906976,go-nogo,001,32,
logos/2.jpg,properties2.xlsx,,,,,,0,3,3,1,,,,,,,,,,2018_Jul_09_1318,60.0080906976,go-nogo,001,32,
