pix,source,image1,x,y,size,answer,trials_2.thisRepN,trials_2.thisTrialN,trials_2.thisN,trials_2.thisIndex,trials.thisRepN,trials.thisTrialN,trials.thisN,trials.thisIndex,key_resp_3.keys,key_resp_3.rt,key_resp_2.keys,key_resp_2.corr,key_resp_2.rt,date,frameRate,expName,session,participant,
logos/2.jpg,properties2.xlsx,frogs/ab6.jpg,0,0,400,l,0,0,0,1,0,0,0,5,space,4.48899113727,['l'],0,[0.10088513497794338],2018_Jul_09_1325,60.0673523785,go-nogo,001,33,
logos/2.jpg,properties2.xlsx,frogs/ab12.jpg,0,0,400,l,0,0,0,1,0,1,1,11,,,['l'],0,[0.400884964310535],2018_Jul_09_1325,60.0673523785,go-nogo,001,33,
logos/2.jpg,properties2.xlsx,frogs/ab34.jpg,0,0,400,l,0,0,0,1,0,2,2,33,,,['l'],0,[0.3675611314301932],2018_Jul_09_1325,60.0673523785,go-nogo,001,33,
logos/2.jpg,properties2.xlsx,frogs/ab3.jpg,0,0,400,l,0,0,0,1,0,3,3,2,,,['l'],0,[0.3509290816818975],2018_Jul_09_1325,60.0673523785,go-nogo,001,33,
logos/2.jpg,properties2.xlsx,logos/2.jpg,0,0,400,a,0,0,0,1,0,4,4,84,,,['a'],0,[0.5340830157510936],2018_Jul_09_1325,60.0673523785,go-nogo,001,33,
logos/2.jpg,properties2.xlsx,frogs/ab39.jpg,0,0,400,l,0,0,0,1,0,5,5,38,,,['l'],0,[0.46780569697148167],2018_Jul_09_1325,60.0673523785,go-nogo,001,33,
logos/2.jpg,properties2.xlsx,frogs/ab79.jpg,0,0,400,l,0,0,0,1,0,6,6,77,,,['l'],0,[0.5176022905761783],2018_Jul_09_1325,60.0673523785,go-nogo,001,33,
logos/2.jpg,properties2.xlsx,frogs/ab50.jpg,0,0,400,l,0,0,0,1,0,7,7,49,,,['l'],0,[0.4675457145276596],2018_Jul_09_1325,60.0673523785,go-nogo,001,33,
logos/2.jpg,properties2.xlsx,frogs/ab13.jpg,0,0,400,l,0,0,0,1,0,8,8,12,,,['l'],0,[0.5833255111028848],2018_Jul_09_1325,60.0673523785,go-nogo,001,33,
logos/2.jpg,properties2.xlsx,frogs/ab78.jpg,0,0,400,l,0,0,0,1,0,9,9,76,,,['l'],0,[0.2508182051424228],2018_Jul_09_1325,60.0673523785,go-nogo,001,33,
logos/2.jpg,properties2.xlsx,frogs/ab41.jpg,0,0,400,l,0,0,0,1,0,10,10,40,,,['l'],0,[0.3508482993893267],2018_Jul_09_1325,60.0673523785,go-nogo,001,33,
logos/2.jpg,properties2.xlsx,frogs/ab2.jpg,0,0,400,l,0,0,0,1,0,11,11,1,,,['l'],0,[0.3343533519819175],2018_Jul_09_1325,60.0673523785,go-nogo,001,33,
logos/2.jpg,properties2.xlsx,frogs/ab53.jpg,0,0,400,l,0,0,0,1,0,12,12,52,,,['l'],0,[0.31763995105393406],2018_Jul_09_1325,60.0673523785,go-nogo,001,33,
logos/2.jpg,properties2.xlsx,frogs/ab51.jpg,0,0,400,l,0,0,0,1,0,13,13,50,,,['l'],0,[0.3007024077105598],2018_Jul_09_1325,60.0673523785,go-nogo,001,33,
logos/2.jpg,properties2.xlsx,frogs/ab73.jpg,0,0,400,l,0,0,0,1,0,14,14,71,,,['l'],0,[0.28413236690357735],2018_Jul_09_1325,60.0673523785,go-nogo,001,33,
logos/2.jpg,properties2.xlsx,logos/2.jpg,0,0,400,a,0,0,0,1,0,15,15,88,,,['a'],0,[0.7005861267225555],2018_Jul_09_1325,60.0673523785,go-nogo,001,33,
logos/2.jpg,properties2.xlsx,frogs/ab45.jpg,0,0,400,l,0,0,0,1,0,16,16,44,,,['l'],0,[0.5007034317113721],2018_Jul_09_1325,60.0673523785,go-nogo,001,33,
logos/2.jpg,properties2.xlsx,frogs/ab48.jpg,0,0,400,l,0,0,0,1,0,17,17,47,,,['l'],0,[0.40079280423196906],2018_Jul_09_1325,60.0673523785,go-nogo,001,33,
logos/2.jpg,properties2.xlsx,logos/2.jpg,0,0,400,a,0,0,0,1,0,18,18,85,,,['a'],0,[0.3853377865980292],2018_Jul_09_1325,60.0673523785,go-nogo,001,33,
logos/2.jpg,properties2.xlsx,frogs/ab11.jpg,0,0,400,l,0,0,0,1,0,19,19,10,,,['l'],0,[0.3841055722150486],2018_Jul_09_1325,60.0673523785,go-nogo,001,33,
logos/2.jpg,properties2.xlsx,frogs/ab49.jpg,0,0,400,l,0,0,0,1,0,20,20,48,,,['l'],0,[0.3674581624527491],2018_Jul_09_1325,60.0673523785,go-nogo,001,33,
logos/2.jpg,properties2.xlsx,frogs/ab40.jpg,0,0,400,l,0,0,0,1,0,21,21,39,,,['l'],0,[0.3843024079378665],2018_Jul_09_1325,60.0673523785,go-nogo,001,33,
logos/2.jpg,properties2.xlsx,frogs/ab38.jpg,0,0,400,l,0,0,0,1,0,22,22,37,,,['l'],0,[0.4676424257213512],2018_Jul_09_1325,60.0673523785,go-nogo,001,33,
logos/2.jpg,properties2.xlsx,frogs/ab36.jpg,0,0,400,l,0,0,0,1,0,23,23,35,,,['l'],0,[0.5339754956585239],2018_Jul_09_1325,60.0673523785,go-nogo,001,33,
logos/2.jpg,properties2.xlsx,frogs/ab15.jpg,0,0,400,l,0,0,0,1,0,24,24,14,,,['l'],0,[0.4839712574321311],2018_Jul_09_1325,60.0673523785,go-nogo,001,33,
logos/2.jpg,properties2.xlsx,frogs/ab33.jpg,0,0,400,l,0,0,0,1,0,25,25,32,,,['l'],0,[0.43415190825362515],2018_Jul_09_1325,60.0673523785,go-nogo,001,33,
logos/2.jpg,properties2.xlsx,frogs/ab77.jpg,0,0,400,l,0,0,0,1,0,26,26,75,,,['l'],0,[0.36757649144237803],2018_Jul_09_1325,60.0673523785,go-nogo,001,33,
logos/2.jpg,properties2.xlsx,frogs/ab43.jpg,0,0,400,l,0,0,0,1,0,27,27,42,,,['l'],0,[0.38401511880329053],2018_Jul_09_1325,60.0673523785,go-nogo,001,33,
logos/2.jpg,properties2.xlsx,frogs/ab22.jpg,0,0,400,l,0,0,0,1,0,28,28,21,,,['l'],0,[0.6016027889236284],2018_Jul_09_1325,60.0673523785,go-nogo,001,33,
logos/2.jpg,properties2.xlsx,frogs/ab62.jpg,0,0,400,l,0,0,0,1,0,29,29,60,,,['l'],0,[0.5017439303774154],2018_Jul_09_1325,60.0673523785,go-nogo,001,33,
logos/2.jpg,properties2.xlsx,frogs/ab74.jpg,0,0,400,l,0,0,0,1,0,30,30,72,,,['l'],0,[0.4500916196338949],2018_Jul_09_1325,60.0673523785,go-nogo,001,33,
logos/2.jpg,properties2.xlsx,frogs/ab31.jpg,0,0,400,l,0,0,0,1,0,31,31,30,,,['l'],0,[0.43403301037506026],2018_Jul_09_1325,60.0673523785,go-nogo,001,33,
logos/2.jpg,properties2.xlsx,frogs/ab24.jpg,0,0,400,l,0,0,0,1,0,32,32,23,,,['l'],0,[0.4671918653366447],2018_Jul_09_1325,60.0673523785,go-nogo,001,33,
logos/2.jpg,properties2.xlsx,frogs/ab47.jpg,0,0,400,l,0,0,0,1,0,33,33,46,,,['l'],0,[0.5339959756765893],2018_Jul_09_1325,60.0673523785,go-nogo,001,33,
logos/2.jpg,properties2.xlsx,frogs/ab58.jpg,0,0,400,l,0,0,0,1,0,34,34,57,,,['l'],0,[0.4338748591289914],2018_Jul_09_1325,60.0673523785,go-nogo,001,33,
logos/2.jpg,properties2.xlsx,logos/2.jpg,0,0,400,a,0,0,0,1,0,35,35,80,,,['a'],0,[0.4841015331003291],2018_Jul_09_1325,60.0673523785,go-nogo,001,33,
logos/2.jpg,properties2.xlsx,frogs/ab80.jpg,0,0,400,l,0,0,0,1,0,36,36,78,,,['l'],0,[0.48394451963213214],2018_Jul_09_1325,60.0673523785,go-nogo,001,33,
logos/2.jpg,properties2.xlsx,frogs/ab25.jpg,0,0,400,l,0,0,0,1,0,37,37,24,,,['l'],0,[0.4341513393646892],2018_Jul_09_1325,60.0673523785,go-nogo,001,33,
logos/2.jpg,properties2.xlsx,frogs/ab16.jpg,0,0,400,l,0,0,0,1,0,38,38,15,,,['l'],0,[0.534104633547031],2018_Jul_09_1325,60.0673523785,go-nogo,001,33,
logos/2.jpg,properties2.xlsx,frogs/ab54.jpg,0,0,400,l,0,0,0,1,0,39,39,53,,,['l'],0,[0.6340641855131253],2018_Jul_09_1325,60.0673523785,go-nogo,001,33,
logos/2.jpg,properties2.xlsx,frogs/ab21.jpg,0,0,400,l,0,0,0,1,0,40,40,20,,,['l'],0,[0.40074331085634185],2018_Jul_09_1325,60.0673523785,go-nogo,001,33,
logos/2.jpg,properties2.xlsx,frogs/ab81.jpg,0,0,400,l,0,0,0,1,0,41,41,79,,,['l'],0,[0.5509101945535804],2018_Jul_09_1325,60.0673523785,go-nogo,001,33,
logos/2.jpg,properties2.xlsx,frogs/ab9.jpg,0,0,400,l,0,0,0,1,0,42,42,8,,,['l'],0,[0.566628607966777],2018_Jul_09_1325,60.0673523785,go-nogo,001,33,
logos/2.jpg,properties2.xlsx,frogs/ab29.jpg,0,0,400,l,0,0,0,1,0,43,43,28,,,['l'],0,[0.467331243233275],2018_Jul_09_1325,60.0673523785,go-nogo,001,33,
logos/2.jpg,properties2.xlsx,frogs/ab35.jpg,0,0,400,l,0,0,0,1,0,44,44,34,,,['l'],0,[0.5507474921942048],2018_Jul_09_1325,60.0673523785,go-nogo,001,33,
logos/2.jpg,properties2.xlsx,frogs/ab8.jpg,0,0,400,l,0,0,0,1,0,45,45,7,,,['l'],0,[0.3840782655242947],2018_Jul_09_1325,60.0673523785,go-nogo,001,33,
logos/2.jpg,properties2.xlsx,frogs/ab69.jpg,0,0,400,l,0,0,0,1,0,46,46,67,,,['l'],0,[0.40086050206809887],2018_Jul_09_1325,60.0673523785,go-nogo,001,33,
logos/2.jpg,properties2.xlsx,frogs/ab14.jpg,0,0,400,l,0,0,0,1,0,47,47,13,,,['l'],0,[0.3175790798904927],2018_Jul_09_1325,60.0673523785,go-nogo,001,33,
logos/2.jpg,properties2.xlsx,frogs/ab32.jpg,0,0,400,l,0,0,0,1,0,48,48,31,,,['l'],0,[0.417251911610947],2018_Jul_09_1325,60.0673523785,go-nogo,001,33,
logos/2.jpg,properties2.xlsx,frogs/ab61.jpg,0,0,400,l,0,0,0,1,0,49,49,59,,,['l'],0,[0.41744305844076735],2018_Jul_09_1325,60.0673523785,go-nogo,001,33,
logos/2.jpg,properties2.xlsx,frogs/ab57.jpg,0,0,400,l,0,0,0,1,0,50,50,56,,,['l'],0,[0.3841351544633653],2018_Jul_09_1325,60.0673523785,go-nogo,001,33,
logos/2.jpg,properties2.xlsx,logos/2.jpg,0,0,400,a,0,0,0,1,0,51,51,82,,,['a'],0,[0.33426801857604005],2018_Jul_09_1325,60.0673523785,go-nogo,001,33,
logos/2.jpg,properties2.xlsx,frogs/ab27.jpg,0,0,400,l,0,0,0,1,0,52,52,26,,,['l'],0,[0.4674290922048385],2018_Jul_09_1325,60.0673523785,go-nogo,001,33,
logos/2.jpg,properties2.xlsx,frogs/ab26.jpg,0,0,400,l,0,0,0,1,0,53,53,25,,,['l'],0,[0.4508795314159215],2018_Jul_09_1325,60.0673523785,go-nogo,001,33,
logos/2.jpg,properties2.xlsx,logos/2.jpg,0,0,400,a,0,0,0,1,0,54,54,81,,,['a'],0,[0.35086877940921113],2018_Jul_09_1325,60.0673523785,go-nogo,001,33,
logos/2.jpg,properties2.xlsx,frogs/ab44.jpg,0,0,400,l,0,0,0,1,0,55,55,43,,,['l'],0,[0.517711517335556],2018_Jul_09_1325,60.0673523785,go-nogo,001,33,
logos/2.jpg,properties2.xlsx,frogs/ab46.jpg,0,0,400,l,0,0,0,1,0,56,56,45,,,['l'],0,[0.40100443107985484],2018_Jul_09_1325,60.0673523785,go-nogo,001,33,
logos/2.jpg,properties2.xlsx,frogs/ab10.jpg,0,0,400,l,0,0,0,1,0,57,57,9,,,['l'],0,[0.5340010956806509],2018_Jul_09_1325,60.0673523785,go-nogo,001,33,
logos/2.jpg,properties2.xlsx,logos/2.jpg,0,0,400,a,0,0,0,1,0,58,58,86,,,['l'],0,[0.6507070441584801],2018_Jul_09_1325,60.0673523785,go-nogo,001,33,
logos/2.jpg,properties2.xlsx,frogs/ab4.jpg,0,0,400,l,0,0,0,1,0,59,59,3,,,['l'],0,[0.5840206939192285],2018_Jul_09_1325,60.0673523785,go-nogo,001,33,
logos/2.jpg,properties2.xlsx,logos/2.jpg,0,0,400,a,0,0,0,1,0,60,60,89,,,['a'],0,[0.4674268166490947],2018_Jul_09_1325,60.0673523785,go-nogo,001,33,
logos/2.jpg,properties2.xlsx,frogs/ab20.jpg,0,0,400,l,0,0,0,1,0,61,61,19,,,['l'],0,[0.5675450887501938],2018_Jul_09_1325,60.0673523785,go-nogo,001,33,
logos/2.jpg,properties2.xlsx,frogs/ab52.jpg,0,0,400,l,0,0,0,1,0,62,62,51,,,['l'],0,[0.6175083669404557],2018_Jul_09_1325,60.0673523785,go-nogo,001,33,
logos/2.jpg,properties2.xlsx,frogs/ab5.jpg,0,0,400,l,0,0,0,1,0,63,63,4,,,['l'],0,[0.8674015579599654],2018_Jul_09_1325,60.0673523785,go-nogo,001,33,
logos/2.jpg,properties2.xlsx,frogs/ab67.jpg,0,0,400,l,0,0,0,1,0,64,64,65,,,['l'],0,[0.41750051626695495],2018_Jul_09_1325,60.0673523785,go-nogo,001,33,
logos/2.jpg,properties2.xlsx,frogs/ab55.jpg,0,0,400,l,0,0,0,1,0,65,65,54,,,['l'],0,[0.6007608326508489],2018_Jul_09_1325,60.0673523785,go-nogo,001,33,
logos/2.jpg,properties2.xlsx,frogs/ab56.jpg,0,0,400,l,0,0,0,1,0,66,66,55,,,['l'],0,[0.5838915560307214],2018_Jul_09_1325,60.0673523785,go-nogo,001,33,
logos/2.jpg,properties2.xlsx,frogs/ab23.jpg,0,0,400,l,0,0,0,1,0,67,67,22,,,['l'],0,[0.5340369357109012],2018_Jul_09_1325,60.0673523785,go-nogo,001,33,
logos/2.jpg,properties2.xlsx,frogs/ab72.jpg,0,0,400,l,0,0,0,1,0,68,68,70,,,['l'],0,[0.5506598832307645],2018_Jul_09_1325,60.0673523785,go-nogo,001,33,
logos/2.jpg,properties2.xlsx,frogs/ab70.jpg,0,0,400,l,0,0,0,1,0,69,69,68,,,['l'],0,[0.6673038227654615],2018_Jul_09_1325,60.0673523785,go-nogo,001,33,
logos/2.jpg,properties2.xlsx,frogs/ab18.jpg,0,0,400,l,0,0,0,1,0,70,70,17,,,['l'],0,[0.6839688680975087],2018_Jul_09_1325,60.0673523785,go-nogo,001,33,
logos/2.jpg,properties2.xlsx,frogs/ab7.jpg,0,0,400,l,0,0,0,1,0,71,71,6,,,['l'],0,[0.634041429939316],2018_Jul_09_1325,60.0673523785,go-nogo,001,33,
logos/2.jpg,properties2.xlsx,frogs/ab71.jpg,0,0,400,l,0,0,0,1,0,72,72,69,,,['l'],0,[0.6358721159431298],2018_Jul_09_1325,60.0673523785,go-nogo,001,33,
logos/2.jpg,properties2.xlsx,frogs/ab65.jpg,0,0,400,l,0,0,0,1,0,73,73,63,,,['l'],0,[0.6007238548409077],2018_Jul_09_1325,60.0673523785,go-nogo,001,33,
logos/2.jpg,properties2.xlsx,frogs/ab19.jpg,0,0,400,l,0,0,0,1,0,74,74,18,,,['l'],0,[0.6339970565659314],2018_Jul_09_1325,60.0673523785,go-nogo,001,33,
logos/2.jpg,properties2.xlsx,frogs/ab64.jpg,0,0,400,l,0,0,0,1,0,75,75,62,,,['l'],0,[0.8004398652647069],2018_Jul_09_1325,60.0673523785,go-nogo,001,33,
logos/2.jpg,properties2.xlsx,frogs/ab60.jpg,0,0,400,l,0,0,0,1,0,76,76,58,,,['l'],0,[0.5339931312300905],2018_Jul_09_1325,60.0673523785,go-nogo,001,33,
logos/2.jpg,properties2.xlsx,frogs/ab42.jpg,0,0,400,l,0,0,0,1,0,77,77,41,,,['l'],0,[0.5674990087100014],2018_Jul_09_1325,60.0673523785,go-nogo,001,33,
logos/2.jpg,properties2.xlsx,frogs/ab68.jpg,0,0,400,l,0,0,0,1,0,78,78,66,,,['l'],0,[0.5673272041185555],2018_Jul_09_1325,60.0673523785,go-nogo,001,33,
logos/2.jpg,properties2.xlsx,frogs/ab76.jpg,0,0,400,l,0,0,0,1,0,79,79,74,,,['l'],0,[0.5174538104492967],2018_Jul_09_1325,60.0673523785,go-nogo,001,33,
logos/2.jpg,properties2.xlsx,frogs/ab17.jpg,0,0,400,l,0,0,0,1,0,80,80,16,,,['l'],0,[0.9172846227484115],2018_Jul_09_1325,60.0673523785,go-nogo,001,33,
logos/2.jpg,properties2.xlsx,logos/2.jpg,0,0,400,a,0,0,0,1,0,81,81,87,,,['a'],0,[0.43404495705181034],2018_Jul_09_1325,60.0673523785,go-nogo,001,33,
logos/2.jpg,properties2.xlsx,frogs/ab75.jpg,0,0,400,l,0,0,0,1,0,82,82,73,,,['l'],0,[0.4174003917360096],2018_Jul_09_1325,60.0673523785,go-nogo,001,33,
logos/2.jpg,properties2.xlsx,frogs/ab1.jpg,0,0,400,l,0,0,0,1,0,83,83,0,,,['l'],0,[0.36756170031912916],2018_Jul_09_1325,60.0673523785,go-nogo,001,33,
logos/2.jpg,properties2.xlsx,logos/2.jpg,0,0,400,a,0,0,0,1,0,84,84,83,,,['a'],0,[0.6008416149397817],2018_Jul_09_1325,60.0673523785,go-nogo,001,33,
logos/2.jpg,properties2.xlsx,frogs/ab30.jpg,0,0,400,l,0,0,0,1,0,85,85,29,,,['l'],0,[0.484116324223578],2018_Jul_09_1325,60.0673523785,go-nogo,001,33,
logos/2.jpg,properties2.xlsx,frogs/ab66.jpg,0,0,400,l,0,0,0,1,0,86,86,64,,,['l'],0,[0.5841947740682372],2018_Jul_09_1325,60.0673523785,go-nogo,001,33,
logos/2.jpg,properties2.xlsx,frogs/ab37.jpg,0,0,400,l,0,0,0,1,0,87,87,36,,,['l'],0,[0.5507998300163308],2018_Jul_09_1325,60.0673523785,go-nogo,001,33,
logos/2.jpg,properties2.xlsx,frogs/ab28.jpg,0,0,400,l,0,0,0,1,0,88,88,27,,,['l'],0,[0.667428409538843],2018_Jul_09_1325,60.0673523785,go-nogo,001,33,
logos/2.jpg,properties2.xlsx,frogs/ab63.jpg,0,0,400,l,0,0,0,1,0,89,89,61,,,['l'],0,[0.5673778352738736],2018_Jul_09_1325,60.0673523785,go-nogo,001,33,
logos/2.jpg,properties2.xlsx,,,,,,0,0,0,1,,,,,,,,,,2018_Jul_09_1325,60.0673523785,go-nogo,001,33,
logos/3.jpg,properties3.xlsx,frogs/ab18.jpg,0,0,400,l,0,1,1,2,0,0,0,17,space,5.65349232654,['l'],0,[0.2675298994035984],2018_Jul_09_1325,60.0673523785,go-nogo,001,33,
logos/3.jpg,properties3.xlsx,frogs/ab24.jpg,0,0,400,l,0,1,1,2,0,1,1,23,,,['l'],0,[0.45003985070070485],2018_Jul_09_1325,60.0673523785,go-nogo,001,33,
logos/3.jpg,properties3.xlsx,frogs/ab21.jpg,0,0,400,l,0,1,1,2,0,2,2,20,,,['l'],0,[0.4008235242581577],2018_Jul_09_1325,60.0673523785,go-nogo,001,33,
logos/3.jpg,properties3.xlsx,frogs/ab81.jpg,0,0,400,l,0,1,1,2,0,3,3,79,,,['l'],0,[0.4509187847834255],2018_Jul_09_1325,60.0673523785,go-nogo,001,33,
logos/3.jpg,properties3.xlsx,frogs/ab58.jpg,0,0,400,l,0,1,1,2,0,4,4,57,,,['l'],0,[0.5007910406748124],2018_Jul_09_1325,60.0673523785,go-nogo,001,33,
logos/3.jpg,properties3.xlsx,frogs/ab26.jpg,0,0,400,l,0,1,1,2,0,5,5,25,,,['l'],0,[0.45084653583398904],2018_Jul_09_1325,60.0673523785,go-nogo,001,33,
logos/3.jpg,properties3.xlsx,frogs/ab30.jpg,0,0,400,l,0,1,1,2,0,6,6,29,,,['l'],0,[0.46750475449152873],2018_Jul_09_1325,60.0673523785,go-nogo,001,33,
logos/3.jpg,properties3.xlsx,frogs/ab41.jpg,0,0,400,l,0,1,1,2,0,7,7,40,,,['l'],0,[0.41887210854838486],2018_Jul_09_1325,60.0673523785,go-nogo,001,33,
logos/3.jpg,properties3.xlsx,frogs/ab1.jpg,0,0,400,l,0,1,1,2,0,8,8,0,,,['l'],0,[0.4175300985134527],2018_Jul_09_1325,60.0673523785,go-nogo,001,33,
logos/3.jpg,properties3.xlsx,frogs/ab2.jpg,0,0,400,l,0,1,1,2,0,9,9,1,,,['l'],0,[0.3677608116013289],2018_Jul_09_1325,60.0673523785,go-nogo,001,33,
logos/3.jpg,properties3.xlsx,frogs/ab47.jpg,0,0,400,l,0,1,1,2,0,10,10,46,,,['l'],0,[0.3844201680385595],2018_Jul_09_1325,60.0673523785,go-nogo,001,33,
logos/3.jpg,properties3.xlsx,frogs/ab20.jpg,0,0,400,l,0,1,1,2,0,11,11,19,,,['l'],0,[0.3667743574242195],2018_Jul_09_1325,60.0673523785,go-nogo,001,33,
logos/3.jpg,properties3.xlsx,frogs/ab57.jpg,0,0,400,l,0,1,1,2,0,12,12,56,,,['l'],0,[0.3509694728272734],2018_Jul_09_1325,60.0673523785,go-nogo,001,33,
logos/3.jpg,properties3.xlsx,logos/3.jpg,0,0,400,a,0,1,1,2,0,13,13,86,,,['a'],0,[0.9671858919991791],2018_Jul_09_1325,60.0673523785,go-nogo,001,33,
logos/3.jpg,properties3.xlsx,logos/3.jpg,0,0,400,a,0,1,1,2,0,14,14,81,,,['a'],0,[0.9671693942054844],2018_Jul_09_1325,60.0673523785,go-nogo,001,33,
logos/3.jpg,properties3.xlsx,frogs/ab27.jpg,0,0,400,l,0,1,1,2,0,15,15,26,,,['l'],0,[0.20086687362891098],2018_Jul_09_1325,60.0673523785,go-nogo,001,33,
logos/3.jpg,properties3.xlsx,frogs/ab52.jpg,0,0,400,l,0,1,1,2,0,16,16,51,,,['l'],0,[0.6007909837862826],2018_Jul_09_1325,60.0673523785,go-nogo,001,33,
logos/3.jpg,properties3.xlsx,frogs/ab31.jpg,0,0,400,l,0,1,1,2,0,17,17,30,,,['l'],0,[0.4676082923597278],2018_Jul_09_1325,60.0673523785,go-nogo,001,33,
logos/3.jpg,properties3.xlsx,frogs/ab72.jpg,0,0,400,l,0,1,1,2,0,18,18,70,,,['l'],0,[0.3508522816155164],2018_Jul_09_1325,60.0673523785,go-nogo,001,33,
logos/3.jpg,properties3.xlsx,logos/3.jpg,0,0,400,a,0,1,1,2,0,19,19,89,,,['a'],0,[0.6007778993298416],2018_Jul_09_1325,60.0673523785,go-nogo,001,33,
logos/3.jpg,properties3.xlsx,frogs/ab54.jpg,0,0,400,l,0,1,1,2,0,20,20,53,,,['l'],0,[1.2185985865380644],2018_Jul_09_1325,60.0673523785,go-nogo,001,33,
logos/3.jpg,properties3.xlsx,frogs/ab22.jpg,0,0,400,l,0,1,1,2,0,21,21,21,,,['l'],0,[0.8408048419314582],2018_Jul_09_1325,60.0673523785,go-nogo,001,33,
logos/3.jpg,properties3.xlsx,frogs/ab25.jpg,0,0,400,l,0,1,1,2,0,22,22,24,,,['l'],0,[0.6175203136172058],2018_Jul_09_1325,60.0673523785,go-nogo,001,33,
logos/3.jpg,properties3.xlsx,frogs/ab35.jpg,0,0,400,l,0,1,1,2,0,23,23,34,,,['l'],0,[0.9338939169228979],2018_Jul_09_1325,60.0673523785,go-nogo,001,33,
logos/3.jpg,properties3.xlsx,frogs/ab49.jpg,0,0,400,l,0,1,1,2,0,24,24,48,,,['l'],0,[0.9172851916391664],2018_Jul_09_1325,60.0673523785,go-nogo,001,33,
logos/3.jpg,properties3.xlsx,frogs/ab8.jpg,0,0,400,l,0,1,1,2,0,25,25,7,,,['l'],0,[0.6508515420591721],2018_Jul_09_1325,60.0673523785,go-nogo,001,33,
logos/3.jpg,properties3.xlsx,frogs/ab13.jpg,0,0,400,l,0,1,1,2,0,26,26,12,,,['l'],0,[0.45072650017573324],2018_Jul_09_1325,60.0673523785,go-nogo,001,33,
logos/3.jpg,properties3.xlsx,frogs/ab28.jpg,0,0,400,l,0,1,1,2,0,27,27,27,,,['l'],0,[0.3841744078290503],2018_Jul_09_1325,60.0673523785,go-nogo,001,33,
logos/3.jpg,properties3.xlsx,frogs/ab17.jpg,0,0,400,l,0,1,1,2,0,28,28,16,,,['l'],0,[0.3008235811466875],2018_Jul_09_1325,60.0673523785,go-nogo,001,33,
logos/3.jpg,properties3.xlsx,frogs/ab71.jpg,0,0,400,l,0,1,1,2,0,29,29,69,,,['l'],0,[0.41766208085027756],2018_Jul_09_1325,60.0673523785,go-nogo,001,33,
logos/3.jpg,properties3.xlsx,frogs/ab14.jpg,0,0,400,l,0,1,1,2,0,30,30,13,,,['l'],0,[0.6842043882988946],2018_Jul_09_1325,60.0673523785,go-nogo,001,33,
logos/3.jpg,properties3.xlsx,frogs/ab19.jpg,0,0,400,l,0,1,1,2,0,31,31,18,,,['l'],0,[0.5007933162323752],2018_Jul_09_1325,60.0673523785,go-nogo,001,33,
logos/3.jpg,properties3.xlsx,frogs/ab3.jpg,0,0,400,l,0,1,1,2,0,32,32,2,,,['l'],0,[0.550693447701633],2018_Jul_09_1325,60.0673523785,go-nogo,001,33,
logos/3.jpg,properties3.xlsx,logos/3.jpg,0,0,400,a,0,1,1,2,0,33,33,80,,,['a'],0,[0.18446693074474751],2018_Jul_09_1325,60.0673523785,go-nogo,001,33,
logos/3.jpg,properties3.xlsx,frogs/ab5.jpg,0,0,400,l,0,1,1,2,0,34,34,4,,,['l'],0,[0.4175938141252118],2018_Jul_09_1325,60.0673523785,go-nogo,001,33,
logos/3.jpg,properties3.xlsx,frogs/ab32.jpg,0,0,400,l,0,1,1,2,0,35,35,31,,,['l'],0,[0.40088951542566065],2018_Jul_09_1325,60.0673523785,go-nogo,001,33,
logos/3.jpg,properties3.xlsx,frogs/ab62.jpg,0,0,400,l,0,1,1,2,0,36,36,60,,,['l'],0,[0.33415310292002687],2018_Jul_09_1325,60.0673523785,go-nogo,001,33,
logos/3.jpg,properties3.xlsx,frogs/ab65.jpg,0,0,400,l,0,1,1,2,0,37,37,63,,,['l'],0,[0.38432800795999356],2018_Jul_09_1325,60.0673523785,go-nogo,001,33,
logos/3.jpg,properties3.xlsx,frogs/ab76.jpg,0,0,400,l,0,1,1,2,0,38,38,74,,,['l'],0,[0.45078794022811053],2018_Jul_09_1325,60.0673523785,go-nogo,001,33,
logos/3.jpg,properties3.xlsx,frogs/ab56.jpg,0,0,400,l,0,1,1,2,0,39,39,55,,,['l'],0,[0.334242418553913],2018_Jul_09_1325,60.0673523785,go-nogo,001,33,
logos/3.jpg,properties3.xlsx,frogs/ab66.jpg,0,0,400,l,0,1,1,2,0,40,40,64,,,['l'],0,[0.3676083492482576],2018_Jul_09_1325,60.0673523785,go-nogo,001,33,
logos/3.jpg,properties3.xlsx,frogs/ab75.jpg,0,0,400,l,0,1,1,2,0,41,41,73,,,['l'],0,[0.45074982464029745],2018_Jul_09_1325,60.0673523785,go-nogo,001,33,
logos/3.jpg,properties3.xlsx,frogs/ab44.jpg,0,0,400,l,0,1,1,2,0,42,42,43,,,['l'],0,[0.3675440647475625],2018_Jul_09_1325,60.0673523785,go-nogo,001,33,
logos/3.jpg,properties3.xlsx,frogs/ab80.jpg,0,0,400,l,0,1,1,2,0,43,43,78,,,['l'],0,[0.40084514205409505],2018_Jul_09_1325,60.0673523785,go-nogo,001,33,
logos/3.jpg,properties3.xlsx,frogs/ab61.jpg,0,0,400,l,0,1,1,2,0,44,44,59,,,['l'],0,[0.4673756166048406],2018_Jul_09_1325,60.0673523785,go-nogo,001,33,
logos/3.jpg,properties3.xlsx,logos/3.jpg,0,0,400,a,0,1,1,2,0,45,45,88,,,['a'],0,[0.4508391402705456],2018_Jul_09_1325,60.0673523785,go-nogo,001,33,
logos/3.jpg,properties3.xlsx,frogs/ab78.jpg,0,0,400,l,0,1,1,2,0,46,46,76,,,['l'],0,[0.468663013258265],2018_Jul_09_1325,60.0673523785,go-nogo,001,33,
logos/3.jpg,properties3.xlsx,frogs/ab37.jpg,0,0,400,l,0,1,1,2,0,47,47,36,,,['l'],0,[0.4340523526134348],2018_Jul_09_1325,60.0673523785,go-nogo,001,33,
logos/3.jpg,properties3.xlsx,logos/3.jpg,0,0,400,a,0,1,1,2,0,48,48,82,,,['a'],0,[0.4174424895518314],2018_Jul_09_1325,60.0673523785,go-nogo,001,33,
logos/3.jpg,properties3.xlsx,frogs/ab7.jpg,0,0,400,l,0,1,1,2,0,49,49,6,,,['l'],0,[0.2675731349954731],2018_Jul_09_1325,60.0673523785,go-nogo,001,33,
logos/3.jpg,properties3.xlsx,frogs/ab16.jpg,0,0,400,l,0,1,1,2,0,50,50,15,,,['l'],0,[0.5010498853407626],2018_Jul_09_1325,60.0673523785,go-nogo,001,33,
logos/3.jpg,properties3.xlsx,logos/3.jpg,0,0,400,a,0,1,1,2,0,51,51,85,,,['a'],0,[0.4342531705624424],2018_Jul_09_1325,60.0673523785,go-nogo,001,33,
logos/3.jpg,properties3.xlsx,frogs/ab53.jpg,0,0,400,l,0,1,1,2,0,52,52,52,,,['l'],0,[0.46658315370586934],2018_Jul_09_1325,60.0673523785,go-nogo,001,33,
logos/3.jpg,properties3.xlsx,frogs/ab74.jpg,0,0,400,l,0,1,1,2,0,53,53,72,,,['l'],0,[0.5841771384966705],2018_Jul_09_1325,60.0673523785,go-nogo,001,33,
logos/3.jpg,properties3.xlsx,frogs/ab64.jpg,0,0,400,l,0,1,1,2,0,54,54,62,,,['l'],0,[0.733992448562276],2018_Jul_09_1325,60.0673523785,go-nogo,001,33,
logos/3.jpg,properties3.xlsx,frogs/ab50.jpg,0,0,400,l,0,1,1,2,0,55,55,49,,,['l'],0,[0.4676816790870362],2018_Jul_09_1325,60.0673523785,go-nogo,001,33,
logos/3.jpg,properties3.xlsx,logos/3.jpg,0,0,400,a,0,1,1,2,0,56,56,83,,,['a'],0,[0.6841793571657035],2018_Jul_09_1325,60.0673523785,go-nogo,001,33,
logos/3.jpg,properties3.xlsx,frogs/ab12.jpg,0,0,400,l,0,1,1,2,0,57,57,11,,,['l'],0,[1.0170900056946266],2018_Jul_09_1325,60.0673523785,go-nogo,001,33,
logos/3.jpg,properties3.xlsx,frogs/ab10.jpg,0,0,400,l,0,1,1,2,0,58,58,9,,,['l'],0,[0.6672219026968378],2018_Jul_09_1325,60.0673523785,go-nogo,001,33,
logos/3.jpg,properties3.xlsx,frogs/ab4.jpg,0,0,400,l,0,1,1,2,0,59,59,3,,,['l'],0,[0.5178867352642555],2018_Jul_09_1325,60.0673523785,go-nogo,001,33,
logos/3.jpg,properties3.xlsx,frogs/ab15.jpg,0,0,400,l,0,1,1,2,0,60,60,14,,,['l'],0,[0.41729571609175764],2018_Jul_09_1325,60.0673523785,go-nogo,001,33,
logos/3.jpg,properties3.xlsx,frogs/ab51.jpg,0,0,400,l,0,1,1,2,0,61,61,50,,,['l'],0,[0.4833801813729224],2018_Jul_09_1325,60.0673523785,go-nogo,001,33,
logos/3.jpg,properties3.xlsx,frogs/ab70.jpg,0,0,400,l,0,1,1,2,0,62,62,68,,,['l'],0,[0.4833955413851072],2018_Jul_09_1325,60.0673523785,go-nogo,001,33,
logos/3.jpg,properties3.xlsx,frogs/ab48.jpg,0,0,400,l,0,1,1,2,0,63,63,47,,,['l'],0,[0.43418433494844066],2018_Jul_09_1325,60.0673523785,go-nogo,001,33,
logos/3.jpg,properties3.xlsx,frogs/ab9.jpg,0,0,400,l,0,1,1,2,0,64,64,8,,,['l'],0,[0.533321841767247],2018_Jul_09_1325,60.0673523785,go-nogo,001,33,
logos/3.jpg,properties3.xlsx,frogs/ab73.jpg,0,0,400,l,0,1,1,2,0,65,65,71,,,['l'],0,[0.4507924913432362],2018_Jul_09_1325,60.0673523785,go-nogo,001,33,
logos/3.jpg,properties3.xlsx,frogs/ab23.jpg,0,0,400,l,0,1,1,2,0,66,66,22,,,['l'],0,[1.6665506132339942],2018_Jul_09_1325,60.0673523785,go-nogo,001,33,
logos/3.jpg,properties3.xlsx,frogs/ab79.jpg,0,0,400,l,0,1,1,2,0,67,67,77,,,['l'],0,[0.6007244237280247],2018_Jul_09_1325,60.0673523785,go-nogo,001,33,
logos/3.jpg,properties3.xlsx,frogs/ab46.jpg,0,0,400,l,0,1,1,2,0,68,68,45,,,['l'],0,[0.6166755128961086],2018_Jul_09_1325,60.0673523785,go-nogo,001,33,
logos/3.jpg,properties3.xlsx,frogs/ab38.jpg,0,0,400,l,0,1,1,2,0,69,69,37,,,['l'],0,[0.6672930138665834],2018_Jul_09_1325,60.0673523785,go-nogo,001,33,
logos/3.jpg,properties3.xlsx,frogs/ab34.jpg,0,0,400,l,0,1,1,2,0,70,70,33,,,['l'],0,[1.0171838724400004],2018_Jul_09_1325,60.0673523785,go-nogo,001,33,
logos/3.jpg,properties3.xlsx,frogs/ab33.jpg,0,0,400,l,0,1,1,2,0,71,71,32,,,['l'],0,[0.48424034210802347],2018_Jul_09_1325,60.0673523785,go-nogo,001,33,
logos/3.jpg,properties3.xlsx,frogs/ab43.jpg,0,0,400,l,0,1,1,2,0,72,72,42,,,['l'],0,[0.7506876450315758],2018_Jul_09_1325,60.0673523785,go-nogo,001,33,
logos/3.jpg,properties3.xlsx,logos/3.jpg,0,0,400,a,0,1,1,2,0,73,73,87,,,['a'],0,[0.7005616644801194],2018_Jul_09_1325,60.0673523785,go-nogo,001,33,
logos/3.jpg,properties3.xlsx,frogs/ab67.jpg,0,0,400,l,0,1,1,2,0,74,74,65,,,['l'],0,[0.8353600017289864],2018_Jul_09_1325,60.0673523785,go-nogo,001,33,
logos/3.jpg,properties3.xlsx,frogs/ab68.jpg,0,0,400,l,0,1,1,2,0,75,75,66,,,['l'],0,[0.6174332735427015],2018_Jul_09_1325,60.0673523785,go-nogo,001,33,
logos/3.jpg,properties3.xlsx,frogs/ab39.jpg,0,0,400,l,0,1,1,2,0,76,76,38,,,['l'],0,[0.6839557836428867],2018_Jul_09_1325,60.0673523785,go-nogo,001,33,
logos/3.jpg,properties3.xlsx,frogs/ab69.jpg,0,0,400,l,0,1,1,2,0,77,77,67,,,['l'],0,[0.5999387875035609],2018_Jul_09_1325,60.0673523785,go-nogo,001,33,
logos/3.jpg,properties3.xlsx,logos/3.jpg,0,0,400,a,0,1,1,2,0,78,78,84,,,['a'],0,[0.4673483099140867],2018_Jul_09_1325,60.0673523785,go-nogo,001,33,
logos/3.jpg,properties3.xlsx,frogs/ab11.jpg,0,0,400,l,0,1,1,2,0,79,79,10,,,['l'],0,[0.4008001997935935],2018_Jul_09_1325,60.0673523785,go-nogo,001,33,
logos/3.jpg,properties3.xlsx,frogs/ab63.jpg,0,0,400,l,0,1,1,2,0,80,80,61,,,['l'],0,[0.5175476771964895],2018_Jul_09_1325,60.0673523785,go-nogo,001,33,
logos/3.jpg,properties3.xlsx,frogs/ab45.jpg,0,0,400,l,0,1,1,2,0,81,81,44,,,['l'],0,[0.46872217775307945],2018_Jul_09_1325,60.0673523785,go-nogo,001,33,
logos/3.jpg,properties3.xlsx,frogs/ab6.jpg,0,0,400,l,0,1,1,2,0,82,82,5,,,['l'],0,[0.4341877482838754],2018_Jul_09_1325,60.0673523785,go-nogo,001,33,
logos/3.jpg,properties3.xlsx,frogs/ab77.jpg,0,0,400,l,0,1,1,2,0,83,83,75,,,['l'],0,[0.4509398336904269],2018_Jul_09_1325,60.0673523785,go-nogo,001,33,
logos/3.jpg,properties3.xlsx,frogs/ab36.jpg,0,0,400,l,0,1,1,2,0,84,84,35,,,['l'],0,[0.4841641109323973],2018_Jul_09_1325,60.0673523785,go-nogo,001,33,
logos/3.jpg,properties3.xlsx,frogs/ab42.jpg,0,0,400,l,0,1,1,2,0,85,85,41,,,['l'],0,[0.43340154316865664],2018_Jul_09_1325,60.0673523785,go-nogo,001,33,
logos/3.jpg,properties3.xlsx,frogs/ab60.jpg,0,0,400,l,0,1,1,2,0,86,86,58,,,['l'],0,[0.4506189800831635],2018_Jul_09_1325,60.0673523785,go-nogo,001,33,
logos/3.jpg,properties3.xlsx,frogs/ab40.jpg,0,0,400,l,0,1,1,2,0,87,87,39,,,['l'],0,[0.3675833181150665],2018_Jul_09_1325,60.0673523785,go-nogo,001,33,
logos/3.jpg,properties3.xlsx,frogs/ab29.jpg,0,0,400,l,0,1,1,2,0,88,88,28,,,['l'],0,[0.4508311758199852],2018_Jul_09_1325,60.0673523785,go-nogo,001,33,
logos/3.jpg,properties3.xlsx,frogs/ab55.jpg,0,0,400,l,0,1,1,2,0,89,89,54,,,['l'],0,[0.43419628162519075],2018_Jul_09_1325,60.0673523785,go-nogo,001,33,
logos/3.jpg,properties3.xlsx,,,,,,0,1,1,2,,,,,,,,,,2018_Jul_09_1325,60.0673523785,go-nogo,001,33,
logos/1.jpg,properties1.xlsx,frogs/ab67.jpg,0,0,400,l,0,2,2,0,0,0,0,65,space,3.68492915336,['l'],0,[1.8999773013129015],2018_Jul_09_1325,60.0673523785,go-nogo,001,33,
logos/1.jpg,properties1.xlsx,frogs/ab65.jpg,0,0,400,l,0,2,2,0,0,1,1,63,,,['l'],0,[0.4841527331445832],2018_Jul_09_1325,60.0673523785,go-nogo,001,33,
logos/1.jpg,properties1.xlsx,logos/1.jpg,0,0,400,a,0,2,2,0,0,2,2,86,,,['a'],0,[0.38427055013380595],2018_Jul_09_1325,60.0673523785,go-nogo,001,33,
logos/1.jpg,properties1.xlsx,frogs/ab76.jpg,0,0,400,l,0,2,2,0,0,3,3,74,,,['l'],0,[0.33417927183290885],2018_Jul_09_1325,60.0673523785,go-nogo,001,33,
logos/1.jpg,properties1.xlsx,frogs/ab64.jpg,0,0,400,l,0,2,2,0,0,4,4,62,,,['l'],0,[0.35015311657662096],2018_Jul_09_1325,60.0673523785,go-nogo,001,33,
logos/1.jpg,properties1.xlsx,frogs/ab2.jpg,0,0,400,l,0,2,2,0,0,5,5,1,,,['l'],0,[0.3841601855947374],2018_Jul_09_1325,60.0673523785,go-nogo,001,33,
logos/1.jpg,properties1.xlsx,frogs/ab21.jpg,0,0,400,l,0,2,2,0,0,6,6,20,,,['l'],0,[0.4175960896827746],2018_Jul_09_1325,60.0673523785,go-nogo,001,33,
logos/1.jpg,properties1.xlsx,frogs/ab61.jpg,0,0,400,l,0,2,2,0,0,7,7,59,,,['l'],0,[1.1837780057139753],2018_Jul_09_1325,60.0673523785,go-nogo,001,33,
logos/1.jpg,properties1.xlsx,frogs/ab49.jpg,0,0,400,l,0,2,2,0,0,8,8,48,,,['l'],0,[0.5333593884661241],2018_Jul_09_1325,60.0673523785,go-nogo,001,33,
logos/1.jpg,properties1.xlsx,frogs/ab11.jpg,0,0,400,l,0,2,2,0,0,9,9,10,,,['l'],0,[1.101320904237582],2018_Jul_09_1325,60.0673523785,go-nogo,001,33,
logos/1.jpg,properties1.xlsx,frogs/ab36.jpg,0,0,400,l,0,2,2,0,0,10,10,35,,,['l'],0,[0.6007938282327814],2018_Jul_09_1325,60.0673523785,go-nogo,001,33,
logos/1.jpg,properties1.xlsx,frogs/ab40.jpg,0,0,400,l,0,2,2,0,0,11,11,39,,,['l'],0,[0.4507788379978592],2018_Jul_09_1325,60.0673523785,go-nogo,001,33,
logos/1.jpg,properties1.xlsx,frogs/ab74.jpg,0,0,400,l,0,2,2,0,0,12,12,72,,,['l'],0,[0.40079963090465753],2018_Jul_09_1325,60.0673523785,go-nogo,001,33,
logos/1.jpg,properties1.xlsx,frogs/ab1.jpg,0,0,400,l,0,2,2,0,0,13,13,0,,,['l'],0,[0.4522238170084165],2018_Jul_09_1325,60.0673523785,go-nogo,001,33,
logos/1.jpg,properties1.xlsx,frogs/ab32.jpg,0,0,400,l,0,2,2,0,0,14,14,31,,,['l'],0,[0.45082434914729674],2018_Jul_09_1325,60.0673523785,go-nogo,001,33,
logos/1.jpg,properties1.xlsx,logos/1.jpg,0,0,400,a,0,2,2,0,0,15,15,85,,,['a'],0,[0.5176352861599298],2018_Jul_09_1325,60.0673523785,go-nogo,001,33,
logos/1.jpg,properties1.xlsx,frogs/ab16.jpg,0,0,400,l,0,2,2,0,0,16,16,15,,,['l'],0,[0.40100841330604453],2018_Jul_09_1325,60.0673523785,go-nogo,001,33,
logos/1.jpg,properties1.xlsx,frogs/ab22.jpg,0,0,400,l,0,2,2,0,0,17,17,21,,,['l'],0,[0.8672667311802797],2018_Jul_09_1325,60.0673523785,go-nogo,001,33,
logos/1.jpg,properties1.xlsx,frogs/ab63.jpg,0,0,400,l,0,2,2,0,0,18,18,61,,,['l'],0,[0.4175807296687708],2018_Jul_09_1325,60.0673523785,go-nogo,001,33,
logos/1.jpg,properties1.xlsx,frogs/ab50.jpg,0,0,400,l,0,2,2,0,0,19,19,49,,,['l'],0,[0.46753831896603515],2018_Jul_09_1325,60.0673523785,go-nogo,001,33,
logos/1.jpg,properties1.xlsx,frogs/ab73.jpg,0,0,400,l,0,2,2,0,0,20,20,71,,,['l'],0,[0.5672640573993704],2018_Jul_09_1325,60.0673523785,go-nogo,001,33,
logos/1.jpg,properties1.xlsx,frogs/ab43.jpg,0,0,400,l,0,2,2,0,0,21,21,42,,,['l'],0,[0.500770560656747],2018_Jul_09_1325,60.0673523785,go-nogo,001,33,
logos/1.jpg,properties1.xlsx,frogs/ab79.jpg,0,0,400,l,0,2,2,0,0,22,22,77,,,['l'],0,[0.4507333268466027],2018_Jul_09_1325,60.0673523785,go-nogo,001,33,
logos/1.jpg,properties1.xlsx,frogs/ab66.jpg,0,0,400,l,0,2,2,0,0,23,23,64,,,['l'],0,[0.467526941178221],2018_Jul_09_1325,60.0673523785,go-nogo,001,33,
logos/1.jpg,properties1.xlsx,frogs/ab47.jpg,0,0,400,l,0,2,2,0,0,24,24,46,,,['l'],0,[2.316453247816753],2018_Jul_09_1325,60.0673523785,go-nogo,001,33,
logos/1.jpg,properties1.xlsx,frogs/ab52.jpg,0,0,400,l,0,2,2,0,0,25,25,51,,,['l'],0,[0.40008795029825706],2018_Jul_09_1325,60.0673523785,go-nogo,001,33,
logos/1.jpg,properties1.xlsx,frogs/ab60.jpg,0,0,400,l,0,2,2,0,0,26,26,58,,,['l'],0,[0.4509278870136768],2018_Jul_09_1325,60.0673523785,go-nogo,001,33,
logos/1.jpg,properties1.xlsx,frogs/ab18.jpg,0,0,400,l,0,2,2,0,0,27,27,17,,,['l'],0,[0.4508630336258648],2018_Jul_09_1325,60.0673523785,go-nogo,001,33,
logos/1.jpg,properties1.xlsx,frogs/ab41.jpg,0,0,400,l,0,2,2,0,0,28,28,40,,,['l'],0,[0.4007990620139026],2018_Jul_09_1325,60.0673523785,go-nogo,001,33,
logos/1.jpg,properties1.xlsx,logos/1.jpg,0,0,400,a,0,2,2,0,0,29,29,87,,,['a'],0,[0.5010754853628896],2018_Jul_09_1325,60.0673523785,go-nogo,001,33,
logos/1.jpg,properties1.xlsx,frogs/ab12.jpg,0,0,400,l,0,2,2,0,0,30,30,11,,,['l'],0,[0.38528089766259654],2018_Jul_09_1325,60.0673523785,go-nogo,001,33,
logos/1.jpg,properties1.xlsx,frogs/ab15.jpg,0,0,400,l,0,2,2,0,0,31,31,14,,,['l'],0,[0.3842859101459908],2018_Jul_09_1325,60.0673523785,go-nogo,001,33,
logos/1.jpg,properties1.xlsx,frogs/ab6.jpg,0,0,400,l,0,2,2,0,0,32,32,5,,,['l'],0,[0.43409558820712846],2018_Jul_09_1325,60.0673523785,go-nogo,001,33,
logos/1.jpg,properties1.xlsx,logos/1.jpg,0,0,400,a,0,2,2,0,0,33,33,83,,,['a'],0,[0.45092219812067924],2018_Jul_09_1325,60.0673523785,go-nogo,001,33,
logos/1.jpg,properties1.xlsx,frogs/ab58.jpg,0,0,400,l,0,2,2,0,0,34,34,57,,,['l'],0,[0.4505569711418502],2018_Jul_09_1325,60.0673523785,go-nogo,001,33,
logos/1.jpg,properties1.xlsx,frogs/ab68.jpg,0,0,400,l,0,2,2,0,0,35,35,66,,,['l'],0,[1.1670122669620469],2018_Jul_09_1325,60.0673523785,go-nogo,001,33,
logos/1.jpg,properties1.xlsx,frogs/ab53.jpg,0,0,400,l,0,2,2,0,0,36,36,52,,,['l'],0,[1.167270542739061],2018_Jul_09_1325,60.0673523785,go-nogo,001,33,
logos/1.jpg,properties1.xlsx,logos/1.jpg,0,0,400,a,0,2,2,0,0,37,37,89,,,['a'],0,[1.8667052373675688],2018_Jul_09_1325,60.0673523785,go-nogo,001,33,
logos/1.jpg,properties1.xlsx,logos/1.jpg,0,0,400,a,0,2,2,0,0,38,38,80,,,['a'],0,[0.6516832583256473],2018_Jul_09_1325,60.0673523785,go-nogo,001,33,
logos/1.jpg,properties1.xlsx,frogs/ab10.jpg,0,0,400,l,0,2,2,0,0,39,39,9,,,['l'],0,[0.4174982407093921],2018_Jul_09_1325,60.0673523785,go-nogo,001,33,
logos/1.jpg,properties1.xlsx,frogs/ab35.jpg,0,0,400,l,0,2,2,0,0,40,40,34,,,['l'],0,[0.5841139917774854],2018_Jul_09_1325,60.0673523785,go-nogo,001,33,
logos/1.jpg,properties1.xlsx,frogs/ab30.jpg,0,0,400,l,0,2,2,0,0,41,41,29,,,['l'],0,[0.5427415120284422],2018_Jul_09_1325,60.0673523785,go-nogo,001,33,
logos/1.jpg,properties1.xlsx,frogs/ab78.jpg,0,0,400,l,0,2,2,0,0,42,42,76,,,['l'],0,[0.6177410426953429],2018_Jul_09_1325,60.0673523785,go-nogo,001,33,
logos/1.jpg,properties1.xlsx,frogs/ab37.jpg,0,0,400,l,0,2,2,0,0,43,43,36,,,['l'],0,[0.567451222001182],2018_Jul_09_1325,60.0673523785,go-nogo,001,33,
logos/1.jpg,properties1.xlsx,frogs/ab39.jpg,0,0,400,l,0,2,2,0,0,44,44,38,,,['l'],0,[0.5840229694786103],2018_Jul_09_1325,60.0673523785,go-nogo,001,33,
logos/1.jpg,properties1.xlsx,frogs/ab13.jpg,0,0,400,l,0,2,2,0,0,45,45,12,,,['l'],0,[0.5053410178916238],2018_Jul_09_1325,60.0673523785,go-nogo,001,33,
logos/1.jpg,properties1.xlsx,frogs/ab72.jpg,0,0,400,l,0,2,2,0,0,46,46,70,,,['l'],0,[0.599950165291375],2018_Jul_09_1325,60.0673523785,go-nogo,001,33,
logos/1.jpg,properties1.xlsx,frogs/ab71.jpg,0,0,400,l,0,2,2,0,0,47,47,69,,,['l'],0,[0.40087927541753743],2018_Jul_09_1325,60.0673523785,go-nogo,001,33,
logos/1.jpg,properties1.xlsx,frogs/ab27.jpg,0,0,400,l,0,2,2,0,0,48,48,26,,,['l'],0,[0.45086189584617387],2018_Jul_09_1325,60.0673523785,go-nogo,001,33,
logos/1.jpg,properties1.xlsx,logos/1.jpg,0,0,400,a,0,2,2,0,0,49,49,88,,,['a'],0,[0.4174413517721405],2018_Jul_09_1325,60.0673523785,go-nogo,001,33,
logos/1.jpg,properties1.xlsx,frogs/ab38.jpg,0,0,400,l,0,2,2,0,0,50,50,37,,,['l'],0,[0.2509672541582404],2018_Jul_09_1325,60.0673523785,go-nogo,001,33,
logos/1.jpg,properties1.xlsx,frogs/ab69.jpg,0,0,400,l,0,2,2,0,0,51,51,67,,,['l'],0,[0.3509057572173333],2018_Jul_09_1325,60.0673523785,go-nogo,001,33,
logos/1.jpg,properties1.xlsx,frogs/ab26.jpg,0,0,400,l,0,2,2,0,0,52,52,25,,,['l'],0,[0.3342179563096579],2018_Jul_09_1325,60.0673523785,go-nogo,001,33,
logos/1.jpg,properties1.xlsx,frogs/ab80.jpg,0,0,400,l,0,2,2,0,0,53,53,78,,,['l'],0,[0.40081100869247166],2018_Jul_09_1325,60.0673523785,go-nogo,001,33,
logos/1.jpg,properties1.xlsx,frogs/ab44.jpg,0,0,400,l,0,2,2,0,0,54,54,43,,,['l'],0,[0.5674330175424984],2018_Jul_09_1325,60.0673523785,go-nogo,001,33,
logos/1.jpg,properties1.xlsx,frogs/ab45.jpg,0,0,400,l,0,2,2,0,0,55,55,44,,,['l'],0,[0.33346019566306495],2018_Jul_09_1325,60.0673523785,go-nogo,001,33,
logos/1.jpg,properties1.xlsx,frogs/ab55.jpg,0,0,400,l,0,2,2,0,0,56,56,54,,,['l'],0,[0.33423274743472575],2018_Jul_09_1325,60.0673523785,go-nogo,001,33,
logos/1.jpg,properties1.xlsx,frogs/ab29.jpg,0,0,400,l,0,2,2,0,0,57,57,28,,,['l'],0,[0.18436111732080462],2018_Jul_09_1325,60.0673523785,go-nogo,001,33,
logos/1.jpg,properties1.xlsx,frogs/ab75.jpg,0,0,400,l,0,2,2,0,0,58,58,73,,,['l'],0,[0.3343795208929805],2018_Jul_09_1325,60.0673523785,go-nogo,001,33,
logos/1.jpg,properties1.xlsx,frogs/ab9.jpg,0,0,400,l,0,2,2,0,0,59,59,8,,,['l'],0,[0.20094594925103593],2018_Jul_09_1325,60.0673523785,go-nogo,001,33,
logos/1.jpg,properties1.xlsx,frogs/ab42.jpg,0,0,400,l,0,2,2,0,0,60,60,41,,,['l'],0,[0.3675571492040035],2018_Jul_09_1325,60.0673523785,go-nogo,001,33,
logos/1.jpg,properties1.xlsx,frogs/ab70.jpg,0,0,400,l,0,2,2,0,0,61,61,68,,,['l'],0,[0.5840900984221662],2018_Jul_09_1325,60.0673523785,go-nogo,001,33,
logos/1.jpg,properties1.xlsx,frogs/ab51.jpg,0,0,400,l,0,2,2,0,0,62,62,50,,,['l'],0,[0.35086707274058426],2018_Jul_09_1325,60.0673523785,go-nogo,001,33,
logos/1.jpg,properties1.xlsx,frogs/ab81.jpg,0,0,400,l,0,2,2,0,0,63,63,79,,,['l'],0,[0.5174703082411725],2018_Jul_09_1325,60.0673523785,go-nogo,001,33,
logos/1.jpg,properties1.xlsx,frogs/ab25.jpg,0,0,400,l,0,2,2,0,0,64,64,24,,,['l'],0,[0.41733610723895254],2018_Jul_09_1325,60.0673523785,go-nogo,001,33,
logos/1.jpg,properties1.xlsx,logos/1.jpg,0,0,400,a,0,2,2,0,0,65,65,84,,,['a'],0,[0.43429299281888234],2018_Jul_09_1325,60.0673523785,go-nogo,001,33,
logos/1.jpg,properties1.xlsx,frogs/ab4.jpg,0,0,400,l,0,2,2,0,0,66,66,3,,,['l'],0,[0.16685411571597797],2018_Jul_09_1325,60.0673523785,go-nogo,001,33,
logos/1.jpg,properties1.xlsx,frogs/ab57.jpg,0,0,400,l,0,2,2,0,0,67,67,56,,,['l'],0,[0.3508977927649539],2018_Jul_09_1325,60.0673523785,go-nogo,001,33,
logos/1.jpg,properties1.xlsx,frogs/ab33.jpg,0,0,400,l,0,2,2,0,0,68,68,32,,,['l'],0,[0.2344148489228246],2018_Jul_09_1325,60.0673523785,go-nogo,001,33,
logos/1.jpg,properties1.xlsx,frogs/ab8.jpg,0,0,400,l,0,2,2,0,0,69,69,7,,,['l'],0,[0.3675452025272534],2018_Jul_09_1325,60.0673523785,go-nogo,001,33,
logos/1.jpg,properties1.xlsx,logos/1.jpg,0,0,400,a,0,2,2,0,0,70,70,81,,,['a'],0,[0.38408395441729226],2018_Jul_09_1325,60.0673523785,go-nogo,001,33,
logos/1.jpg,properties1.xlsx,frogs/ab31.jpg,0,0,400,l,0,2,2,0,0,71,71,30,,,['l'],0,[0.23413723090743588],2018_Jul_09_1325,60.0673523785,go-nogo,001,33,
logos/1.jpg,properties1.xlsx,frogs/ab34.jpg,0,0,400,l,0,2,2,0,0,72,72,33,,,['l'],0,[0.28426036701421253],2018_Jul_09_1325,60.0673523785,go-nogo,001,33,
logos/1.jpg,properties1.xlsx,logos/1.jpg,0,0,400,a,0,2,2,0,0,73,73,82,,,['a'],0,[0.3342776896952273],2018_Jul_09_1325,60.0673523785,go-nogo,001,33,
logos/1.jpg,properties1.xlsx,frogs/ab48.jpg,0,0,400,l,0,2,2,0,0,74,74,47,,,['l'],0,[0.2499870577667025],2018_Jul_09_1325,60.0673523785,go-nogo,001,33,
logos/1.jpg,properties1.xlsx,frogs/ab5.jpg,0,0,400,l,0,2,2,0,0,75,75,4,,,['l'],0,[0.40084627983378596],2018_Jul_09_1325,60.0673523785,go-nogo,001,33,
logos/1.jpg,properties1.xlsx,frogs/ab62.jpg,0,0,400,l,0,2,2,0,0,76,76,60,,,['l'],0,[0.450925611456114],2018_Jul_09_1325,60.0673523785,go-nogo,001,33,
logos/1.jpg,properties1.xlsx,frogs/ab14.jpg,0,0,400,l,0,2,2,0,0,77,77,13,,,['l'],0,[0.4509398336904269],2018_Jul_09_1325,60.0673523785,go-nogo,001,33,
logos/1.jpg,properties1.xlsx,frogs/ab56.jpg,0,0,400,l,0,2,2,0,0,78,78,55,,,['l'],0,[0.5340744824097783],2018_Jul_09_1325,60.0673523785,go-nogo,001,33,
logos/1.jpg,properties1.xlsx,frogs/ab24.jpg,0,0,400,l,0,2,2,0,0,79,79,23,,,['l'],0,[0.2177492347018415],2018_Jul_09_1325,60.0673523785,go-nogo,001,33,
logos/1.jpg,properties1.xlsx,frogs/ab46.jpg,0,0,400,l,0,2,2,0,0,80,80,45,,,['l'],0,[0.3671668910938024],2018_Jul_09_1325,60.0673523785,go-nogo,001,33,
logos/1.jpg,properties1.xlsx,frogs/ab20.jpg,0,0,400,l,0,2,2,0,0,81,81,19,,,['l'],0,[0.5007751117736916],2018_Jul_09_1325,60.0673523785,go-nogo,001,33,
logos/1.jpg,properties1.xlsx,frogs/ab77.jpg,0,0,400,l,0,2,2,0,0,82,82,75,,,['l'],0,[1.63345547388235],2018_Jul_09_1325,60.0673523785,go-nogo,001,33,
logos/1.jpg,properties1.xlsx,frogs/ab17.jpg,0,0,400,l,0,2,2,0,0,83,83,16,,,['l'],0,[0.5842050140763604],2018_Jul_09_1325,60.0673523785,go-nogo,001,33,
logos/1.jpg,properties1.xlsx,frogs/ab3.jpg,0,0,400,l,0,2,2,0,0,84,84,2,,,['l'],0,[0.5340818779714027],2018_Jul_09_1325,60.0673523785,go-nogo,001,33,
logos/1.jpg,properties1.xlsx,frogs/ab7.jpg,0,0,400,l,0,2,2,0,0,85,85,6,,,['l'],0,[0.5174344682109222],2018_Jul_09_1325,60.0673523785,go-nogo,001,33,
logos/1.jpg,properties1.xlsx,frogs/ab54.jpg,0,0,400,l,0,2,2,0,0,86,86,53,,,['l'],0,[0.48422896432020934],2018_Jul_09_1325,60.0673523785,go-nogo,001,33,
logos/1.jpg,properties1.xlsx,frogs/ab28.jpg,0,0,400,l,0,2,2,0,0,87,87,27,,,['l'],0,[0.5007455295253749],2018_Jul_09_1325,60.0673523785,go-nogo,001,33,
logos/1.jpg,properties1.xlsx,frogs/ab23.jpg,0,0,400,l,0,2,2,0,0,88,88,22,,,['l'],0,[0.3356834153400996],2018_Jul_09_1325,60.0673523785,go-nogo,001,33,
logos/1.jpg,properties1.xlsx,frogs/ab19.jpg,0,0,400,l,0,2,2,0,0,89,89,18,,,['l'],0,[0.38416246115230024],2018_Jul_09_1325,60.0673523785,go-nogo,001,33,
logos/1.jpg,properties1.xlsx,,,,,,0,2,2,0,,,,,,,,,,2018_Jul_09_1325,60.0673523785,go-nogo,001,33,
logos/4.jpg,properties4.xlsx,logos/4.jpg,0,0,400,a,0,3,3,3,0,0,0,82,space,4.92473593578,['a'],0,[0.7675956061266334],2018_Jul_09_1325,60.0673523785,go-nogo,001,33,
logos/4.jpg,properties4.xlsx,frogs/ab10.jpg,0,0,400,l,0,3,3,3,0,1,1,9,,,['l'],0,[0.367576491444197],2018_Jul_09_1325,60.0673523785,go-nogo,001,33,
logos/4.jpg,properties4.xlsx,frogs/ab51.jpg,0,0,400,l,0,3,3,3,0,2,2,50,,,['l'],0,[0.3342788274749182],2018_Jul_09_1325,60.0673523785,go-nogo,001,33,
logos/4.jpg,properties4.xlsx,frogs/ab13.jpg,0,0,400,l,0,3,3,3,0,3,3,12,,,['l'],0,[0.33418325405909854],2018_Jul_09_1325,60.0673523785,go-nogo,001,33,
logos/4.jpg,properties4.xlsx,frogs/ab15.jpg,0,0,400,l,0,3,3,3,0,4,4,14,,,['l'],0,[0.3020688799879281],2018_Jul_09_1325,60.0673523785,go-nogo,001,33,
logos/4.jpg,properties4.xlsx,frogs/ab56.jpg,0,0,400,l,0,3,3,3,0,5,5,55,,,['l'],0,[0.43415077047575323],2018_Jul_09_1325,60.0673523785,go-nogo,001,33,
logos/4.jpg,properties4.xlsx,frogs/ab57.jpg,0,0,400,l,0,3,3,3,0,6,6,56,,,['l'],0,[0.28426264257177536],2018_Jul_09_1325,60.0673523785,go-nogo,001,33,
logos/4.jpg,properties4.xlsx,logos/4.jpg,0,0,400,a,0,3,3,3,0,7,7,89,,,['a'],0,[0.8173205196690105],2018_Jul_09_1325,60.0673523785,go-nogo,001,33,
logos/4.jpg,properties4.xlsx,frogs/ab25.jpg,0,0,400,l,0,3,3,3,0,8,8,24,,,['l'],0,[0.633885554248991],2018_Jul_09_1325,60.0673523785,go-nogo,001,33,
logos/4.jpg,properties4.xlsx,frogs/ab32.jpg,0,0,400,l,0,3,3,3,0,9,9,31,,,['l'],0,[0.48412428867413837],2018_Jul_09_1325,60.0673523785,go-nogo,001,33,
logos/4.jpg,properties4.xlsx,frogs/ab31.jpg,0,0,400,l,0,3,3,3,0,10,10,30,,,['l'],0,[0.450781682446177],2018_Jul_09_1325,60.0673523785,go-nogo,001,33,
logos/4.jpg,properties4.xlsx,frogs/ab53.jpg,0,0,400,l,0,3,3,3,0,11,11,52,,,['l'],0,[0.3675099313859391],2018_Jul_09_1325,60.0673523785,go-nogo,001,33,
logos/4.jpg,properties4.xlsx,frogs/ab76.jpg,0,0,400,l,0,3,3,3,0,12,12,74,,,['l'],0,[0.4333822009302821],2018_Jul_09_1325,60.0673523785,go-nogo,001,33,
logos/4.jpg,properties4.xlsx,logos/4.jpg,0,0,400,a,0,3,3,3,0,13,13,80,,,['a'],0,[0.4833631146921107],2018_Jul_09_1325,60.0673523785,go-nogo,001,33,
logos/4.jpg,properties4.xlsx,frogs/ab23.jpg,0,0,400,l,0,3,3,3,0,14,14,22,,,['l'],0,[0.4340079792418692],2018_Jul_09_1325,60.0673523785,go-nogo,001,33,
logos/4.jpg,properties4.xlsx,frogs/ab44.jpg,0,0,400,l,0,3,3,3,0,15,15,43,,,['l'],0,[0.46749394559446955],2018_Jul_09_1325,60.0673523785,go-nogo,001,33,
logos/4.jpg,properties4.xlsx,frogs/ab50.jpg,0,0,400,l,0,3,3,3,0,16,16,49,,,['l'],0,[0.38957999466401816],2018_Jul_09_1325,60.0673523785,go-nogo,001,33,
logos/4.jpg,properties4.xlsx,frogs/ab34.jpg,0,0,400,l,0,3,3,3,0,17,17,33,,,['l'],0,[0.5338628555637115],2018_Jul_09_1325,60.0673523785,go-nogo,001,33,
logos/4.jpg,properties4.xlsx,frogs/ab19.jpg,0,0,400,l,0,3,3,3,0,18,18,18,,,['l'],0,[0.43418433494844066],2018_Jul_09_1325,60.0673523785,go-nogo,001,33,
logos/4.jpg,properties4.xlsx,logos/4.jpg,0,0,400,a,0,3,3,3,0,19,19,87,,,['a'],0,[0.1844618107406859],2018_Jul_09_1325,60.0673523785,go-nogo,001,33,
logos/4.jpg,properties4.xlsx,logos/4.jpg,0,0,400,a,0,3,3,3,0,20,20,86,,,['a'],0,[0.5840980628745456],2018_Jul_09_1325,60.0673523785,go-nogo,001,33,
logos/4.jpg,properties4.xlsx,frogs/ab36.jpg,0,0,400,l,0,3,3,3,0,21,21,35,,,['l'],0,[0.5006875028084323],2018_Jul_09_1325,60.0673523785,go-nogo,001,33,
logos/4.jpg,properties4.xlsx,frogs/ab3.jpg,0,0,400,l,0,3,3,3,0,22,22,2,,,['l'],0,[0.4505706244872272],2018_Jul_09_1325,60.0673523785,go-nogo,001,33,
logos/4.jpg,properties4.xlsx,frogs/ab63.jpg,0,0,400,l,0,3,3,3,0,23,23,61,,,['l'],0,[1.3003815541051154],2018_Jul_09_1325,60.0673523785,go-nogo,001,33,
logos/4.jpg,properties4.xlsx,frogs/ab6.jpg,0,0,400,l,0,3,3,3,0,24,24,5,,,['l'],0,[0.41733610723895254],2018_Jul_09_1325,60.0673523785,go-nogo,001,33,
logos/4.jpg,properties4.xlsx,frogs/ab60.jpg,0,0,400,l,0,3,3,3,0,25,25,58,,,['l'],0,[0.41748344958614325],2018_Jul_09_1325,60.0673523785,go-nogo,001,33,
logos/4.jpg,properties4.xlsx,frogs/ab14.jpg,0,0,400,l,0,3,3,3,0,26,26,13,,,['l'],0,[0.4505797267156595],2018_Jul_09_1325,60.0673523785,go-nogo,001,33,
logos/4.jpg,properties4.xlsx,frogs/ab22.jpg,0,0,400,l,0,3,3,3,0,27,27,21,,,['l'],0,[0.4507128468303563],2018_Jul_09_1325,60.0673523785,go-nogo,001,33,
logos/4.jpg,properties4.xlsx,frogs/ab26.jpg,0,0,400,l,0,3,3,3,0,28,28,25,,,['l'],0,[0.5174680326836096],2018_Jul_09_1325,60.0673523785,go-nogo,001,33,
logos/4.jpg,properties4.xlsx,frogs/ab29.jpg,0,0,400,l,0,3,3,3,0,29,29,28,,,['l'],0,[0.5342844025908562],2018_Jul_09_1325,60.0673523785,go-nogo,001,33,
logos/4.jpg,properties4.xlsx,logos/4.jpg,0,0,400,a,0,3,3,3,0,30,30,81,,,['a'],0,[0.43406429929018486],2018_Jul_09_1325,60.0673523785,go-nogo,001,33,
logos/4.jpg,properties4.xlsx,frogs/ab68.jpg,0,0,400,l,0,3,3,3,0,31,31,66,,,['l'],0,[0.35068047702407057],2018_Jul_09_1325,60.0673523785,go-nogo,001,33,
logos/4.jpg,properties4.xlsx,frogs/ab43.jpg,0,0,400,l,0,3,3,3,0,32,32,42,,,['l'],0,[0.38416758115636185],2018_Jul_09_1325,60.0673523785,go-nogo,001,33,
logos/4.jpg,properties4.xlsx,frogs/ab58.jpg,0,0,400,l,0,3,3,3,0,33,33,57,,,['l'],0,[0.5192486564264982],2018_Jul_09_1325,60.0673523785,go-nogo,001,33,
logos/4.jpg,properties4.xlsx,frogs/ab28.jpg,0,0,400,l,0,3,3,3,0,34,34,27,,,['l'],0,[0.3840600610656111],2018_Jul_09_1325,60.0673523785,go-nogo,001,33,
logos/4.jpg,properties4.xlsx,frogs/ab46.jpg,0,0,400,l,0,3,3,3,0,35,35,45,,,['l'],0,[0.4832692479449179],2018_Jul_09_1325,60.0673523785,go-nogo,001,33,
logos/4.jpg,properties4.xlsx,frogs/ab49.jpg,0,0,400,l,0,3,3,3,0,36,36,48,,,['l'],0,[1.633468558336972],2018_Jul_09_1325,60.0673523785,go-nogo,001,33,
logos/4.jpg,properties4.xlsx,frogs/ab11.jpg,0,0,400,l,0,3,3,3,0,37,37,10,,,['l'],0,[0.4008678976279043],2018_Jul_09_1325,60.0673523785,go-nogo,001,33,
logos/4.jpg,properties4.xlsx,logos/4.jpg,0,0,400,a,0,3,3,3,0,38,38,88,,,['a'],0,[0.3511680152187182],2018_Jul_09_1325,60.0673523785,go-nogo,001,33,
logos/4.jpg,properties4.xlsx,frogs/ab9.jpg,0,0,400,l,0,3,3,3,0,39,39,8,,,['l'],0,[0.38417782116630406],2018_Jul_09_1325,60.0673523785,go-nogo,001,33,
logos/4.jpg,properties4.xlsx,frogs/ab41.jpg,0,0,400,l,0,3,3,3,0,40,40,40,,,['l'],0,[0.35088698386789474],2018_Jul_09_1325,60.0673523785,go-nogo,001,33,
logos/4.jpg,properties4.xlsx,frogs/ab5.jpg,0,0,400,l,0,3,3,3,0,41,41,4,,,['l'],0,[0.3673642957055563],2018_Jul_09_1325,60.0673523785,go-nogo,001,33,
logos/4.jpg,properties4.xlsx,logos/4.jpg,0,0,400,a,0,3,3,3,0,42,42,83,,,['a'],0,[0.31753186207060935],2018_Jul_09_1325,60.0673523785,go-nogo,001,33,
logos/4.jpg,properties4.xlsx,frogs/ab17.jpg,0,0,400,l,0,3,3,3,0,43,43,16,,,['l'],0,[0.36768571820357465],2018_Jul_09_1325,60.0673523785,go-nogo,001,33,
logos/4.jpg,properties4.xlsx,frogs/ab74.jpg,0,0,400,l,0,3,3,3,0,44,44,72,,,['l'],0,[0.4174447651075752],2018_Jul_09_1325,60.0673523785,go-nogo,001,33,
logos/4.jpg,properties4.xlsx,frogs/ab2.jpg,0,0,400,l,0,3,3,3,0,45,45,1,,,['l'],0,[0.4006835774725914],2018_Jul_09_1325,60.0673523785,go-nogo,001,33,
logos/4.jpg,properties4.xlsx,frogs/ab47.jpg,0,0,400,l,0,3,3,3,0,46,46,46,,,['l'],0,[0.4176273785978992],2018_Jul_09_1325,60.0673523785,go-nogo,001,33,
logos/4.jpg,properties4.xlsx,frogs/ab1.jpg,0,0,400,l,0,3,3,3,0,47,47,0,,,['l'],0,[0.4010391333322332],2018_Jul_09_1325,60.0673523785,go-nogo,001,33,
logos/4.jpg,properties4.xlsx,frogs/ab4.jpg,0,0,400,l,0,3,3,3,0,48,48,3,,,['l'],0,[0.4499658950808225],2018_Jul_09_1325,60.0673523785,go-nogo,001,33,
logos/4.jpg,properties4.xlsx,frogs/ab30.jpg,0,0,400,l,0,3,3,3,0,49,49,29,,,['l'],0,[0.5010589875710139],2018_Jul_09_1325,60.0673523785,go-nogo,001,33,
logos/4.jpg,properties4.xlsx,frogs/ab18.jpg,0,0,400,l,0,3,3,3,0,50,50,17,,,['l'],0,[1.167074844792296],2018_Jul_09_1325,60.0673523785,go-nogo,001,33,
logos/4.jpg,properties4.xlsx,frogs/ab65.jpg,0,0,400,l,0,3,3,3,0,51,51,63,,,['l'],0,[0.4674438833299064],2018_Jul_09_1325,60.0673523785,go-nogo,001,33,
logos/4.jpg,properties4.xlsx,frogs/ab48.jpg,0,0,400,l,0,3,3,3,0,52,52,47,,,['l'],0,[0.41742997398614534],2018_Jul_09_1325,60.0673523785,go-nogo,001,33,
logos/4.jpg,properties4.xlsx,frogs/ab61.jpg,0,0,400,l,0,3,3,3,0,53,53,59,,,['l'],0,[0.4841669553788961],2018_Jul_09_1325,60.0673523785,go-nogo,001,33,
logos/4.jpg,properties4.xlsx,frogs/ab75.jpg,0,0,400,l,0,3,3,3,0,54,54,73,,,['l'],0,[0.5008058317980613],2018_Jul_09_1325,60.0673523785,go-nogo,001,33,
logos/4.jpg,properties4.xlsx,logos/4.jpg,0,0,400,a,0,3,3,3,0,55,55,84,,,['a'],0,[0.45005919293907937],2018_Jul_09_1325,60.0673523785,go-nogo,001,33,
logos/4.jpg,properties4.xlsx,frogs/ab38.jpg,0,0,400,l,0,3,3,3,0,56,56,37,,,['l'],0,[0.31752275984217704],2018_Jul_09_1325,60.0673523785,go-nogo,001,33,
logos/4.jpg,properties4.xlsx,frogs/ab42.jpg,0,0,400,l,0,3,3,3,0,57,57,41,,,['l'],0,[0.30079968779318733],2018_Jul_09_1325,60.0673523785,go-nogo,001,33,
logos/4.jpg,properties4.xlsx,frogs/ab69.jpg,0,0,400,l,0,3,3,3,0,58,58,67,,,['l'],0,[0.20070189571015362],2018_Jul_09_1325,60.0673523785,go-nogo,001,33,
logos/4.jpg,properties4.xlsx,frogs/ab64.jpg,0,0,400,l,0,3,3,3,0,59,59,62,,,['l'],0,[1.6668350579220714],2018_Jul_09_1325,60.0673523785,go-nogo,001,33,
logos/4.jpg,properties4.xlsx,frogs/ab55.jpg,0,0,400,l,0,3,3,3,0,60,60,54,,,['l'],0,[0.334294756376039],2018_Jul_09_1325,60.0673523785,go-nogo,001,33,
logos/4.jpg,properties4.xlsx,frogs/ab81.jpg,0,0,400,l,0,3,3,3,0,61,61,79,,,['l'],0,[0.3342281963196001],2018_Jul_09_1325,60.0673523785,go-nogo,001,33,
logos/4.jpg,properties4.xlsx,frogs/ab73.jpg,0,0,400,l,0,3,3,3,0,62,62,71,,,['l'],0,[0.40077346199359454],2018_Jul_09_1325,60.0673523785,go-nogo,001,33,
logos/4.jpg,properties4.xlsx,frogs/ab33.jpg,0,0,400,l,0,3,3,3,0,63,63,32,,,['l'],0,[0.36759298923425376],2018_Jul_09_1325,60.0673523785,go-nogo,001,33,
logos/4.jpg,properties4.xlsx,frogs/ab66.jpg,0,0,400,l,0,3,3,3,0,64,64,64,,,['l'],0,[0.41689863130886806],2018_Jul_09_1325,60.0673523785,go-nogo,001,33,
logos/4.jpg,properties4.xlsx,frogs/ab78.jpg,0,0,400,l,0,3,3,3,0,65,65,76,,,['l'],0,[0.46753433673984546],2018_Jul_09_1325,60.0673523785,go-nogo,001,33,
logos/4.jpg,properties4.xlsx,frogs/ab52.jpg,0,0,400,l,0,3,3,3,0,66,66,51,,,['l'],0,[0.33405923617647204],2018_Jul_09_1325,60.0673523785,go-nogo,001,33,
logos/4.jpg,properties4.xlsx,frogs/ab79.jpg,0,0,400,l,0,3,3,3,0,67,67,77,,,['l'],0,[0.36750026026675187],2018_Jul_09_1325,60.0673523785,go-nogo,001,33,
logos/4.jpg,properties4.xlsx,frogs/ab24.jpg,0,0,400,l,0,3,3,3,0,68,68,23,,,['l'],0,[0.417551716311209],2018_Jul_09_1325,60.0673523785,go-nogo,001,33,
logos/4.jpg,properties4.xlsx,frogs/ab80.jpg,0,0,400,l,0,3,3,3,0,69,69,78,,,['l'],0,[0.45074072241004615],2018_Jul_09_1325,60.0673523785,go-nogo,001,33,
logos/4.jpg,properties4.xlsx,frogs/ab21.jpg,0,0,400,l,0,3,3,3,0,70,70,20,,,['l'],0,[0.38430297682862147],2018_Jul_09_1325,60.0673523785,go-nogo,001,33,
logos/4.jpg,properties4.xlsx,frogs/ab54.jpg,0,0,400,l,0,3,3,3,0,71,71,53,,,['l'],0,[0.3842278834308672],2018_Jul_09_1325,60.0673523785,go-nogo,001,33,
logos/4.jpg,properties4.xlsx,frogs/ab45.jpg,0,0,400,l,0,3,3,3,0,72,72,44,,,['l'],0,[0.4006056396265194],2018_Jul_09_1325,60.0673523785,go-nogo,001,33,
logos/4.jpg,properties4.xlsx,frogs/ab20.jpg,0,0,400,l,0,3,3,3,0,73,73,19,,,['l'],0,[0.7165793137028231],2018_Jul_09_1325,60.0673523785,go-nogo,001,33,
logos/4.jpg,properties4.xlsx,frogs/ab40.jpg,0,0,400,l,0,3,3,3,0,74,74,39,,,['l'],0,[0.4833397902275465],2018_Jul_09_1325,60.0673523785,go-nogo,001,33,
logos/4.jpg,properties4.xlsx,frogs/ab67.jpg,0,0,400,l,0,3,3,3,0,75,75,65,,,['l'],0,[0.43421619275250123],2018_Jul_09_1325,60.0673523785,go-nogo,001,33,
logos/4.jpg,properties4.xlsx,frogs/ab16.jpg,0,0,400,l,0,3,3,3,0,76,76,15,,,['l'],0,[0.5499891626568569],2018_Jul_09_1325,60.0673523785,go-nogo,001,33,
logos/4.jpg,properties4.xlsx,logos/4.jpg,0,0,400,a,0,3,3,3,0,77,77,85,,,['a'],0,[0.4509921715125529],2018_Jul_09_1325,60.0673523785,go-nogo,001,33,
logos/4.jpg,properties4.xlsx,frogs/ab7.jpg,0,0,400,l,0,3,3,3,0,78,78,6,,,['l'],0,[0.46756960788115975],2018_Jul_09_1325,60.0673523785,go-nogo,001,33,
logos/4.jpg,properties4.xlsx,frogs/ab77.jpg,0,0,400,l,0,3,3,3,0,79,79,75,,,['l'],0,[0.3507988060155185],2018_Jul_09_1325,60.0673523785,go-nogo,001,33,
logos/4.jpg,properties4.xlsx,frogs/ab70.jpg,0,0,400,l,0,3,3,3,0,80,80,68,,,['l'],0,[0.45071853572517284],2018_Jul_09_1325,60.0673523785,go-nogo,001,33,
logos/4.jpg,properties4.xlsx,frogs/ab35.jpg,0,0,400,l,0,3,3,3,0,81,81,34,,,['l'],0,[0.48339212804967246],2018_Jul_09_1325,60.0673523785,go-nogo,001,33,
logos/4.jpg,properties4.xlsx,frogs/ab71.jpg,0,0,400,l,0,3,3,3,0,82,82,69,,,['l'],0,[0.3841863545058004],2018_Jul_09_1325,60.0673523785,go-nogo,001,33,
logos/4.jpg,properties4.xlsx,frogs/ab62.jpg,0,0,400,l,0,3,3,3,0,83,83,60,,,['l'],0,[0.3843666924367426],2018_Jul_09_1325,60.0673523785,go-nogo,001,33,
logos/4.jpg,properties4.xlsx,frogs/ab37.jpg,0,0,400,l,0,3,3,3,0,84,84,36,,,['l'],0,[0.400963471043724],2018_Jul_09_1325,60.0673523785,go-nogo,001,33,
logos/4.jpg,properties4.xlsx,frogs/ab39.jpg,0,0,400,l,0,3,3,3,0,85,85,38,,,['l'],0,[0.2677193395647919],2018_Jul_09_1325,60.0673523785,go-nogo,001,33,
logos/4.jpg,properties4.xlsx,frogs/ab12.jpg,0,0,400,l,0,3,3,3,0,86,86,11,,,['l'],0,[0.33403306726359006],2018_Jul_09_1325,60.0673523785,go-nogo,001,33,
logos/4.jpg,properties4.xlsx,frogs/ab27.jpg,0,0,400,l,0,3,3,3,0,87,87,26,,,['l'],0,[0.3674962780405622],2018_Jul_09_1325,60.0673523785,go-nogo,001,33,
logos/4.jpg,properties4.xlsx,frogs/ab8.jpg,0,0,400,l,0,3,3,3,0,88,88,7,,,['l'],0,[0.2174710477975168],2018_Jul_09_1325,60.0673523785,go-nogo,001,33,
logos/4.jpg,properties4.xlsx,frogs/ab72.jpg,0,0,400,l,0,3,3,3,0,89,89,70,,,['l'],0,[0.4841185997811408],2018_Jul_09_1325,60.0673523785,go-nogo,001,33,
logos/4.jpg,properties4.xlsx,,,,,,0,3,3,3,,,,,,,,,,2018_Jul_09_1325,60.0673523785,go-nogo,001,33,
