pix,source,image1,x,y,size,answer,trials_2.thisRepN,trials_2.thisTrialN,trials_2.thisN,trials_2.thisIndex,trials.thisRepN,trials.thisTrialN,trials.thisN,trials.thisIndex,key_resp_3.keys,key_resp_3.rt,key_resp_2.keys,key_resp_2.corr,key_resp_2.rt,date,frameRate,expName,session,participant,
logos/4.jpg,properties4.xlsx,frogs/ab39.jpg,0,0,400,l,0,0,0,3,0,0,0,38,space,10.026717777,['l'],0,[0.16739397698984249],2018_Jul_09_0624,60.1573930141,go-nogo,001,34,
logos/4.jpg,properties4.xlsx,frogs/ab75.jpg,0,0,400,l,0,0,0,3,0,1,1,73,,,['l'],0,[1.2835470490754233],2018_Jul_09_0624,60.1573930141,go-nogo,001,34,
logos/4.jpg,properties4.xlsx,frogs/ab34.jpg,0,0,400,l,0,0,0,3,0,2,2,33,,,['l'],0,[0.11704467614617897],2018_Jul_09_0624,60.1573930141,go-nogo,001,34,
logos/4.jpg,properties4.xlsx,frogs/ab66.jpg,0,0,400,l,0,0,0,3,0,3,3,64,,,['l'],0,[0.3840814313880401],2018_Jul_09_0624,60.1573930141,go-nogo,001,34,
logos/4.jpg,properties4.xlsx,frogs/ab4.jpg,0,0,400,l,0,0,0,3,0,4,4,3,,,['l'],0,[0.21699536570667988],2018_Jul_09_0624,60.1573930141,go-nogo,001,34,
logos/4.jpg,properties4.xlsx,logos/4.jpg,0,0,400,a,0,0,0,3,0,5,5,80,,,['a'],0,[0.20066133994987467],2018_Jul_09_0624,60.1573930141,go-nogo,001,34,
logos/4.jpg,properties4.xlsx,frogs/ab61.jpg,0,0,400,l,0,0,0,3,0,6,6,59,,,['l'],0,[0.08445918055804214],2018_Jul_09_0624,60.1573930141,go-nogo,001,34,
logos/4.jpg,properties4.xlsx,frogs/ab64.jpg,0,0,400,l,0,0,0,3,0,7,7,62,,,['l'],0,[0.30066290182003286],2018_Jul_09_0624,60.1573930141,go-nogo,001,34,
logos/4.jpg,properties4.xlsx,frogs/ab53.jpg,0,0,400,l,0,0,0,3,0,8,8,52,,,['l'],0,[0.2839526887619286],2018_Jul_09_0624,60.1573930141,go-nogo,001,34,
logos/4.jpg,properties4.xlsx,frogs/ab19.jpg,0,0,400,l,0,0,0,3,0,9,9,18,,,['l'],0,[0.2672380132135004],2018_Jul_09_0624,60.1573930141,go-nogo,001,34,
logos/4.jpg,properties4.xlsx,frogs/ab23.jpg,0,0,400,l,0,0,0,3,0,10,10,22,,,['l'],0,[0.5674042406972148],2018_Jul_09_0624,60.1573930141,go-nogo,001,34,
logos/4.jpg,properties4.xlsx,frogs/ab5.jpg,0,0,400,l,0,0,0,3,0,11,11,4,,,['l'],0,[0.2673955388527247],2018_Jul_09_0624,60.1573930141,go-nogo,001,34,
logos/4.jpg,properties4.xlsx,frogs/ab7.jpg,0,0,400,l,0,0,0,3,0,12,12,6,,,['l'],0,[0.33424888605077285],2018_Jul_09_0624,60.1573930141,go-nogo,001,34,
logos/4.jpg,properties4.xlsx,frogs/ab3.jpg,0,0,400,l,0,0,0,3,0,13,13,2,,,['l'],0,[0.4174291190429358],2018_Jul_09_0624,60.1573930141,go-nogo,001,34,
logos/4.jpg,properties4.xlsx,frogs/ab42.jpg,0,0,400,l,0,0,0,3,0,14,14,41,,,['l'],0,[0.250684879552864],2018_Jul_09_0624,60.1573930141,go-nogo,001,34,
logos/4.jpg,properties4.xlsx,frogs/ab51.jpg,0,0,400,l,0,0,0,3,0,15,15,50,,,['l'],0,[0.3009217258222634],2018_Jul_09_0624,60.1573930141,go-nogo,001,34,
logos/4.jpg,properties4.xlsx,frogs/ab12.jpg,0,0,400,l,0,0,0,3,0,16,16,11,,,['l'],0,[0.2840120397740975],2018_Jul_09_0624,60.1573930141,go-nogo,001,34,
logos/4.jpg,properties4.xlsx,frogs/ab72.jpg,0,0,400,l,0,0,0,3,0,17,17,70,,,['l'],0,[0.2501565215861774],2018_Jul_09_0624,60.1573930141,go-nogo,001,34,
logos/4.jpg,properties4.xlsx,frogs/ab32.jpg,0,0,400,l,0,0,0,3,0,18,18,31,,,['l'],0,[0.3005357210568036],2018_Jul_09_0624,60.1573930141,go-nogo,001,34,
logos/4.jpg,properties4.xlsx,logos/4.jpg,0,0,400,a,0,0,0,3,0,19,19,89,,,['l'],0,[0.9170669885570533],2018_Jul_09_0624,60.1573930141,go-nogo,001,34,
logos/4.jpg,properties4.xlsx,frogs/ab26.jpg,0,0,400,l,0,0,0,3,0,20,20,25,,,['l'],0,[0.267511563411972],2018_Jul_09_0624,60.1573930141,go-nogo,001,34,
logos/4.jpg,properties4.xlsx,frogs/ab18.jpg,0,0,400,l,0,0,0,3,0,21,21,17,,,['l'],0,[0.2507112081948435],2018_Jul_09_0624,60.1573930141,go-nogo,001,34,
logos/4.jpg,properties4.xlsx,frogs/ab9.jpg,0,0,400,l,0,0,0,3,0,22,22,8,,,['l'],0,[0.7496060743360431],2018_Jul_09_0624,60.1573930141,go-nogo,001,34,
logos/4.jpg,properties4.xlsx,logos/4.jpg,0,0,400,a,0,0,0,3,0,23,23,83,,,['a'],0,[0.10122115841659252],2018_Jul_09_0624,60.1573930141,go-nogo,001,34,
logos/4.jpg,properties4.xlsx,frogs/ab55.jpg,0,0,400,l,0,0,0,3,0,24,24,54,,,['l'],0,[0.417249727230228],2018_Jul_09_0624,60.1573930141,go-nogo,001,34,
logos/4.jpg,properties4.xlsx,frogs/ab38.jpg,0,0,400,l,0,0,0,3,0,25,25,37,,,['l'],0,[0.35076855109946337],2018_Jul_09_0624,60.1573930141,go-nogo,001,34,
logos/4.jpg,properties4.xlsx,frogs/ab6.jpg,0,0,400,l,0,0,0,3,0,26,26,5,,,['l'],0,[0.26743748619628605],2018_Jul_09_0624,60.1573930141,go-nogo,001,34,
logos/4.jpg,properties4.xlsx,frogs/ab28.jpg,0,0,400,l,0,0,0,3,0,27,27,27,,,['l'],0,[0.5171665019224747],2018_Jul_09_0624,60.1573930141,go-nogo,001,34,
logos/4.jpg,properties4.xlsx,frogs/ab79.jpg,0,0,400,l,0,0,0,3,0,28,28,77,,,['l'],0,[0.28422623895312427],2018_Jul_09_0624,60.1573930141,go-nogo,001,34,
logos/4.jpg,properties4.xlsx,frogs/ab65.jpg,0,0,400,l,0,0,0,3,0,29,29,63,,,['l'],0,[0.05120654377969913],2018_Jul_09_0624,60.1573930141,go-nogo,001,34,
logos/4.jpg,properties4.xlsx,frogs/ab80.jpg,0,0,400,l,0,0,0,3,0,30,30,78,,,['l'],0,[0.335567103473295],2018_Jul_09_0624,60.1573930141,go-nogo,001,34,
logos/4.jpg,properties4.xlsx,logos/4.jpg,0,0,400,a,0,0,0,3,0,31,31,85,,,['a'],0,[0.11666224137297831],2018_Jul_09_0624,60.1573930141,go-nogo,001,34,
logos/4.jpg,properties4.xlsx,frogs/ab15.jpg,0,0,400,l,0,0,0,3,0,32,32,14,,,['l'],0,[0.2671126174464007],2018_Jul_09_0624,60.1573930141,go-nogo,001,34,
logos/4.jpg,properties4.xlsx,frogs/ab13.jpg,0,0,400,l,0,0,0,3,0,33,33,12,,,['l'],0,[0.200747019618575],2018_Jul_09_0624,60.1573930141,go-nogo,001,34,
logos/4.jpg,properties4.xlsx,frogs/ab30.jpg,0,0,400,l,0,0,0,3,0,34,34,29,,,['l'],0,[0.2507491392971133],2018_Jul_09_0624,60.1573930141,go-nogo,001,34,
logos/4.jpg,properties4.xlsx,frogs/ab11.jpg,0,0,400,l,0,0,0,3,0,35,35,10,,,['l'],0,[0.20248872665251838],2018_Jul_09_0624,60.1573930141,go-nogo,001,34,
logos/4.jpg,properties4.xlsx,frogs/ab50.jpg,0,0,400,l,0,0,0,3,0,36,36,49,,,['l'],0,[0.20144316693767905],2018_Jul_09_0624,60.1573930141,go-nogo,001,34,
logos/4.jpg,properties4.xlsx,frogs/ab54.jpg,0,0,400,l,0,0,0,3,0,37,37,53,,,['l'],0,[0.03429775024414994],2018_Jul_09_0624,60.1573930141,go-nogo,001,34,
logos/4.jpg,properties4.xlsx,frogs/ab1.jpg,0,0,400,l,0,0,0,3,0,38,38,0,,,['l'],0,[0.13483436379465275],2018_Jul_09_0624,60.1573930141,go-nogo,001,34,
logos/4.jpg,properties4.xlsx,frogs/ab36.jpg,0,0,400,l,0,0,0,3,0,39,39,35,,,['l'],0,[0.5498644520921516],2018_Jul_09_0624,60.1573930141,go-nogo,001,34,
logos/4.jpg,properties4.xlsx,frogs/ab29.jpg,0,0,400,l,0,0,0,3,0,40,40,28,,,['l'],0,[0.2673169991612667],2018_Jul_09_0624,60.1573930141,go-nogo,001,34,
logos/4.jpg,properties4.xlsx,logos/4.jpg,0,0,400,a,0,0,0,3,0,41,41,81,,,['a'],0,[0.13401862193859415],2018_Jul_09_0624,60.1573930141,go-nogo,001,34,
logos/4.jpg,properties4.xlsx,frogs/ab2.jpg,0,0,400,l,0,0,0,3,0,42,42,1,,,['a'],0,[0.10614506193087436],2018_Jul_09_0624,60.1573930141,go-nogo,001,34,
logos/4.jpg,properties4.xlsx,frogs/ab44.jpg,0,0,400,l,0,0,0,3,0,43,43,43,,,['l'],0,[0.20146547935291892],2018_Jul_09_0624,60.1573930141,go-nogo,001,34,
logos/4.jpg,properties4.xlsx,frogs/ab35.jpg,0,0,400,l,0,0,0,3,0,44,44,34,,,['l'],0,[0.21631394459109288],2018_Jul_09_0624,60.1573930141,go-nogo,001,34,
logos/4.jpg,properties4.xlsx,frogs/ab71.jpg,0,0,400,l,0,0,0,3,0,45,45,69,,,['l'],0,[0.20099736490374198],2018_Jul_09_0624,60.1573930141,go-nogo,001,34,
logos/4.jpg,properties4.xlsx,frogs/ab25.jpg,0,0,400,l,0,0,0,3,0,46,46,24,,,['l'],0,[0.20100896735675633],2018_Jul_09_0624,60.1573930141,go-nogo,001,34,
logos/4.jpg,properties4.xlsx,frogs/ab46.jpg,0,0,400,l,0,0,0,3,0,47,47,45,,,['l'],0,[0.2174795450991951],2018_Jul_09_0624,60.1573930141,go-nogo,001,34,
logos/4.jpg,properties4.xlsx,frogs/ab56.jpg,0,0,400,l,0,0,0,3,0,48,48,55,,,['l'],0,[0.9693061508587562],2018_Jul_09_0624,60.1573930141,go-nogo,001,34,
logos/4.jpg,properties4.xlsx,frogs/ab52.jpg,0,0,400,l,0,0,0,3,0,49,49,51,,,['l'],0,[0.26802385643532034],2018_Jul_09_0624,60.1573930141,go-nogo,001,34,
logos/4.jpg,properties4.xlsx,frogs/ab22.jpg,0,0,400,l,0,0,0,3,0,50,50,21,,,['l'],0,[0.21750096500909422],2018_Jul_09_0624,60.1573930141,go-nogo,001,34,
logos/4.jpg,properties4.xlsx,frogs/ab17.jpg,0,0,400,l,0,0,0,3,0,51,51,16,,,['l'],0,[0.35083816583210137],2018_Jul_09_0624,60.1573930141,go-nogo,001,34,
logos/4.jpg,properties4.xlsx,frogs/ab24.jpg,0,0,400,l,0,0,0,3,0,52,52,23,,,['l'],0,[0.4320205452677328],2018_Jul_09_0624,60.1573930141,go-nogo,001,34,
logos/4.jpg,properties4.xlsx,frogs/ab67.jpg,0,0,400,l,0,0,0,3,0,53,53,65,,,['l'],0,[0.20073675591265783],2018_Jul_09_0624,60.1573930141,go-nogo,001,34,
logos/4.jpg,properties4.xlsx,frogs/ab62.jpg,0,0,400,l,0,0,0,3,0,54,54,60,,,['l'],0,[0.2509575372459949],2018_Jul_09_0624,60.1573930141,go-nogo,001,34,
logos/4.jpg,properties4.xlsx,frogs/ab33.jpg,0,0,400,l,0,0,0,3,0,55,55,32,,,['l'],0,[0.2666462879933533],2018_Jul_09_0624,60.1573930141,go-nogo,001,34,
logos/4.jpg,properties4.xlsx,frogs/ab48.jpg,0,0,400,l,0,0,0,3,0,56,56,47,,,['l'],0,[0.2179637244771584],2018_Jul_09_0624,60.1573930141,go-nogo,001,34,
logos/4.jpg,properties4.xlsx,frogs/ab41.jpg,0,0,400,l,0,0,0,3,0,57,57,40,,,['l'],0,[0.4007978919253219],2018_Jul_09_0624,60.1573930141,go-nogo,001,34,
logos/4.jpg,properties4.xlsx,frogs/ab77.jpg,0,0,400,l,0,0,0,3,0,58,58,75,,,['l'],0,[0.3173454474817845],2018_Jul_09_0624,60.1573930141,go-nogo,001,34,
logos/4.jpg,properties4.xlsx,logos/4.jpg,0,0,400,a,0,0,0,3,0,59,59,87,,,['a'],0,[0.017851716162113007],2018_Jul_09_0624,60.1573930141,go-nogo,001,34,
logos/4.jpg,properties4.xlsx,frogs/ab20.jpg,0,0,400,l,0,0,0,3,0,60,60,19,,,['l'],0,[0.45075672552047763],2018_Jul_09_0624,60.1573930141,go-nogo,001,34,
logos/4.jpg,properties4.xlsx,frogs/ab27.jpg,0,0,400,l,0,0,0,3,0,61,61,26,,,['l'],0,[0.1510822636410012],2018_Jul_09_0624,60.1573930141,go-nogo,001,34,
logos/4.jpg,properties4.xlsx,frogs/ab69.jpg,0,0,400,l,0,0,0,3,0,62,62,67,,,['l'],0,[0.001081259579223115],2018_Jul_09_0624,60.1573930141,go-nogo,001,34,
logos/4.jpg,properties4.xlsx,logos/4.jpg,0,0,400,a,0,0,0,3,0,63,63,88,,,['a'],0,[0.03474578350869706],2018_Jul_09_0624,60.1573930141,go-nogo,001,34,
logos/4.jpg,properties4.xlsx,frogs/ab74.jpg,0,0,400,l,0,0,0,3,0,64,64,72,,,['l'],0,[0.11816118934075348],2018_Jul_09_0624,60.1573930141,go-nogo,001,34,
logos/4.jpg,properties4.xlsx,frogs/ab16.jpg,0,0,400,l,0,0,0,3,0,65,65,15,,,['l'],0,[0.46729200925619807],2018_Jul_09_0624,60.1573930141,go-nogo,001,34,
logos/4.jpg,properties4.xlsx,frogs/ab37.jpg,0,0,400,l,0,0,0,3,0,66,66,36,,,['l'],0,[0.2500271095777862],2018_Jul_09_0624,60.1573930141,go-nogo,001,34,
logos/4.jpg,properties4.xlsx,frogs/ab73.jpg,0,0,400,l,0,0,0,3,0,67,67,71,,,['l'],0,[0.21740859161218395],2018_Jul_09_0624,60.1573930141,go-nogo,001,34,
logos/4.jpg,properties4.xlsx,frogs/ab76.jpg,0,0,400,l,0,0,0,3,0,68,68,74,,,['l'],0,[0.2506313297562883],2018_Jul_09_0624,60.1573930141,go-nogo,001,34,
logos/4.jpg,properties4.xlsx,frogs/ab8.jpg,0,0,400,l,0,0,0,3,0,69,69,7,,,['l'],0,[0.23412415965867694],2018_Jul_09_0624,60.1573930141,go-nogo,001,34,
logos/4.jpg,properties4.xlsx,frogs/ab45.jpg,0,0,400,l,0,0,0,3,0,70,70,44,,,['l'],0,[0.1840439465304371],2018_Jul_09_0624,60.1573930141,go-nogo,001,34,
logos/4.jpg,properties4.xlsx,frogs/ab70.jpg,0,0,400,l,0,0,0,3,0,71,71,68,,,['l'],0,[0.13408823667123215],2018_Jul_09_0624,60.1573930141,go-nogo,001,34,
logos/4.jpg,properties4.xlsx,frogs/ab21.jpg,0,0,400,l,0,0,0,3,0,72,72,20,,,['l'],0,[0.334224342397647],2018_Jul_09_0624,60.1573930141,go-nogo,001,34,
logos/4.jpg,properties4.xlsx,frogs/ab68.jpg,0,0,400,l,0,0,0,3,0,73,73,66,,,['l'],0,[0.26738438264874276],2018_Jul_09_0624,60.1573930141,go-nogo,001,34,
logos/4.jpg,properties4.xlsx,frogs/ab47.jpg,0,0,400,l,0,0,0,3,0,74,74,46,,,['l'],0,[0.45403575787349837],2018_Jul_09_0624,60.1573930141,go-nogo,001,34,
logos/4.jpg,properties4.xlsx,frogs/ab43.jpg,0,0,400,l,0,0,0,3,0,75,75,42,,,['l'],0,[0.2841512692393735],2018_Jul_09_0624,60.1573930141,go-nogo,001,34,
logos/4.jpg,properties4.xlsx,frogs/ab40.jpg,0,0,400,l,0,0,0,3,0,76,76,39,,,['l'],0,[0.3672989261103794],2018_Jul_09_0624,60.1573930141,go-nogo,001,34,
logos/4.jpg,properties4.xlsx,frogs/ab31.jpg,0,0,400,l,0,0,0,3,0,77,77,30,,,['l'],0,[0.23406436239019968],2018_Jul_09_0624,60.1573930141,go-nogo,001,34,
logos/4.jpg,properties4.xlsx,frogs/ab49.jpg,0,0,400,l,0,0,0,3,0,78,78,48,,,['l'],0,[0.36699993975344114],2018_Jul_09_0624,60.1573930141,go-nogo,001,34,
logos/4.jpg,properties4.xlsx,logos/4.jpg,0,0,400,a,0,0,0,3,0,79,79,86,,,['a'],0,[0.3162891778119956],2018_Jul_09_0624,60.1573930141,go-nogo,001,34,
logos/4.jpg,properties4.xlsx,frogs/ab60.jpg,0,0,400,l,0,0,0,3,0,80,80,58,,,['l'],0,[0.25062865226209396],2018_Jul_09_0624,60.1573930141,go-nogo,001,34,
logos/4.jpg,properties4.xlsx,frogs/ab58.jpg,0,0,400,l,0,0,0,3,0,81,81,57,,,['l'],0,[0.35142721355805406],2018_Jul_09_0624,60.1573930141,go-nogo,001,34,
logos/4.jpg,properties4.xlsx,frogs/ab57.jpg,0,0,400,l,0,0,0,3,0,82,82,56,,,['l'],0,[0.2179088359407615],2018_Jul_09_0624,60.1573930141,go-nogo,001,34,
logos/4.jpg,properties4.xlsx,frogs/ab14.jpg,0,0,400,l,0,0,0,3,0,83,83,13,,,['l'],0,[0.3338450313603971],2018_Jul_09_0624,60.1573930141,go-nogo,001,34,
logos/4.jpg,properties4.xlsx,frogs/ab10.jpg,0,0,400,l,0,0,0,3,0,84,84,9,,,['l'],0,[0.2186049832525896],2018_Jul_09_0624,60.1573930141,go-nogo,001,34,
logos/4.jpg,properties4.xlsx,frogs/ab81.jpg,0,0,400,l,0,0,0,3,0,85,85,79,,,['l'],0,[0.3337647066655336],2018_Jul_09_0624,60.1573930141,go-nogo,001,34,
logos/4.jpg,properties4.xlsx,logos/4.jpg,0,0,400,a,0,0,0,3,0,86,86,82,,,['a'],0,[0.3672864311520243],2018_Jul_09_0624,60.1573930141,go-nogo,001,34,
logos/4.jpg,properties4.xlsx,frogs/ab78.jpg,0,0,400,l,0,0,0,3,0,87,87,76,,,['l'],0,[0.2506688146095257],2018_Jul_09_0624,60.1573930141,go-nogo,001,34,
logos/4.jpg,properties4.xlsx,logos/4.jpg,0,0,400,a,0,0,0,3,0,88,88,84,,,['a'],0,[0.06813140226586256],2018_Jul_09_0624,60.1573930141,go-nogo,001,34,
logos/4.jpg,properties4.xlsx,frogs/ab63.jpg,0,0,400,l,0,0,0,3,0,89,89,61,,,['l'],0,[0.06800957649102202],2018_Jul_09_0624,60.1573930141,go-nogo,001,34,
logos/4.jpg,properties4.xlsx,,,,,,0,0,0,3,,,,,,,,,,2018_Jul_09_0624,60.1573930141,go-nogo,001,34,
logos/3.jpg,properties3.xlsx,frogs/ab77.jpg,0,0,400,l,0,1,1,2,0,0,0,75,space,2.94785454984,['l'],0,[0.4506799708105973],2018_Jul_09_0624,60.1573930141,go-nogo,001,34,
logos/3.jpg,properties3.xlsx,logos/3.jpg,0,0,400,a,0,1,1,2,0,1,1,80,,,['a'],0,[0.667231765735778],2018_Jul_09_0624,60.1573930141,go-nogo,001,34,
logos/3.jpg,properties3.xlsx,frogs/ab35.jpg,0,0,400,l,0,1,1,2,0,2,2,34,,,['l'],0,[0.43401616757910233],2018_Jul_09_0624,60.1573930141,go-nogo,001,34,
logos/3.jpg,properties3.xlsx,logos/3.jpg,0,0,400,a,0,1,1,2,0,3,3,85,,,['a'],0,[0.3507533786541899],2018_Jul_09_0624,60.1573930141,go-nogo,001,34,
logos/3.jpg,properties3.xlsx,logos/3.jpg,0,0,400,a,0,1,1,2,0,4,4,81,,,['a'],0,[0.40066267869406147],2018_Jul_09_0624,60.1573930141,go-nogo,001,34,
logos/3.jpg,properties3.xlsx,frogs/ab31.jpg,0,0,400,l,0,1,1,2,0,5,5,30,,,['l'],0,[0.2172872120863758],2018_Jul_09_0624,60.1573930141,go-nogo,001,34,
logos/3.jpg,properties3.xlsx,frogs/ab76.jpg,0,0,400,l,0,1,1,2,0,6,6,74,,,['l'],0,[0.30061426075553754],2018_Jul_09_0624,60.1573930141,go-nogo,001,34,
logos/3.jpg,properties3.xlsx,frogs/ab42.jpg,0,0,400,l,0,1,1,2,0,7,7,41,,,['l'],0,[0.26748835849866737],2018_Jul_09_0624,60.1573930141,go-nogo,001,34,
logos/3.jpg,properties3.xlsx,frogs/ab43.jpg,0,0,400,l,0,1,1,2,0,8,8,42,,,['l'],0,[0.23403580250305822],2018_Jul_09_0624,60.1573930141,go-nogo,001,34,
logos/3.jpg,properties3.xlsx,frogs/ab11.jpg,0,0,400,l,0,1,1,2,0,9,9,10,,,['l'],0,[0.16754079267411726],2018_Jul_09_0624,60.1573930141,go-nogo,001,34,
logos/3.jpg,properties3.xlsx,frogs/ab45.jpg,0,0,400,l,0,1,1,2,0,10,10,44,,,['l'],0,[0.285054475760262],2018_Jul_09_0624,60.1573930141,go-nogo,001,34,
logos/3.jpg,properties3.xlsx,frogs/ab41.jpg,0,0,400,l,0,1,1,2,0,11,11,40,,,['l'],0,[0.28414412926940713],2018_Jul_09_0624,60.1573930141,go-nogo,001,34,
logos/3.jpg,properties3.xlsx,frogs/ab18.jpg,0,0,400,l,0,1,1,2,0,12,12,17,,,['l'],0,[0.1013179942892748],2018_Jul_09_0624,60.1573930141,go-nogo,001,34,
logos/3.jpg,properties3.xlsx,frogs/ab24.jpg,0,0,400,l,0,1,1,2,0,13,13,23,,,['l'],0,[0.4008875878280378],2018_Jul_09_0624,60.1573930141,go-nogo,001,34,
logos/3.jpg,properties3.xlsx,frogs/ab30.jpg,0,0,400,l,0,1,1,2,0,14,14,29,,,['l'],0,[0.2507067457117955],2018_Jul_09_0624,60.1573930141,go-nogo,001,34,
logos/3.jpg,properties3.xlsx,frogs/ab14.jpg,0,0,400,l,0,1,1,2,0,15,15,13,,,['l'],0,[0.26744016368320445],2018_Jul_09_0624,60.1573930141,go-nogo,001,34,
logos/3.jpg,properties3.xlsx,frogs/ab7.jpg,0,0,400,l,0,1,1,2,0,16,16,6,,,['l'],0,[0.16747162419051165],2018_Jul_09_0624,60.1573930141,go-nogo,001,34,
logos/3.jpg,properties3.xlsx,frogs/ab56.jpg,0,0,400,l,0,1,1,2,0,17,17,55,,,['l'],0,[0.2323222091072239],2018_Jul_09_0624,60.1573930141,go-nogo,001,34,
logos/3.jpg,properties3.xlsx,frogs/ab78.jpg,0,0,400,l,0,1,1,2,0,18,18,76,,,['l'],0,[0.23410095475264825],2018_Jul_09_0624,60.1573930141,go-nogo,001,34,
logos/3.jpg,properties3.xlsx,frogs/ab65.jpg,0,0,400,l,0,1,1,2,0,19,19,63,,,['l'],0,[0.3341507114309934],2018_Jul_09_0624,60.1573930141,go-nogo,001,34,
logos/3.jpg,properties3.xlsx,logos/3.jpg,0,0,400,a,0,1,1,2,0,20,20,84,,,['a'],0,[0.28408120826497907],2018_Jul_09_0624,60.1573930141,go-nogo,001,34,
logos/3.jpg,properties3.xlsx,frogs/ab20.jpg,0,0,400,l,0,1,1,2,0,21,21,19,,,['l'],0,[0.267592334348592],2018_Jul_09_0624,60.1573930141,go-nogo,001,34,
logos/3.jpg,properties3.xlsx,frogs/ab64.jpg,0,0,400,l,0,1,1,2,0,22,22,62,,,['l'],0,[0.4005930639686994],2018_Jul_09_0624,60.1573930141,go-nogo,001,34,
logos/3.jpg,properties3.xlsx,frogs/ab8.jpg,0,0,400,l,0,1,1,2,0,23,23,7,,,['l'],0,[0.21737289175507613],2018_Jul_09_0624,60.1573930141,go-nogo,001,34,
logos/3.jpg,properties3.xlsx,frogs/ab9.jpg,0,0,400,l,0,1,1,2,0,24,24,8,,,['l'],0,[0.40105582342948765],2018_Jul_09_0624,60.1573930141,go-nogo,001,34,
logos/3.jpg,properties3.xlsx,frogs/ab63.jpg,0,0,400,l,0,1,1,2,0,25,25,61,,,['l'],0,[0.3165988741093315],2018_Jul_09_0624,60.1573930141,go-nogo,001,34,
logos/3.jpg,properties3.xlsx,logos/3.jpg,0,0,400,a,0,1,1,2,0,26,26,86,,,['a'],0,[0.23409916975651868],2018_Jul_09_0624,60.1573930141,go-nogo,001,34,
logos/3.jpg,properties3.xlsx,frogs/ab79.jpg,0,0,400,l,0,1,1,2,0,27,27,77,,,['l'],0,[0.30008277905290015],2018_Jul_09_0624,60.1573930141,go-nogo,001,34,
logos/3.jpg,properties3.xlsx,frogs/ab39.jpg,0,0,400,l,0,1,1,2,0,28,28,38,,,['l'],0,[0.2006046664173482],2018_Jul_09_0624,60.1573930141,go-nogo,001,34,
logos/3.jpg,properties3.xlsx,logos/3.jpg,0,0,400,a,0,1,1,2,0,29,29,82,,,['a'],0,[0.26685647093108855],2018_Jul_09_0624,60.1573930141,go-nogo,001,34,
logos/3.jpg,properties3.xlsx,frogs/ab71.jpg,0,0,400,l,0,1,1,2,0,30,30,69,,,['l'],0,[0.2019764336218941],2018_Jul_09_0624,60.1573930141,go-nogo,001,34,
logos/3.jpg,properties3.xlsx,frogs/ab38.jpg,0,0,400,l,0,1,1,2,0,31,31,37,,,['l'],0,[0.11786488047800958],2018_Jul_09_0624,60.1573930141,go-nogo,001,34,
logos/3.jpg,properties3.xlsx,frogs/ab37.jpg,0,0,400,l,0,1,1,2,0,32,32,36,,,['l'],0,[0.2840785307707847],2018_Jul_09_0624,60.1573930141,go-nogo,001,34,
logos/3.jpg,properties3.xlsx,frogs/ab33.jpg,0,0,400,l,0,1,1,2,0,33,33,32,,,['l'],0,[0.19984292060689768],2018_Jul_09_0624,60.1573930141,go-nogo,001,34,
logos/3.jpg,properties3.xlsx,frogs/ab69.jpg,0,0,400,l,0,1,1,2,0,34,34,67,,,['l'],0,[0.24988207889691694],2018_Jul_09_0624,60.1573930141,go-nogo,001,34,
logos/3.jpg,properties3.xlsx,frogs/ab57.jpg,0,0,400,l,0,1,1,2,0,35,35,56,,,['l'],0,[0.24959380250948016],2018_Jul_09_0624,60.1573930141,go-nogo,001,34,
logos/3.jpg,properties3.xlsx,frogs/ab21.jpg,0,0,400,l,0,1,1,2,0,36,36,20,,,['l'],0,[0.21924534953723196],2018_Jul_09_0624,60.1573930141,go-nogo,001,34,
logos/3.jpg,properties3.xlsx,frogs/ab74.jpg,0,0,400,l,0,1,1,2,0,37,37,72,,,['l'],0,[0.28427309502149],2018_Jul_09_0624,60.1573930141,go-nogo,001,34,
logos/3.jpg,properties3.xlsx,frogs/ab10.jpg,0,0,400,l,0,1,1,2,0,38,38,9,,,['l'],0,[0.2506991594855208],2018_Jul_09_0624,60.1573930141,go-nogo,001,34,
logos/3.jpg,properties3.xlsx,frogs/ab66.jpg,0,0,400,l,0,1,1,2,0,39,39,64,,,['l'],0,[0.28413698929944076],2018_Jul_09_0624,60.1573930141,go-nogo,001,34,
logos/3.jpg,properties3.xlsx,frogs/ab72.jpg,0,0,400,l,0,1,1,2,0,40,40,70,,,['l'],0,[0.3339847070747055],2018_Jul_09_0624,60.1573930141,go-nogo,001,34,
logos/3.jpg,properties3.xlsx,frogs/ab23.jpg,0,0,400,l,0,1,1,2,0,41,41,22,,,['l'],0,[0.3007325165453949],2018_Jul_09_0624,60.1573930141,go-nogo,001,34,
logos/3.jpg,properties3.xlsx,frogs/ab52.jpg,0,0,400,l,0,1,1,2,0,42,42,51,,,['l'],0,[0.38392390574881574],2018_Jul_09_0624,60.1573930141,go-nogo,001,34,
logos/3.jpg,properties3.xlsx,frogs/ab22.jpg,0,0,400,l,0,1,1,2,0,43,43,21,,,['l'],0,[0.184342486631067],2018_Jul_09_0624,60.1573930141,go-nogo,001,34,
logos/3.jpg,properties3.xlsx,frogs/ab67.jpg,0,0,400,l,0,1,1,2,0,44,44,65,,,['l'],0,[0.2495326664939057],2018_Jul_09_0624,60.1573930141,go-nogo,001,34,
logos/3.jpg,properties3.xlsx,frogs/ab80.jpg,0,0,400,l,0,1,1,2,0,45,45,78,,,['l'],0,[0.25064784094138304],2018_Jul_09_0624,60.1573930141,go-nogo,001,34,
logos/3.jpg,properties3.xlsx,frogs/ab25.jpg,0,0,400,l,0,1,1,2,0,46,46,24,,,['l'],0,[0.35070652258582413],2018_Jul_09_0624,60.1573930141,go-nogo,001,34,
logos/3.jpg,properties3.xlsx,frogs/ab13.jpg,0,0,400,l,0,1,1,2,0,47,47,12,,,['l'],0,[0.16745377425831975],2018_Jul_09_0624,60.1573930141,go-nogo,001,34,
logos/3.jpg,properties3.xlsx,logos/3.jpg,0,0,400,a,0,1,1,2,0,48,48,88,,,['a'],0,[0.2675468170273234],2018_Jul_09_0624,60.1573930141,go-nogo,001,34,
logos/3.jpg,properties3.xlsx,frogs/ab54.jpg,0,0,400,l,0,1,1,2,0,49,49,53,,,['l'],0,[0.21741483909863746],2018_Jul_09_0624,60.1573930141,go-nogo,001,34,
logos/3.jpg,properties3.xlsx,logos/3.jpg,0,0,400,a,0,1,1,2,0,50,50,89,,,['a'],0,[0.16735649212932913],2018_Jul_09_0624,60.1573930141,go-nogo,001,34,
logos/3.jpg,properties3.xlsx,frogs/ab73.jpg,0,0,400,l,0,1,1,2,0,51,51,71,,,['l'],0,[0.06834604769392172],2018_Jul_09_0624,60.1573930141,go-nogo,001,34,
logos/3.jpg,properties3.xlsx,frogs/ab51.jpg,0,0,400,l,0,1,1,2,0,52,52,50,,,['l'],0,[0.16693300251063192],2018_Jul_09_0624,60.1573930141,go-nogo,001,34,
logos/3.jpg,properties3.xlsx,frogs/ab53.jpg,0,0,400,l,0,1,1,2,0,53,53,52,,,['l'],0,[0.01774238533107564],2018_Jul_09_0624,60.1573930141,go-nogo,001,34,
logos/3.jpg,properties3.xlsx,frogs/ab27.jpg,0,0,400,l,0,1,1,2,0,54,54,26,,,['l'],0,[0.0678917669429211],2018_Jul_09_0624,60.1573930141,go-nogo,001,34,
logos/3.jpg,properties3.xlsx,frogs/ab58.jpg,0,0,400,l,0,1,1,2,0,55,55,57,,,['l'],0,[0.26724292194558075],2018_Jul_09_0624,60.1573930141,go-nogo,001,34,
logos/3.jpg,properties3.xlsx,frogs/ab19.jpg,0,0,400,l,0,1,1,2,0,56,56,18,,,['l'],0,[0.10128675691521494],2018_Jul_09_0624,60.1573930141,go-nogo,001,34,
logos/3.jpg,properties3.xlsx,frogs/ab61.jpg,0,0,400,l,0,1,1,2,0,57,57,59,,,['l'],0,[0.0010602859110804275],2018_Jul_09_0624,60.1573930141,go-nogo,001,34,
logos/3.jpg,properties3.xlsx,frogs/ab50.jpg,0,0,400,l,0,1,1,2,0,58,58,49,,,['l'],0,[0.03454720303125214],2018_Jul_09_0624,60.1573930141,go-nogo,001,34,
logos/3.jpg,properties3.xlsx,logos/3.jpg,0,0,400,a,0,1,1,2,0,59,59,87,,,['a'],0,[0.11797064132406376],2018_Jul_09_0624,60.1573930141,go-nogo,001,34,
logos/3.jpg,properties3.xlsx,frogs/ab6.jpg,0,0,400,l,0,1,1,2,0,60,60,5,,,['l'],0,[0.11784256807004567],2018_Jul_09_0624,60.1573930141,go-nogo,001,34,
logos/3.jpg,properties3.xlsx,frogs/ab40.jpg,0,0,400,l,0,1,1,2,0,61,61,39,,,['l'],0,[0.6503783069783822],2018_Jul_09_0624,60.1573930141,go-nogo,001,34,
logos/3.jpg,properties3.xlsx,frogs/ab68.jpg,0,0,400,l,0,1,1,2,0,62,62,66,,,['l'],0,[0.16734890591033036],2018_Jul_09_0624,60.1573930141,go-nogo,001,34,
logos/3.jpg,properties3.xlsx,frogs/ab26.jpg,0,0,400,l,0,1,1,2,0,63,63,25,,,['l'],0,[0.05110747666913085],2018_Jul_09_0624,60.1573930141,go-nogo,001,34,
logos/3.jpg,properties3.xlsx,frogs/ab32.jpg,0,0,400,l,0,1,1,2,0,64,64,31,,,['l'],0,[0.01830822815099964],2018_Jul_09_0624,60.1573930141,go-nogo,001,34,
logos/3.jpg,properties3.xlsx,frogs/ab2.jpg,0,0,400,l,0,1,1,2,0,65,65,1,,,['l'],0,[0.3373404941303306],2018_Jul_09_0624,60.1573930141,go-nogo,001,34,
logos/3.jpg,properties3.xlsx,frogs/ab3.jpg,0,0,400,l,0,1,1,2,0,66,66,2,,,['l'],0,[0.3502509030950023],2018_Jul_09_0624,60.1573930141,go-nogo,001,34,
logos/3.jpg,properties3.xlsx,frogs/ab17.jpg,0,0,400,l,0,1,1,2,0,67,67,16,,,['l'],0,[0.6672786218041438],2018_Jul_09_0624,60.1573930141,go-nogo,001,34,
logos/3.jpg,properties3.xlsx,frogs/ab36.jpg,0,0,400,l,0,1,1,2,0,68,68,35,,,['l'],0,[0.7161160334799206],2018_Jul_09_0624,60.1573930141,go-nogo,001,34,
logos/3.jpg,properties3.xlsx,frogs/ab29.jpg,0,0,400,l,0,1,1,2,0,69,69,28,,,['l'],0,[0.2010830445724423],2018_Jul_09_0624,60.1573930141,go-nogo,001,34,
logos/3.jpg,properties3.xlsx,frogs/ab12.jpg,0,0,400,l,0,1,1,2,0,70,70,11,,,['l'],0,[0.168155722800293],2018_Jul_09_0624,60.1573930141,go-nogo,001,34,
logos/3.jpg,properties3.xlsx,frogs/ab16.jpg,0,0,400,l,0,1,1,2,0,71,71,15,,,['l'],0,[0.2173590580568998],2018_Jul_09_0624,60.1573930141,go-nogo,001,34,
logos/3.jpg,properties3.xlsx,frogs/ab1.jpg,0,0,400,l,0,1,1,2,0,72,72,0,,,['l'],0,[0.08443329815054312],2018_Jul_09_0624,60.1573930141,go-nogo,001,34,
logos/3.jpg,properties3.xlsx,frogs/ab49.jpg,0,0,400,l,0,1,1,2,0,73,73,48,,,['l'],0,[0.28405666460457724],2018_Jul_09_0624,60.1573930141,go-nogo,001,34,
logos/3.jpg,properties3.xlsx,frogs/ab81.jpg,0,0,400,l,0,1,1,2,0,74,74,79,,,['l'],0,[0.20136105724668596],2018_Jul_09_0624,60.1573930141,go-nogo,001,34,
logos/3.jpg,properties3.xlsx,frogs/ab75.jpg,0,0,400,l,0,1,1,2,0,75,75,73,,,['l'],0,[0.184490641055163],2018_Jul_09_0624,60.1573930141,go-nogo,001,34,
logos/3.jpg,properties3.xlsx,frogs/ab44.jpg,0,0,400,l,0,1,1,2,0,76,76,43,,,['l'],0,[0.18417112729366636],2018_Jul_09_0624,60.1573930141,go-nogo,001,34,
logos/3.jpg,properties3.xlsx,frogs/ab46.jpg,0,0,400,l,0,1,1,2,0,77,77,45,,,['l'],0,[0.017803075097617693],2018_Jul_09_0624,60.1573930141,go-nogo,001,34,
logos/3.jpg,properties3.xlsx,frogs/ab60.jpg,0,0,400,l,0,1,1,2,0,78,78,58,,,['l'],0,[0.06798503283062018],2018_Jul_09_0624,60.1573930141,go-nogo,001,34,
logos/3.jpg,properties3.xlsx,frogs/ab48.jpg,0,0,400,l,0,1,1,2,0,79,79,47,,,['l'],0,[1.8328148672080715],2018_Jul_09_0624,60.1573930141,go-nogo,001,34,
logos/3.jpg,properties3.xlsx,frogs/ab4.jpg,0,0,400,l,0,1,1,2,0,80,80,3,,,['l'],0,[0.3840144941423205],2018_Jul_09_0624,60.1573930141,go-nogo,001,34,
logos/3.jpg,properties3.xlsx,logos/3.jpg,0,0,400,a,0,1,1,2,0,81,81,83,,,['a'],0,[0.25094771978183417],2018_Jul_09_0624,60.1573930141,go-nogo,001,34,
logos/3.jpg,properties3.xlsx,frogs/ab34.jpg,0,0,400,l,0,1,1,2,0,82,82,33,,,['l'],0,[0.18410374380619032],2018_Jul_09_0624,60.1573930141,go-nogo,001,34,
logos/3.jpg,properties3.xlsx,frogs/ab5.jpg,0,0,400,l,0,1,1,2,0,83,83,4,,,['l'],0,[0.18453749712352874],2018_Jul_09_0624,60.1573930141,go-nogo,001,34,
logos/3.jpg,properties3.xlsx,frogs/ab47.jpg,0,0,400,l,0,1,1,2,0,84,84,46,,,['l'],0,[0.5814458890454262],2018_Jul_09_0624,60.1573930141,go-nogo,001,34,
logos/3.jpg,properties3.xlsx,frogs/ab55.jpg,0,0,400,l,0,1,1,2,0,85,85,54,,,['l'],0,[0.11813530694053043],2018_Jul_09_0624,60.1573930141,go-nogo,001,34,
logos/3.jpg,properties3.xlsx,frogs/ab28.jpg,0,0,400,l,0,1,1,2,0,86,86,27,,,['l'],0,[0.25057644121261546],2018_Jul_09_0624,60.1573930141,go-nogo,001,34,
logos/3.jpg,properties3.xlsx,frogs/ab15.jpg,0,0,400,l,0,1,1,2,0,87,87,14,,,['l'],0,[0.9166997262291261],2018_Jul_09_0624,60.1573930141,go-nogo,001,34,
logos/3.jpg,properties3.xlsx,frogs/ab70.jpg,0,0,400,l,0,1,1,2,0,88,88,68,,,['l'],0,[0.11793851145193912],2018_Jul_09_0624,60.1573930141,go-nogo,001,34,
logos/3.jpg,properties3.xlsx,frogs/ab62.jpg,0,0,400,l,0,1,1,2,0,89,89,60,,,['l'],0,[0.2506897882776684],2018_Jul_09_0624,60.1573930141,go-nogo,001,34,
logos/3.jpg,properties3.xlsx,,,,,,0,1,1,2,,,,,,,,,,2018_Jul_09_0624,60.1573930141,go-nogo,001,34,
logos/2.jpg,properties2.xlsx,frogs/ab16.jpg,0,0,400,l,0,2,2,1,0,0,0,15,space,1.88239037353,['l'],0,[0.45055279006191995],2018_Jul_09_0624,60.1573930141,go-nogo,001,34,
logos/2.jpg,properties2.xlsx,frogs/ab61.jpg,0,0,400,l,0,2,2,1,0,1,1,59,,,['l'],0,[0.26731476791610476],2018_Jul_09_0624,60.1573930141,go-nogo,001,34,
logos/2.jpg,properties2.xlsx,frogs/ab67.jpg,0,0,400,l,0,2,2,1,0,2,2,65,,,['l'],0,[0.1841572935882141],2018_Jul_09_0624,60.1573930141,go-nogo,001,34,
logos/2.jpg,properties2.xlsx,frogs/ab18.jpg,0,0,400,l,0,2,2,1,0,3,3,17,,,['l'],0,[0.2506920195228304],2018_Jul_09_0624,60.1573930141,go-nogo,001,34,
logos/2.jpg,properties2.xlsx,frogs/ab33.jpg,0,0,400,l,0,2,2,1,0,4,4,32,,,['l'],0,[0.35086851070809644],2018_Jul_09_0624,60.1573930141,go-nogo,001,34,
logos/2.jpg,properties2.xlsx,frogs/ab37.jpg,0,0,400,l,0,2,2,1,0,5,5,36,,,['l'],0,[0.2507446768213413],2018_Jul_09_0624,60.1573930141,go-nogo,001,34,
logos/2.jpg,properties2.xlsx,logos/2.jpg,0,0,400,a,0,2,2,1,0,6,6,84,,,['a'],0,[0.151113501022337],2018_Jul_09_0624,60.1573930141,go-nogo,001,34,
logos/2.jpg,properties2.xlsx,frogs/ab6.jpg,0,0,400,l,0,2,2,1,0,7,7,5,,,['l'],0,[0.16752472773077898],2018_Jul_09_0624,60.1573930141,go-nogo,001,34,
logos/2.jpg,properties2.xlsx,frogs/ab20.jpg,0,0,400,l,0,2,2,1,0,8,8,19,,,['l'],0,[0.2508392814488616],2018_Jul_09_0624,60.1573930141,go-nogo,001,34,
logos/2.jpg,properties2.xlsx,frogs/ab43.jpg,0,0,400,l,0,2,2,1,0,9,9,42,,,['l'],0,[0.1507859547782573],2018_Jul_09_0624,60.1573930141,go-nogo,001,34,
logos/2.jpg,properties2.xlsx,frogs/ab4.jpg,0,0,400,l,0,2,2,1,0,10,10,3,,,['l'],0,[0.20150787293096073],2018_Jul_09_0624,60.1573930141,go-nogo,001,34,
logos/2.jpg,properties2.xlsx,frogs/ab74.jpg,0,0,400,l,0,2,2,1,0,11,11,72,,,['l'],0,[0.11844946572819026],2018_Jul_09_0624,60.1573930141,go-nogo,001,34,
logos/2.jpg,properties2.xlsx,frogs/ab80.jpg,0,0,400,l,0,2,2,1,0,12,12,78,,,['l'],0,[0.1341502651848714],2018_Jul_09_0624,60.1573930141,go-nogo,001,34,
logos/2.jpg,properties2.xlsx,frogs/ab14.jpg,0,0,400,l,0,2,2,1,0,13,13,13,,,['l'],0,[0.1180585522306501],2018_Jul_09_0624,60.1573930141,go-nogo,001,34,
logos/2.jpg,properties2.xlsx,frogs/ab65.jpg,0,0,400,l,0,2,2,1,0,14,14,63,,,['l'],0,[0.1344166754061007],2018_Jul_09_0624,60.1573930141,go-nogo,001,34,
logos/2.jpg,properties2.xlsx,frogs/ab24.jpg,0,0,400,l,0,2,2,1,0,15,15,23,,,['l'],0,[0.3674823341498268],2018_Jul_09_0624,60.1573930141,go-nogo,001,34,
logos/2.jpg,properties2.xlsx,frogs/ab17.jpg,0,0,400,l,0,2,2,1,0,16,16,16,,,['l'],0,[0.5172593215684174],2018_Jul_09_0624,60.1573930141,go-nogo,001,34,
logos/2.jpg,properties2.xlsx,frogs/ab34.jpg,0,0,400,l,0,2,2,1,0,17,17,33,,,['l'],0,[0.2841927703266265],2018_Jul_09_0624,60.1573930141,go-nogo,001,34,
logos/2.jpg,properties2.xlsx,frogs/ab57.jpg,0,0,400,l,0,2,2,1,0,18,18,56,,,['l'],0,[0.16960870719049126],2018_Jul_09_0624,60.1573930141,go-nogo,001,34,
logos/2.jpg,properties2.xlsx,frogs/ab10.jpg,0,0,400,l,0,2,2,1,0,19,19,9,,,['l'],0,[0.23419020440633176],2018_Jul_09_0624,60.1573930141,go-nogo,001,34,
logos/2.jpg,properties2.xlsx,frogs/ab49.jpg,0,0,400,l,0,2,2,1,0,20,20,48,,,['l'],0,[0.10112030630989466],2018_Jul_09_0624,60.1573930141,go-nogo,001,34,
logos/2.jpg,properties2.xlsx,frogs/ab38.jpg,0,0,400,l,0,2,2,1,0,21,21,37,,,['l'],0,[0.2841659954356146],2018_Jul_09_0624,60.1573930141,go-nogo,001,34,
logos/2.jpg,properties2.xlsx,frogs/ab55.jpg,0,0,400,l,0,2,2,1,0,22,22,54,,,['l'],0,[0.3341542814159766],2018_Jul_09_0624,60.1573930141,go-nogo,001,34,
logos/2.jpg,properties2.xlsx,frogs/ab54.jpg,0,0,400,l,0,2,2,1,0,23,23,53,,,['l'],0,[0.6674343624617904],2018_Jul_09_0624,60.1573930141,go-nogo,001,34,
logos/2.jpg,properties2.xlsx,frogs/ab11.jpg,0,0,400,l,0,2,2,1,0,24,24,10,,,['l'],0,[0.2340915835375199],2018_Jul_09_0624,60.1573930141,go-nogo,001,34,
logos/2.jpg,properties2.xlsx,logos/2.jpg,0,0,400,a,0,2,2,1,0,25,25,87,,,['a'],0,[0.15128084412572207],2018_Jul_09_0624,60.1573930141,go-nogo,001,34,
logos/2.jpg,properties2.xlsx,frogs/ab40.jpg,0,0,400,l,0,2,2,1,0,26,26,39,,,['l'],0,[0.13527079460618552],2018_Jul_09_0624,60.1573930141,go-nogo,001,34,
logos/2.jpg,properties2.xlsx,frogs/ab9.jpg,0,0,400,l,0,2,2,1,0,27,27,8,,,['l'],0,[0.6177584502656828],2018_Jul_09_0624,60.1573930141,go-nogo,001,34,
logos/2.jpg,properties2.xlsx,frogs/ab29.jpg,0,0,400,l,0,2,2,1,0,28,28,28,,,['l'],0,[0.43396663401654223],2018_Jul_09_0624,60.1573930141,go-nogo,001,34,
logos/2.jpg,properties2.xlsx,frogs/ab68.jpg,0,0,400,l,0,2,2,1,0,29,29,66,,,['l'],0,[1.4502783473653835],2018_Jul_09_0624,60.1573930141,go-nogo,001,34,
logos/2.jpg,properties2.xlsx,frogs/ab69.jpg,0,0,400,l,0,2,2,1,0,30,30,67,,,['l'],0,[0.30093645201122854],2018_Jul_09_0624,60.1573930141,go-nogo,001,34,
logos/2.jpg,properties2.xlsx,frogs/ab36.jpg,0,0,400,l,0,2,2,1,0,31,31,35,,,['l'],0,[0.0010991095114150085],2018_Jul_09_0624,60.1573930141,go-nogo,001,34,
logos/2.jpg,properties2.xlsx,frogs/ab60.jpg,0,0,400,l,0,2,2,1,0,32,32,58,,,['l'],0,[0.600754605839029],2018_Jul_09_0624,60.1573930141,go-nogo,001,34,
logos/2.jpg,properties2.xlsx,frogs/ab26.jpg,0,0,400,l,0,2,2,1,0,33,33,25,,,['l'],0,[0.15009337745141238],2018_Jul_09_0624,60.1573930141,go-nogo,001,34,
logos/2.jpg,properties2.xlsx,frogs/ab31.jpg,0,0,400,l,0,2,2,1,0,34,34,30,,,['l'],0,[0.05151490134448977],2018_Jul_09_0624,60.1573930141,go-nogo,001,34,
logos/2.jpg,properties2.xlsx,frogs/ab39.jpg,0,0,400,l,0,2,2,1,0,35,35,38,,,['l'],0,[0.9837061365833506],2018_Jul_09_0624,60.1573930141,go-nogo,001,34,
logos/2.jpg,properties2.xlsx,frogs/ab75.jpg,0,0,400,l,0,2,2,1,0,36,36,73,,,['l'],0,[0.08343280951521592],2018_Jul_09_0624,60.1573930141,go-nogo,001,34,
logos/2.jpg,properties2.xlsx,frogs/ab7.jpg,0,0,400,l,0,2,2,1,0,37,37,6,,,['l'],0,[0.5175127905968111],2018_Jul_09_0624,60.1573930141,go-nogo,001,34,
logos/2.jpg,properties2.xlsx,frogs/ab51.jpg,0,0,400,l,0,2,2,1,0,38,38,50,,,['l'],0,[0.21749025505414465],2018_Jul_09_0624,60.1573930141,go-nogo,001,34,
logos/2.jpg,properties2.xlsx,frogs/ab56.jpg,0,0,400,l,0,2,2,1,0,39,39,55,,,['l'],0,[0.021682757636881433],2018_Jul_09_0624,60.1573930141,go-nogo,001,34,
logos/2.jpg,properties2.xlsx,frogs/ab48.jpg,0,0,400,l,0,2,2,1,0,40,40,47,,,['l'],0,[0.21747776010306552],2018_Jul_09_0624,60.1573930141,go-nogo,001,34,
logos/2.jpg,properties2.xlsx,frogs/ab58.jpg,0,0,400,l,0,2,2,1,0,41,41,57,,,['l'],0,[0.6519990807282738],2018_Jul_09_0624,60.1573930141,go-nogo,001,34,
logos/2.jpg,properties2.xlsx,frogs/ab22.jpg,0,0,400,l,0,2,2,1,0,42,42,21,,,['l'],0,[0.25084062019595876],2018_Jul_09_0624,60.1573930141,go-nogo,001,34,
logos/2.jpg,properties2.xlsx,frogs/ab46.jpg,0,0,400,l,0,2,2,1,0,43,43,45,,,['l'],0,[0.5165225656601251],2018_Jul_09_0624,60.1573930141,go-nogo,001,34,
logos/2.jpg,properties2.xlsx,frogs/ab32.jpg,0,0,400,l,0,2,2,1,0,44,44,31,,,['l'],0,[0.15079844973661238],2018_Jul_09_0624,60.1573930141,go-nogo,001,34,
logos/2.jpg,properties2.xlsx,frogs/ab8.jpg,0,0,400,l,0,2,2,1,0,45,45,7,,,['l'],0,[0.21751256746938452],2018_Jul_09_0624,60.1573930141,go-nogo,001,34,
logos/2.jpg,properties2.xlsx,frogs/ab35.jpg,0,0,400,l,0,2,2,1,0,46,46,34,,,['l'],0,[0.6332615617357078],2018_Jul_09_0624,60.1573930141,go-nogo,001,34,
logos/2.jpg,properties2.xlsx,frogs/ab25.jpg,0,0,400,l,0,2,2,1,0,47,47,24,,,['l'],0,[0.3840609039689298],2018_Jul_09_0624,60.1573930141,go-nogo,001,34,
logos/2.jpg,properties2.xlsx,frogs/ab28.jpg,0,0,400,l,0,2,2,1,0,48,48,27,,,['l'],0,[0.2839919586040196],2018_Jul_09_0624,60.1573930141,go-nogo,001,34,
logos/2.jpg,properties2.xlsx,frogs/ab81.jpg,0,0,400,l,0,2,2,1,0,49,49,79,,,['l'],0,[0.30088111722579924],2018_Jul_09_0624,60.1573930141,go-nogo,001,34,
logos/2.jpg,properties2.xlsx,frogs/ab77.jpg,0,0,400,l,0,2,2,1,0,50,50,75,,,['l'],0,[0.30058748586452566],2018_Jul_09_0624,60.1573930141,go-nogo,001,34,
logos/2.jpg,properties2.xlsx,frogs/ab45.jpg,0,0,400,l,0,2,2,1,0,51,51,44,,,['l'],0,[0.2181984510680195],2018_Jul_09_0624,60.1573930141,go-nogo,001,34,
logos/2.jpg,properties2.xlsx,frogs/ab72.jpg,0,0,400,l,0,2,2,1,0,52,52,70,,,['l'],0,[0.2340773035903112],2018_Jul_09_0624,60.1573930141,go-nogo,001,34,
logos/2.jpg,properties2.xlsx,logos/2.jpg,0,0,400,a,0,2,2,1,0,53,53,86,,,['a'],0,[0.2340630236431025],2018_Jul_09_0624,60.1573930141,go-nogo,001,34,
logos/2.jpg,properties2.xlsx,frogs/ab66.jpg,0,0,400,l,0,2,2,1,0,54,54,64,,,['l'],0,[0.25057510247279424],2018_Jul_09_0624,60.1573930141,go-nogo,001,34,
logos/2.jpg,properties2.xlsx,logos/2.jpg,0,0,400,a,0,2,2,1,0,55,55,89,,,['a'],0,[0.06809213242377155],2018_Jul_09_0624,60.1573930141,go-nogo,001,34,
logos/2.jpg,properties2.xlsx,frogs/ab27.jpg,0,0,400,l,0,2,2,1,0,56,56,26,,,['l'],0,[0.034550773016235325],2018_Jul_09_0624,60.1573930141,go-nogo,001,34,
logos/2.jpg,properties2.xlsx,frogs/ab64.jpg,0,0,400,l,0,2,2,1,0,57,57,62,,,['l'],0,[0.08372554837842472],2018_Jul_09_0624,60.1573930141,go-nogo,001,34,
logos/2.jpg,properties2.xlsx,logos/2.jpg,0,0,400,a,0,2,2,1,0,58,58,85,,,['l'],0,[0.400682313615107],2018_Jul_09_0624,60.1573930141,go-nogo,001,34,
logos/2.jpg,properties2.xlsx,frogs/ab23.jpg,0,0,400,l,0,2,2,1,0,59,59,22,,,['l'],0,[0.6340710561125888],2018_Jul_09_0624,60.1573930141,go-nogo,001,34,
logos/2.jpg,properties2.xlsx,frogs/ab71.jpg,0,0,400,l,0,2,2,1,0,60,60,69,,,['l'],0,[0.5340708329895278],2018_Jul_09_0624,60.1573930141,go-nogo,001,34,
logos/2.jpg,properties2.xlsx,frogs/ab41.jpg,0,0,400,l,0,2,2,1,0,61,61,40,,,['l'],0,[0.15167175761598628],2018_Jul_09_0624,60.1573930141,go-nogo,001,34,
logos/2.jpg,properties2.xlsx,frogs/ab70.jpg,0,0,400,l,0,2,2,1,0,62,62,68,,,['l'],0,[0.11537079885601997],2018_Jul_09_0624,60.1573930141,go-nogo,001,34,
logos/2.jpg,properties2.xlsx,frogs/ab76.jpg,0,0,400,l,0,2,2,1,0,63,63,74,,,['l'],0,[0.05135692945623305],2018_Jul_09_0624,60.1573930141,go-nogo,001,34,
logos/2.jpg,properties2.xlsx,frogs/ab15.jpg,0,0,400,l,0,2,2,1,0,64,64,14,,,['l'],0,[0.1856736452464247],2018_Jul_09_0624,60.1573930141,go-nogo,001,34,
logos/2.jpg,properties2.xlsx,logos/2.jpg,0,0,400,a,0,2,2,1,0,65,65,88,,,['a'],0,[0.018083319017023314],2018_Jul_09_0624,60.1573930141,go-nogo,001,34,
logos/2.jpg,properties2.xlsx,frogs/ab21.jpg,0,0,400,l,0,2,2,1,0,66,66,20,,,['l'],0,[0.01788563103036722],2018_Jul_09_0624,60.1573930141,go-nogo,001,34,
logos/2.jpg,properties2.xlsx,frogs/ab63.jpg,0,0,400,l,0,2,2,1,0,67,67,61,,,['l'],0,[0.30082578244036995],2018_Jul_09_0624,60.1573930141,go-nogo,001,34,
logos/2.jpg,properties2.xlsx,frogs/ab78.jpg,0,0,400,l,0,2,2,1,0,68,68,76,,,['l'],0,[0.16748010290029924],2018_Jul_09_0624,60.1573930141,go-nogo,001,34,
logos/2.jpg,properties2.xlsx,logos/2.jpg,0,0,400,a,0,2,2,1,0,69,69,81,,,['l'],0,[0.5673466746666236],2018_Jul_09_0624,60.1573930141,go-nogo,001,34,
logos/2.jpg,properties2.xlsx,frogs/ab1.jpg,0,0,400,l,0,2,2,1,0,70,70,0,,,['l'],0,[0.9005343823155272],2018_Jul_09_0624,60.1573930141,go-nogo,001,34,
logos/2.jpg,properties2.xlsx,frogs/ab5.jpg,0,0,400,l,0,2,2,1,0,71,71,4,,,['l'],0,[0.23330261657974916],2018_Jul_09_0624,60.1573930141,go-nogo,001,34,
logos/2.jpg,properties2.xlsx,frogs/ab30.jpg,0,0,400,l,0,2,2,1,0,72,72,29,,,['l'],0,[0.23324995928123826],2018_Jul_09_0624,60.1573930141,go-nogo,001,34,
logos/2.jpg,properties2.xlsx,frogs/ab3.jpg,0,0,400,l,0,2,2,1,0,73,73,2,,,['l'],0,[0.5673489059117856],2018_Jul_09_0624,60.1573930141,go-nogo,001,34,
logos/2.jpg,properties2.xlsx,logos/2.jpg,0,0,400,a,0,2,2,1,0,74,74,82,,,['a'],0,[0.46715813476475887],2018_Jul_09_0624,60.1573930141,go-nogo,001,34,
logos/2.jpg,properties2.xlsx,frogs/ab47.jpg,0,0,400,l,0,2,2,1,0,75,75,46,,,['a'],0,[0.587751823477447],2018_Jul_09_0624,60.1573930141,go-nogo,001,34,
logos/2.jpg,properties2.xlsx,frogs/ab42.jpg,0,0,400,l,0,2,2,1,0,76,76,41,,,['l'],0,[0.1997135086057824],2018_Jul_09_0624,60.1573930141,go-nogo,001,34,
logos/2.jpg,properties2.xlsx,frogs/ab2.jpg,0,0,400,l,0,2,2,1,0,77,77,1,,,['l'],0,[0.40041768839000724],2018_Jul_09_0624,60.1573930141,go-nogo,001,34,
logos/2.jpg,properties2.xlsx,frogs/ab53.jpg,0,0,400,l,0,2,2,1,0,78,78,52,,,['l'],0,[0.2838754878102918],2018_Jul_09_0624,60.1573930141,go-nogo,001,34,
logos/2.jpg,properties2.xlsx,frogs/ab52.jpg,0,0,400,l,0,2,2,1,0,79,79,51,,,['l'],0,[0.19994154146843357],2018_Jul_09_0624,60.1573930141,go-nogo,001,34,
logos/2.jpg,properties2.xlsx,logos/2.jpg,0,0,400,a,0,2,2,1,0,80,80,83,,,['a'],0,[0.2840963807029766],2018_Jul_09_0624,60.1573930141,go-nogo,001,34,
logos/2.jpg,properties2.xlsx,frogs/ab13.jpg,0,0,400,l,0,2,2,1,0,81,81,12,,,['l'],0,[0.13568535926606273],2018_Jul_09_0624,60.1573930141,go-nogo,001,34,
logos/2.jpg,properties2.xlsx,frogs/ab62.jpg,0,0,400,l,0,2,2,1,0,82,82,60,,,['l'],0,[0.3008159649834852],2018_Jul_09_0624,60.1573930141,go-nogo,001,34,
logos/2.jpg,properties2.xlsx,frogs/ab44.jpg,0,0,400,l,0,2,2,1,0,83,83,43,,,['l'],0,[0.20077067077363608],2018_Jul_09_0624,60.1573930141,go-nogo,001,34,
logos/2.jpg,properties2.xlsx,frogs/ab12.jpg,0,0,400,l,0,2,2,1,0,84,84,11,,,['l'],0,[0.13466121946112253],2018_Jul_09_0624,60.1573930141,go-nogo,001,34,
logos/2.jpg,properties2.xlsx,frogs/ab50.jpg,0,0,400,l,0,2,2,1,0,85,85,49,,,['l'],0,[0.2576976712589385],2018_Jul_09_0624,60.1573930141,go-nogo,001,34,
logos/2.jpg,properties2.xlsx,frogs/ab73.jpg,0,0,400,l,0,2,2,1,0,86,86,71,,,['l'],0,[0.25070094448165037],2018_Jul_09_0624,60.1573930141,go-nogo,001,34,
logos/2.jpg,properties2.xlsx,frogs/ab79.jpg,0,0,400,l,0,2,2,1,0,87,87,77,,,['l'],0,[0.3007847275948734],2018_Jul_09_0624,60.1573930141,go-nogo,001,34,
logos/2.jpg,properties2.xlsx,frogs/ab19.jpg,0,0,400,l,0,2,2,1,0,88,88,18,,,['l'],0,[0.2340947072734707],2018_Jul_09_0624,60.1573930141,go-nogo,001,34,
logos/2.jpg,properties2.xlsx,logos/2.jpg,0,0,400,a,0,2,2,1,0,89,89,80,,,['a'],0,[0.26735046778048854],2018_Jul_09_0624,60.1573930141,go-nogo,001,34,
logos/2.jpg,properties2.xlsx,,,,,,0,2,2,1,,,,,,,,,,2018_Jul_09_0624,60.1573930141,go-nogo,001,34,
logos/1.jpg,properties1.xlsx,logos/1.jpg,0,0,400,a,0,3,3,0,0,0,0,82,space,1.32557203451,['a'],0,[2.1832326671574265],2018_Jul_09_0624,60.1573930141,go-nogo,001,34,
logos/1.jpg,properties1.xlsx,frogs/ab28.jpg,0,0,400,l,0,3,3,0,0,1,1,27,,,['l'],0,[0.03449008324969327],2018_Jul_09_0624,60.1573930141,go-nogo,001,34,
logos/1.jpg,properties1.xlsx,frogs/ab64.jpg,0,0,400,l,0,3,3,0,0,2,2,62,,,['l'],0,[0.5673185610285145],2018_Jul_09_0624,60.1573930141,go-nogo,001,34,
logos/1.jpg,properties1.xlsx,frogs/ab47.jpg,0,0,400,l,0,3,3,0,0,3,3,46,,,['l'],0,[0.23311296105384827],2018_Jul_09_0624,60.1573930141,go-nogo,001,34,
logos/1.jpg,properties1.xlsx,frogs/ab20.jpg,0,0,400,l,0,3,3,0,0,4,4,19,,,['l'],0,[0.20107724334229715],2018_Jul_09_0624,60.1573930141,go-nogo,001,34,
logos/1.jpg,properties1.xlsx,frogs/ab32.jpg,0,0,400,l,0,3,3,0,0,5,5,31,,,['l'],0,[0.11772431227291236],2018_Jul_09_0624,60.1573930141,go-nogo,001,34,
logos/1.jpg,properties1.xlsx,frogs/ab40.jpg,0,0,400,l,0,3,3,0,0,6,6,39,,,['l'],0,[0.06788730445987312],2018_Jul_09_0624,60.1573930141,go-nogo,001,34,
logos/1.jpg,properties1.xlsx,frogs/ab15.jpg,0,0,400,l,0,3,3,0,0,7,7,14,,,['l'],0,[0.1852019608122646],2018_Jul_09_0624,60.1573930141,go-nogo,001,34,
logos/1.jpg,properties1.xlsx,frogs/ab63.jpg,0,0,400,l,0,3,3,0,0,8,8,61,,,['l'],0,[0.06866422271559713],2018_Jul_09_0624,60.1573930141,go-nogo,001,34,
logos/1.jpg,properties1.xlsx,logos/1.jpg,0,0,400,a,0,3,3,0,0,9,9,84,,,['a'],0,[0.2840410459175473],2018_Jul_09_0624,60.1573930141,go-nogo,001,34,
logos/1.jpg,properties1.xlsx,frogs/ab54.jpg,0,0,400,l,0,3,3,0,0,10,10,53,,,['l'],0,[0.01795479951397283],2018_Jul_09_0624,60.1573930141,go-nogo,001,34,
logos/1.jpg,properties1.xlsx,frogs/ab13.jpg,0,0,400,l,0,3,3,0,0,11,11,12,,,['l'],0,[0.20034539616608527],2018_Jul_09_0624,60.1573930141,go-nogo,001,34,
logos/1.jpg,properties1.xlsx,frogs/ab37.jpg,0,0,400,l,0,3,3,0,0,12,12,36,,,['l'],0,[0.500573652163439],2018_Jul_09_0624,60.1573930141,go-nogo,001,34,
logos/1.jpg,properties1.xlsx,frogs/ab19.jpg,0,0,400,l,0,3,3,0,0,13,13,18,,,['l'],0,[0.1348602461948758],2018_Jul_09_0624,60.1573930141,go-nogo,001,34,
logos/1.jpg,properties1.xlsx,frogs/ab22.jpg,0,0,400,l,0,3,3,0,0,14,14,21,,,['l'],0,[0.2510838255038834],2018_Jul_09_0624,60.1573930141,go-nogo,001,34,
logos/1.jpg,properties1.xlsx,frogs/ab42.jpg,0,0,400,l,0,3,3,0,0,15,15,41,,,['l'],0,[0.25067327708529774],2018_Jul_09_0624,60.1573930141,go-nogo,001,34,
logos/1.jpg,properties1.xlsx,frogs/ab35.jpg,0,0,400,l,0,3,3,0,0,16,16,34,,,['l'],0,[0.2672955792368157],2018_Jul_09_0624,60.1573930141,go-nogo,001,34,
logos/1.jpg,properties1.xlsx,logos/1.jpg,0,0,400,a,0,3,3,0,0,17,17,86,,,['a'],0,[0.4672871005241177],2018_Jul_09_0624,60.1573930141,go-nogo,001,34,
logos/1.jpg,properties1.xlsx,frogs/ab5.jpg,0,0,400,l,0,3,3,0,0,18,18,4,,,['l'],0,[0.20084519423835445],2018_Jul_09_0624,60.1573930141,go-nogo,001,34,
logos/1.jpg,properties1.xlsx,frogs/ab17.jpg,0,0,400,l,0,3,3,0,0,19,19,16,,,['l'],0,[0.300638358166907],2018_Jul_09_0624,60.1573930141,go-nogo,001,34,
logos/1.jpg,properties1.xlsx,frogs/ab7.jpg,0,0,400,l,0,3,3,0,0,20,20,6,,,['l'],0,[0.2507817154182703],2018_Jul_09_0624,60.1573930141,go-nogo,001,34,
logos/1.jpg,properties1.xlsx,logos/1.jpg,0,0,400,a,0,3,3,0,0,21,21,83,,,['a'],0,[0.3680713818757795],2018_Jul_09_0624,60.1573930141,go-nogo,001,34,
logos/1.jpg,properties1.xlsx,frogs/ab76.jpg,0,0,400,l,0,3,3,0,0,22,22,74,,,['l'],0,[0.2175223849262693],2018_Jul_09_0624,60.1573930141,go-nogo,001,34,
logos/1.jpg,properties1.xlsx,frogs/ab16.jpg,0,0,400,l,0,3,3,0,0,23,23,15,,,['l'],0,[0.3006945854431251],2018_Jul_09_0624,60.1573930141,go-nogo,001,34,
logos/1.jpg,properties1.xlsx,logos/1.jpg,0,0,400,a,0,3,3,0,0,24,24,85,,,['a'],0,[0.3177448396963882],2018_Jul_09_0624,60.1573930141,go-nogo,001,34,
logos/1.jpg,properties1.xlsx,frogs/ab61.jpg,0,0,400,l,0,3,3,0,0,25,25,59,,,['l'],0,[0.2508589163699071],2018_Jul_09_0624,60.1573930141,go-nogo,001,34,
logos/1.jpg,properties1.xlsx,frogs/ab66.jpg,0,0,400,l,0,3,3,0,0,26,26,64,,,['l'],0,[0.28392323637672234],2018_Jul_09_0624,60.1573930141,go-nogo,001,34,
logos/1.jpg,properties1.xlsx,frogs/ab55.jpg,0,0,400,l,0,3,3,0,0,27,27,54,,,['l'],0,[0.3174534395657247],2018_Jul_09_0624,60.1573930141,go-nogo,001,34,
logos/1.jpg,properties1.xlsx,frogs/ab10.jpg,0,0,400,l,0,3,3,0,0,28,28,9,,,['l'],0,[0.23396440277429065],2018_Jul_09_0624,60.1573930141,go-nogo,001,34,
logos/1.jpg,properties1.xlsx,frogs/ab27.jpg,0,0,400,l,0,3,3,0,0,29,29,26,,,['l'],0,[0.1835271910240408],2018_Jul_09_0624,60.1573930141,go-nogo,001,34,
logos/1.jpg,properties1.xlsx,frogs/ab26.jpg,0,0,400,l,0,3,3,0,0,30,30,25,,,['l'],0,[0.26745622861926677],2018_Jul_09_0624,60.1573930141,go-nogo,001,34,
logos/1.jpg,properties1.xlsx,frogs/ab70.jpg,0,0,400,l,0,3,3,0,0,31,31,68,,,['l'],0,[0.2673428815614898],2018_Jul_09_0624,60.1573930141,go-nogo,001,34,
logos/1.jpg,properties1.xlsx,frogs/ab34.jpg,0,0,400,l,0,3,3,0,0,32,32,33,,,['l'],0,[0.16785495145450113],2018_Jul_09_0624,60.1573930141,go-nogo,001,34,
logos/1.jpg,properties1.xlsx,frogs/ab71.jpg,0,0,400,l,0,3,3,0,0,33,33,69,,,['l'],0,[0.1347321729408577],2018_Jul_09_0624,60.1573930141,go-nogo,001,34,
logos/1.jpg,properties1.xlsx,logos/1.jpg,0,0,400,a,0,3,3,0,0,34,34,88,,,['a'],0,[0.40110848072799854],2018_Jul_09_0624,60.1573930141,go-nogo,001,34,
logos/1.jpg,properties1.xlsx,frogs/ab25.jpg,0,0,400,l,0,3,3,0,0,35,35,24,,,['l'],0,[0.20008523341675755],2018_Jul_09_0624,60.1573930141,go-nogo,001,34,
logos/1.jpg,properties1.xlsx,frogs/ab57.jpg,0,0,400,l,0,3,3,0,0,36,36,56,,,['l'],0,[0.21744027524982812],2018_Jul_09_0624,60.1573930141,go-nogo,001,34,
logos/1.jpg,properties1.xlsx,frogs/ab65.jpg,0,0,400,l,0,3,3,0,0,37,37,63,,,['l'],0,[0.16723734384140698],2018_Jul_09_0624,60.1573930141,go-nogo,001,34,
logos/1.jpg,properties1.xlsx,frogs/ab6.jpg,0,0,400,l,0,3,3,0,0,38,38,5,,,['l'],0,[0.2332655779682682],2018_Jul_09_0624,60.1573930141,go-nogo,001,34,
logos/1.jpg,properties1.xlsx,frogs/ab74.jpg,0,0,400,l,0,3,3,0,0,39,39,72,,,['l'],0,[0.08466623975982657],2018_Jul_09_0624,60.1573930141,go-nogo,001,34,
logos/1.jpg,properties1.xlsx,frogs/ab53.jpg,0,0,400,l,0,3,3,0,0,40,40,52,,,['l'],0,[0.25077368295023916],2018_Jul_09_0624,60.1573930141,go-nogo,001,34,
logos/1.jpg,properties1.xlsx,frogs/ab14.jpg,0,0,400,l,0,3,3,0,0,41,41,13,,,['l'],0,[0.11830265005119145],2018_Jul_09_0624,60.1573930141,go-nogo,001,34,
logos/1.jpg,properties1.xlsx,logos/1.jpg,0,0,400,a,0,3,3,0,0,42,42,80,,,['a'],0,[0.36763852104195394],2018_Jul_09_0624,60.1573930141,go-nogo,001,34,
logos/1.jpg,properties1.xlsx,frogs/ab46.jpg,0,0,400,l,0,3,3,0,0,43,43,45,,,['l'],0,[0.18485522589617176],2018_Jul_09_0624,60.1573930141,go-nogo,001,34,
logos/1.jpg,properties1.xlsx,frogs/ab1.jpg,0,0,400,l,0,3,3,0,0,44,44,0,,,['l'],0,[0.1675840787574998],2018_Jul_09_0624,60.1573930141,go-nogo,001,34,
logos/1.jpg,properties1.xlsx,frogs/ab68.jpg,0,0,400,l,0,3,3,0,0,45,45,66,,,['l'],0,[0.167265457486792],2018_Jul_09_0624,60.1573930141,go-nogo,001,34,
logos/1.jpg,properties1.xlsx,frogs/ab69.jpg,0,0,400,l,0,3,3,0,0,46,46,67,,,['l'],0,[0.3023300853892579],2018_Jul_09_0624,60.1573930141,go-nogo,001,34,
logos/1.jpg,properties1.xlsx,frogs/ab3.jpg,0,0,400,l,0,3,3,0,0,47,47,2,,,['l'],0,[0.25038633944495814],2018_Jul_09_0624,60.1573930141,go-nogo,001,34,
logos/1.jpg,properties1.xlsx,frogs/ab2.jpg,0,0,400,l,0,3,3,0,0,48,48,1,,,['l'],0,[0.8449131043016678],2018_Jul_09_0624,60.1573930141,go-nogo,001,34,
logos/1.jpg,properties1.xlsx,frogs/ab45.jpg,0,0,400,l,0,3,3,0,0,49,49,44,,,['l'],0,[0.21762814577232348],2018_Jul_09_0624,60.1573930141,go-nogo,001,34,
logos/1.jpg,properties1.xlsx,frogs/ab8.jpg,0,0,400,l,0,3,3,0,0,50,50,7,,,['l'],0,[0.26752405836305115],2018_Jul_09_0624,60.1573930141,go-nogo,001,34,
logos/1.jpg,properties1.xlsx,frogs/ab79.jpg,0,0,400,l,0,3,3,0,0,51,51,77,,,['l'],0,[0.2341295146397897],2018_Jul_09_0624,60.1573930141,go-nogo,001,34,
logos/1.jpg,properties1.xlsx,frogs/ab67.jpg,0,0,400,l,0,3,3,0,0,52,52,65,,,['l'],0,[0.3007686626588111],2018_Jul_09_0624,60.1573930141,go-nogo,001,34,
logos/1.jpg,properties1.xlsx,frogs/ab81.jpg,0,0,400,l,0,3,3,0,0,53,53,79,,,['l'],0,[0.3008039162741625],2018_Jul_09_0624,60.1573930141,go-nogo,001,34,
logos/1.jpg,properties1.xlsx,frogs/ab18.jpg,0,0,400,l,0,3,3,0,0,54,54,17,,,['l'],0,[0.38399441297224257],2018_Jul_09_0624,60.1573930141,go-nogo,001,34,
logos/1.jpg,properties1.xlsx,frogs/ab39.jpg,0,0,400,l,0,3,3,0,0,55,55,38,,,['l'],0,[0.20140166585042607],2018_Jul_09_0624,60.1573930141,go-nogo,001,34,
logos/1.jpg,properties1.xlsx,frogs/ab11.jpg,0,0,400,l,0,3,3,0,0,56,56,10,,,['l'],0,[0.18414390614634613],2018_Jul_09_0624,60.1573930141,go-nogo,001,34,
logos/1.jpg,properties1.xlsx,frogs/ab48.jpg,0,0,400,l,0,3,3,0,0,57,57,47,,,['l'],0,[0.21796104699024],2018_Jul_09_0624,60.1573930141,go-nogo,001,34,
logos/1.jpg,properties1.xlsx,frogs/ab36.jpg,0,0,400,l,0,3,3,0,0,58,58,35,,,['l'],0,[0.25104053942050086],2018_Jul_09_0624,60.1573930141,go-nogo,001,34,
logos/1.jpg,properties1.xlsx,frogs/ab12.jpg,0,0,400,l,0,3,3,0,0,59,59,11,,,['l'],0,[0.06834783268277533],2018_Jul_09_0624,60.1573930141,go-nogo,001,34,
logos/1.jpg,properties1.xlsx,frogs/ab52.jpg,0,0,400,l,0,3,3,0,0,60,60,51,,,['l'],0,[0.2506380234772223],2018_Jul_09_0624,60.1573930141,go-nogo,001,34,
logos/1.jpg,properties1.xlsx,frogs/ab50.jpg,0,0,400,l,0,3,3,0,0,61,61,49,,,['l'],0,[0.9324415805240278],2018_Jul_09_0624,60.1573930141,go-nogo,001,34,
logos/1.jpg,properties1.xlsx,frogs/ab60.jpg,0,0,400,l,0,3,3,0,0,62,62,58,,,['l'],0,[0.05049076153954957],2018_Jul_09_0624,60.1573930141,go-nogo,001,34,
logos/1.jpg,properties1.xlsx,frogs/ab62.jpg,0,0,400,l,0,3,3,0,0,63,63,60,,,['l'],0,[0.16781478911434533],2018_Jul_09_0624,60.1573930141,go-nogo,001,34,
logos/1.jpg,properties1.xlsx,frogs/ab49.jpg,0,0,400,l,0,3,3,0,0,64,64,48,,,['l'],0,[0.2009594338014722],2018_Jul_09_0624,60.1573930141,go-nogo,001,34,
logos/1.jpg,properties1.xlsx,frogs/ab30.jpg,0,0,400,l,0,3,3,0,0,65,65,29,,,['l'],0,[0.2342085005802801],2018_Jul_09_0624,60.1573930141,go-nogo,001,34,
logos/1.jpg,properties1.xlsx,frogs/ab23.jpg,0,0,400,l,0,3,3,0,0,66,66,22,,,['l'],0,[0.2507652042331756],2018_Jul_09_0624,60.1573930141,go-nogo,001,34,
logos/1.jpg,properties1.xlsx,frogs/ab38.jpg,0,0,400,l,0,3,3,0,0,67,67,37,,,['l'],0,[0.3173588349382044],2018_Jul_09_0624,60.1573930141,go-nogo,001,34,
logos/1.jpg,properties1.xlsx,frogs/ab41.jpg,0,0,400,l,0,3,3,0,0,68,68,40,,,['l'],0,[0.23450257820513798],2018_Jul_09_0624,60.1573930141,go-nogo,001,34,
logos/1.jpg,properties1.xlsx,frogs/ab31.jpg,0,0,400,l,0,3,3,0,0,69,69,30,,,['l'],0,[0.8505929524035309],2018_Jul_09_0624,60.1573930141,go-nogo,001,34,
logos/1.jpg,properties1.xlsx,frogs/ab33.jpg,0,0,400,l,0,3,3,0,0,70,70,32,,,['l'],0,[0.26758117814461],2018_Jul_09_0624,60.1573930141,go-nogo,001,34,
logos/1.jpg,properties1.xlsx,frogs/ab80.jpg,0,0,400,l,0,3,3,0,0,71,71,78,,,['l'],0,[0.18473830885341158],2018_Jul_09_0624,60.1573930141,go-nogo,001,34,
logos/1.jpg,properties1.xlsx,frogs/ab24.jpg,0,0,400,l,0,3,3,0,0,72,72,23,,,['l'],0,[0.20069302357296692],2018_Jul_09_0624,60.1573930141,go-nogo,001,34,
logos/1.jpg,properties1.xlsx,frogs/ab29.jpg,0,0,400,l,0,3,3,0,0,73,73,28,,,['l'],0,[0.23409024479042273],2018_Jul_09_0624,60.1573930141,go-nogo,001,34,
logos/1.jpg,properties1.xlsx,frogs/ab43.jpg,0,0,400,l,0,3,3,0,0,74,74,42,,,['l'],0,[0.20120977907936322],2018_Jul_09_0624,60.1573930141,go-nogo,001,34,
logos/1.jpg,properties1.xlsx,frogs/ab21.jpg,0,0,400,l,0,3,3,0,0,75,75,20,,,['l'],0,[0.30079097507405095],2018_Jul_09_0624,60.1573930141,go-nogo,001,34,
logos/1.jpg,properties1.xlsx,frogs/ab77.jpg,0,0,400,l,0,3,3,0,0,76,76,75,,,['l'],0,[0.3341185815515928],2018_Jul_09_0624,60.1573930141,go-nogo,001,34,
logos/1.jpg,properties1.xlsx,frogs/ab51.jpg,0,0,400,l,0,3,3,0,0,77,77,50,,,['l'],0,[0.2840263197213062],2018_Jul_09_0624,60.1573930141,go-nogo,001,34,
logos/1.jpg,properties1.xlsx,logos/1.jpg,0,0,400,a,0,3,3,0,0,78,78,81,,,['a'],0,[0.43436067124275723],2018_Jul_09_0624,60.1573930141,go-nogo,001,34,
logos/1.jpg,properties1.xlsx,frogs/ab56.jpg,0,0,400,l,0,3,3,0,0,79,79,55,,,['a'],0,[0.28129617275408236],2018_Jul_09_0624,60.1573930141,go-nogo,001,34,
logos/1.jpg,properties1.xlsx,frogs/ab75.jpg,0,0,400,l,0,3,3,0,0,80,80,73,,,['l'],0,[0.11777116834855406],2018_Jul_09_0624,60.1573930141,go-nogo,001,34,
logos/1.jpg,properties1.xlsx,frogs/ab4.jpg,0,0,400,l,0,3,3,0,0,81,81,3,,,['l'],0,[0.1841653260635212],2018_Jul_09_0624,60.1573930141,go-nogo,001,34,
logos/1.jpg,properties1.xlsx,frogs/ab72.jpg,0,0,400,l,0,3,3,0,0,82,82,70,,,['l'],0,[0.184488409817277],2018_Jul_09_0624,60.1573930141,go-nogo,001,34,
logos/1.jpg,properties1.xlsx,frogs/ab73.jpg,0,0,400,l,0,3,3,0,0,83,83,71,,,['l'],0,[0.15089439311122987],2018_Jul_09_0624,60.1573930141,go-nogo,001,34,
logos/1.jpg,properties1.xlsx,frogs/ab9.jpg,0,0,400,l,0,3,3,0,0,84,84,8,,,['l'],0,[0.01808510400587693],2018_Jul_09_0624,60.1573930141,go-nogo,001,34,
logos/1.jpg,properties1.xlsx,frogs/ab44.jpg,0,0,400,l,0,3,3,0,0,85,85,43,,,['l'],0,[0.4842860362259671],2018_Jul_09_0624,60.1573930141,go-nogo,001,34,
logos/1.jpg,properties1.xlsx,logos/1.jpg,0,0,400,a,0,3,3,0,0,86,86,89,,,['a'],0,[0.2846064424884389],2018_Jul_09_0624,60.1573930141,go-nogo,001,34,
logos/1.jpg,properties1.xlsx,logos/1.jpg,0,0,400,a,0,3,3,0,0,87,87,87,,,['a'],0,[0.5174213096979656],2018_Jul_09_0624,60.1573930141,go-nogo,001,34,
logos/1.jpg,properties1.xlsx,frogs/ab58.jpg,0,0,400,l,0,3,3,0,0,88,88,57,,,['l'],0,[0.4181806011401932],2018_Jul_09_0624,60.1573930141,go-nogo,001,34,
logos/1.jpg,properties1.xlsx,frogs/ab78.jpg,0,0,400,l,0,3,3,0,0,89,89,76,,,['l'],0,[0.28417492040171055],2018_Jul_09_0624,60.1573930141,go-nogo,001,34,
logos/1.jpg,properties1.xlsx,,,,,,0,3,3,0,,,,,,,,,,2018_Jul_09_0624,60.1573930141,go-nogo,001,34,
