pix,source,image1,x,y,size,answer,trials_2.thisRepN,trials_2.thisTrialN,trials_2.thisN,trials_2.thisIndex,trials.thisRepN,trials.thisTrialN,trials.thisN,trials.thisIndex,key_resp_3.keys,key_resp_3.rt,key_resp_2.keys,key_resp_2.corr,key_resp_2.rt,date,frameRate,expName,session,participant,
logos/2.jpg,properties2.xlsx,frogs/ab27.jpg,0,0,400,l,0,0,0,1,0,0,0,26,space,8.63632040077,['l'],0,[2.732007024646009],2018_Jul_09_1445,60.0220241004,go-nogo,001,35,
logos/2.jpg,properties2.xlsx,frogs/ab20.jpg,0,0,400,l,0,0,0,1,0,1,1,19,,,['l'],0,[0.0005597871440841118],2018_Jul_09_1445,60.0220241004,go-nogo,001,35,
logos/2.jpg,properties2.xlsx,frogs/ab78.jpg,0,0,400,l,0,0,0,1,0,2,2,76,,,['l'],0,[0.05049234530815738],2018_Jul_09_1445,60.0220241004,go-nogo,001,35,
logos/2.jpg,properties2.xlsx,frogs/ab72.jpg,0,0,400,l,0,0,0,1,0,3,3,70,,,['l'],0,[0.35038294788319035],2018_Jul_09_1445,60.0220241004,go-nogo,001,35,
logos/2.jpg,properties2.xlsx,frogs/ab56.jpg,0,0,400,l,0,0,0,1,0,4,4,55,,,['l'],0,[0.033642979820797336],2018_Jul_09_1445,60.0220241004,go-nogo,001,35,
logos/2.jpg,properties2.xlsx,frogs/ab67.jpg,0,0,400,l,0,0,0,1,0,5,5,65,,,['l'],0,[0.13373394523114257],2018_Jul_09_1445,60.0220241004,go-nogo,001,35,
logos/2.jpg,properties2.xlsx,frogs/ab6.jpg,0,0,400,l,0,0,0,1,0,6,6,5,,,['l'],0,[0.11714285551715875],2018_Jul_09_1445,60.0220241004,go-nogo,001,35,
logos/2.jpg,properties2.xlsx,frogs/ab14.jpg,0,0,400,l,0,0,0,1,0,7,7,13,,,['l'],0,[0.8833412693402352],2018_Jul_09_1445,60.0220241004,go-nogo,001,35,
logos/2.jpg,properties2.xlsx,frogs/ab42.jpg,0,0,400,l,0,0,0,1,0,8,8,41,,,['l'],0,[0.783118321593065],2018_Jul_09_1445,60.0220241004,go-nogo,001,35,
logos/2.jpg,properties2.xlsx,frogs/ab55.jpg,0,0,400,l,0,0,0,1,0,9,9,54,,,['l'],0,[0.8833492337926145],2018_Jul_09_1445,60.0220241004,go-nogo,001,35,
logos/2.jpg,properties2.xlsx,frogs/ab15.jpg,0,0,400,l,0,0,0,1,0,10,10,14,,,['l'],0,[0.5002761957912298],2018_Jul_09_1445,60.0220241004,go-nogo,001,35,
logos/2.jpg,properties2.xlsx,frogs/ab8.jpg,0,0,400,l,0,0,0,1,0,11,11,7,,,['l'],0,[0.3670314954215428],2018_Jul_09_1445,60.0220241004,go-nogo,001,35,
logos/2.jpg,properties2.xlsx,frogs/ab21.jpg,0,0,400,l,0,0,0,1,0,12,12,20,,,['l'],0,[0.36710601993036107],2018_Jul_09_1445,60.0220241004,go-nogo,001,35,
logos/2.jpg,properties2.xlsx,frogs/ab38.jpg,0,0,400,l,0,0,0,1,0,13,13,37,,,['l'],0,[0.333616071351571],2018_Jul_09_1445,60.0220241004,go-nogo,001,35,
logos/2.jpg,properties2.xlsx,frogs/ab51.jpg,0,0,400,l,0,0,0,1,0,14,14,50,,,['l'],0,[0.2837011487572454],2018_Jul_09_1445,60.0220241004,go-nogo,001,35,
logos/2.jpg,properties2.xlsx,frogs/ab3.jpg,0,0,400,l,0,0,0,1,0,15,15,2,,,['l'],0,[0.33369230252901616],2018_Jul_09_1445,60.0220241004,go-nogo,001,35,
logos/2.jpg,properties2.xlsx,logos/2.jpg,0,0,400,a,0,0,0,1,0,16,16,80,,,['l'],0,[0.3168799148497783],2018_Jul_09_1445,60.0220241004,go-nogo,001,35,
logos/2.jpg,properties2.xlsx,logos/2.jpg,0,0,400,a,0,0,0,1,0,17,17,88,,,['a'],0,[0.4669096962079493],2018_Jul_09_1445,60.0220241004,go-nogo,001,35,
logos/2.jpg,properties2.xlsx,frogs/ab7.jpg,0,0,400,l,0,0,0,1,0,18,18,6,,,['l'],0,[0.5003171558255417],2018_Jul_09_1445,60.0220241004,go-nogo,001,35,
logos/2.jpg,properties2.xlsx,frogs/ab35.jpg,0,0,400,l,0,0,0,1,0,19,19,34,,,['l'],0,[0.2837637265893136],2018_Jul_09_1445,60.0220241004,go-nogo,001,35,
logos/2.jpg,properties2.xlsx,frogs/ab66.jpg,0,0,400,l,0,0,0,1,0,20,20,64,,,['l'],0,[0.36683636636735173],2018_Jul_09_1445,60.0220241004,go-nogo,001,35,
logos/2.jpg,properties2.xlsx,frogs/ab34.jpg,0,0,400,l,0,0,0,1,0,21,21,33,,,['l'],0,[0.45019231305377616],2018_Jul_09_1445,60.0220241004,go-nogo,001,35,
logos/2.jpg,properties2.xlsx,frogs/ab71.jpg,0,0,400,l,0,0,0,1,0,22,22,69,,,['l'],0,[0.18387357912797597],2018_Jul_09_1445,60.0220241004,go-nogo,001,35,
logos/2.jpg,properties2.xlsx,frogs/ab40.jpg,0,0,400,l,0,0,0,1,0,23,23,39,,,['l'],0,[0.21702788297443476],2018_Jul_09_1445,60.0220241004,go-nogo,001,35,
logos/2.jpg,properties2.xlsx,frogs/ab44.jpg,0,0,400,l,0,0,0,1,0,24,24,43,,,['l'],0,[0.20049937109433813],2018_Jul_09_1445,60.0220241004,go-nogo,001,35,
logos/2.jpg,properties2.xlsx,logos/2.jpg,0,0,400,a,0,0,0,1,0,25,25,89,,,['a'],0,[0.05055662980703346],2018_Jul_09_1445,60.0220241004,go-nogo,001,35,
logos/2.jpg,properties2.xlsx,frogs/ab41.jpg,0,0,400,l,0,0,0,1,0,26,26,40,,,['a'],0,[0.03390751337974507],2018_Jul_09_1445,60.0220241004,go-nogo,001,35,
logos/2.jpg,properties2.xlsx,frogs/ab61.jpg,0,0,400,l,0,0,0,1,0,27,27,59,,,['l'],0,[0.03349677525147854],2018_Jul_09_1445,60.0220241004,go-nogo,001,35,
logos/2.jpg,properties2.xlsx,frogs/ab16.jpg,0,0,400,l,0,0,0,1,0,28,28,15,,,['l'],0,[0.33370823143195594],2018_Jul_09_1445,60.0220241004,go-nogo,001,35,
logos/2.jpg,properties2.xlsx,frogs/ab46.jpg,0,0,400,l,0,0,0,1,0,29,29,45,,,['l'],0,[1.6663162308122992],2018_Jul_09_1445,60.0220241004,go-nogo,001,35,
logos/2.jpg,properties2.xlsx,frogs/ab74.jpg,0,0,400,l,0,0,0,1,0,30,30,72,,,['l'],0,[2.6488228825510305],2018_Jul_09_1445,60.0220241004,go-nogo,001,35,
logos/2.jpg,properties2.xlsx,frogs/ab76.jpg,0,0,400,l,0,0,0,1,0,31,31,74,,,['l'],0,[0.28361297090486914],2018_Jul_09_1445,60.0220241004,go-nogo,001,35,
logos/2.jpg,properties2.xlsx,frogs/ab29.jpg,0,0,400,l,0,0,0,1,0,32,32,28,,,['l'],0,[0.2668847788536368],2018_Jul_09_1445,60.0220241004,go-nogo,001,35,
logos/2.jpg,properties2.xlsx,frogs/ab53.jpg,0,0,400,l,0,0,0,1,0,33,33,52,,,['l'],0,[0.3003121496003587],2018_Jul_09_1445,60.0220241004,go-nogo,001,35,
logos/2.jpg,properties2.xlsx,frogs/ab43.jpg,0,0,400,l,0,0,0,1,0,34,34,42,,,['l'],0,[0.3170835772452847],2018_Jul_09_1445,60.0220241004,go-nogo,001,35,
logos/2.jpg,properties2.xlsx,frogs/ab11.jpg,0,0,400,l,0,0,0,1,0,35,35,10,,,['l'],0,[0.233678706072169],2018_Jul_09_1445,60.0220241004,go-nogo,001,35,
logos/2.jpg,properties2.xlsx,frogs/ab80.jpg,0,0,400,l,0,0,0,1,0,36,36,78,,,['l'],0,[0.2669723878170771],2018_Jul_09_1445,60.0220241004,go-nogo,001,35,
logos/2.jpg,properties2.xlsx,frogs/ab49.jpg,0,0,400,l,0,0,0,1,0,37,37,48,,,['l'],0,[0.31695330157890567],2018_Jul_09_1445,60.0220241004,go-nogo,001,35,
logos/2.jpg,properties2.xlsx,frogs/ab70.jpg,0,0,400,l,0,0,0,1,0,38,38,68,,,['l'],0,[0.16713344039817457],2018_Jul_09_1445,60.0220241004,go-nogo,001,35,
logos/2.jpg,properties2.xlsx,logos/2.jpg,0,0,400,a,0,0,0,1,0,39,39,87,,,['a'],0,[0.23402288414399663],2018_Jul_09_1445,60.0220241004,go-nogo,001,35,
logos/2.jpg,properties2.xlsx,frogs/ab48.jpg,0,0,400,l,0,0,0,1,0,40,40,47,,,['l'],0,[0.1338886831417767],2018_Jul_09_1445,60.0220241004,go-nogo,001,35,
logos/2.jpg,properties2.xlsx,frogs/ab45.jpg,0,0,400,l,0,0,0,1,0,41,41,44,,,['l'],0,[0.30018870060666814],2018_Jul_09_1445,60.0220241004,go-nogo,001,35,
logos/2.jpg,properties2.xlsx,frogs/ab57.jpg,0,0,400,l,0,0,0,1,0,42,42,56,,,['l'],0,[0.26710095681482926],2018_Jul_09_1445,60.0220241004,go-nogo,001,35,
logos/2.jpg,properties2.xlsx,frogs/ab24.jpg,0,0,400,l,0,0,0,1,0,43,43,23,,,['l'],0,[0.2671749124347116],2018_Jul_09_1445,60.0220241004,go-nogo,001,35,
logos/2.jpg,properties2.xlsx,frogs/ab5.jpg,0,0,400,l,0,0,0,1,0,44,44,4,,,['l'],0,[0.33356316464050906],2018_Jul_09_1445,60.0220241004,go-nogo,001,35,
logos/2.jpg,properties2.xlsx,logos/2.jpg,0,0,400,a,0,0,0,1,0,45,45,83,,,['a'],0,[0.13382155419458286],2018_Jul_09_1445,60.0220241004,go-nogo,001,35,
logos/2.jpg,properties2.xlsx,frogs/ab60.jpg,0,0,400,l,0,0,0,1,0,46,46,58,,,['l'],0,[0.36709464214436593],2018_Jul_09_1445,60.0220241004,go-nogo,001,35,
logos/2.jpg,properties2.xlsx,frogs/ab65.jpg,0,0,400,l,0,0,0,1,0,47,47,63,,,['l'],0,[0.2670935612532048],2018_Jul_09_1445,60.0220241004,go-nogo,001,35,
logos/2.jpg,properties2.xlsx,frogs/ab31.jpg,0,0,400,l,0,0,0,1,0,48,48,30,,,['l'],0,[0.3004737141836813],2018_Jul_09_1445,60.0220241004,go-nogo,001,35,
logos/2.jpg,properties2.xlsx,frogs/ab22.jpg,0,0,400,l,0,0,0,1,0,49,49,21,,,['l'],0,[0.40023187931001303],2018_Jul_09_1445,60.0220241004,go-nogo,001,35,
logos/2.jpg,properties2.xlsx,frogs/ab69.jpg,0,0,400,l,0,0,0,1,0,50,50,67,,,['l'],0,[0.3003485585213639],2018_Jul_09_1445,60.0220241004,go-nogo,001,35,
logos/2.jpg,properties2.xlsx,frogs/ab9.jpg,0,0,400,l,0,0,0,1,0,51,51,8,,,['l'],0,[0.2670770634613291],2018_Jul_09_1445,60.0220241004,go-nogo,001,35,
logos/2.jpg,properties2.xlsx,logos/2.jpg,0,0,400,a,0,0,0,1,0,52,52,86,,,['a'],0,[0.2503340802850289],2018_Jul_09_1445,60.0220241004,go-nogo,001,35,
logos/2.jpg,properties2.xlsx,frogs/ab79.jpg,0,0,400,l,0,0,0,1,0,53,53,77,,,['l'],0,[0.16707256923473324],2018_Jul_09_1445,60.0220241004,go-nogo,001,35,
logos/2.jpg,properties2.xlsx,frogs/ab64.jpg,0,0,400,l,0,0,0,1,0,54,54,62,,,['l'],0,[0.3170767505725962],2018_Jul_09_1445,60.0220241004,go-nogo,001,35,
logos/2.jpg,properties2.xlsx,frogs/ab33.jpg,0,0,400,l,0,0,0,1,0,55,55,32,,,['l'],0,[0.25041713813334354],2018_Jul_09_1445,60.0220241004,go-nogo,001,35,
logos/2.jpg,properties2.xlsx,frogs/ab19.jpg,0,0,400,l,0,0,0,1,0,56,56,18,,,['l'],0,[0.30042990969923267],2018_Jul_09_1445,60.0220241004,go-nogo,001,35,
logos/2.jpg,properties2.xlsx,logos/2.jpg,0,0,400,a,0,0,0,1,0,57,57,85,,,['l'],0,[0.4667361849478766],2018_Jul_09_1445,60.0220241004,go-nogo,001,35,
logos/2.jpg,properties2.xlsx,logos/2.jpg,0,0,400,a,0,0,0,1,0,58,58,81,,,['a'],0,[0.3336758047371404],2018_Jul_09_1445,60.0220241004,go-nogo,001,35,
logos/2.jpg,properties2.xlsx,frogs/ab2.jpg,0,0,400,l,0,0,0,1,0,59,59,1,,,['l'],0,[0.21717238087694568],2018_Jul_09_1445,60.0220241004,go-nogo,001,35,
logos/2.jpg,properties2.xlsx,frogs/ab73.jpg,0,0,400,l,0,0,0,1,0,60,60,71,,,['l'],0,[0.11699551316996804],2018_Jul_09_1445,60.0220241004,go-nogo,001,35,
logos/2.jpg,properties2.xlsx,frogs/ab12.jpg,0,0,400,l,0,0,0,1,0,61,61,11,,,['l'],0,[0.4336177211316681],2018_Jul_09_1445,60.0220241004,go-nogo,001,35,
logos/2.jpg,properties2.xlsx,frogs/ab58.jpg,0,0,400,l,0,0,0,1,0,62,62,57,,,['l'],0,[0.03403722015718813],2018_Jul_09_1445,60.0220241004,go-nogo,001,35,
logos/2.jpg,properties2.xlsx,frogs/ab81.jpg,0,0,400,l,0,0,0,1,0,63,63,79,,,['l'],0,[0.3334971734748251],2018_Jul_09_1445,60.0220241004,go-nogo,001,35,
logos/2.jpg,properties2.xlsx,frogs/ab75.jpg,0,0,400,l,0,0,0,1,0,64,64,73,,,['l'],0,[0.0007697073233430274],2018_Jul_09_1445,60.0220241004,go-nogo,001,35,
logos/2.jpg,properties2.xlsx,frogs/ab77.jpg,0,0,400,l,0,0,0,1,0,65,65,75,,,['l'],0,[0.06710050170477189],2018_Jul_09_1445,60.0220241004,go-nogo,001,35,
logos/2.jpg,properties2.xlsx,frogs/ab47.jpg,0,0,400,l,0,0,0,1,0,66,66,46,,,['l'],0,[0.10054323246367858],2018_Jul_09_1445,60.0220241004,go-nogo,001,35,
logos/2.jpg,properties2.xlsx,frogs/ab68.jpg,0,0,400,l,0,0,0,1,0,67,67,66,,,['l'],0,[0.21674457606786746],2018_Jul_09_1445,60.0220241004,go-nogo,001,35,
logos/2.jpg,properties2.xlsx,frogs/ab36.jpg,0,0,400,l,0,0,0,1,0,68,68,35,,,['l'],0,[0.2836721353996836],2018_Jul_09_1445,60.0220241004,go-nogo,001,35,
logos/2.jpg,properties2.xlsx,frogs/ab28.jpg,0,0,400,l,0,0,0,1,0,69,69,27,,,['l'],0,[0.11684817082277732],2018_Jul_09_1445,60.0220241004,go-nogo,001,35,
logos/2.jpg,properties2.xlsx,frogs/ab4.jpg,0,0,400,l,0,0,0,1,0,70,70,3,,,['l'],0,[0.5002710757871682],2018_Jul_09_1445,60.0220241004,go-nogo,001,35,
logos/2.jpg,properties2.xlsx,frogs/ab63.jpg,0,0,400,l,0,0,0,1,0,71,71,61,,,['l'],0,[0.21704665632387332],2018_Jul_09_1445,60.0220241004,go-nogo,001,35,
logos/2.jpg,properties2.xlsx,logos/2.jpg,0,0,400,a,0,0,0,1,0,72,72,84,,,['a'],0,[0.2502959646972158],2018_Jul_09_1445,60.0220241004,go-nogo,001,35,
logos/2.jpg,properties2.xlsx,frogs/ab32.jpg,0,0,400,l,0,0,0,1,0,73,73,31,,,['l'],0,[0.2670480501037673],2018_Jul_09_1445,60.0220241004,go-nogo,001,35,
logos/2.jpg,properties2.xlsx,frogs/ab18.jpg,0,0,400,l,0,0,0,1,0,74,74,17,,,['l'],0,[0.6335021228096593],2018_Jul_09_1445,60.0220241004,go-nogo,001,35,
logos/2.jpg,properties2.xlsx,frogs/ab37.jpg,0,0,400,l,0,0,0,1,0,75,75,36,,,['l'],0,[0.20014950412769394],2018_Jul_09_1445,60.0220241004,go-nogo,001,35,
logos/2.jpg,properties2.xlsx,frogs/ab25.jpg,0,0,400,l,0,0,0,1,0,76,76,24,,,['l'],0,[0.40031891938269837],2018_Jul_09_1445,60.0220241004,go-nogo,001,35,
logos/2.jpg,properties2.xlsx,frogs/ab26.jpg,0,0,400,l,0,0,0,1,0,77,77,25,,,['l'],0,[0.2670457745443855],2018_Jul_09_1445,60.0220241004,go-nogo,001,35,
logos/2.jpg,properties2.xlsx,frogs/ab50.jpg,0,0,400,l,0,0,0,1,0,78,78,49,,,['l'],0,[0.333433457863066],2018_Jul_09_1445,60.0220241004,go-nogo,001,35,
logos/2.jpg,properties2.xlsx,frogs/ab52.jpg,0,0,400,l,0,0,0,1,0,79,79,51,,,['l'],0,[0.2001591752468812],2018_Jul_09_1445,60.0220241004,go-nogo,001,35,
logos/2.jpg,properties2.xlsx,frogs/ab10.jpg,0,0,400,l,0,0,0,1,0,80,80,9,,,['l'],0,[0.3504557657215628],2018_Jul_09_1445,60.0220241004,go-nogo,001,35,
logos/2.jpg,properties2.xlsx,frogs/ab1.jpg,0,0,400,l,0,0,0,1,0,81,81,0,,,['l'],0,[0.2504034847879666],2018_Jul_09_1445,60.0220241004,go-nogo,001,35,
logos/2.jpg,properties2.xlsx,frogs/ab54.jpg,0,0,400,l,0,0,0,1,0,82,82,53,,,['l'],0,[0.06719891956527135],2018_Jul_09_1445,60.0220241004,go-nogo,001,35,
logos/2.jpg,properties2.xlsx,frogs/ab39.jpg,0,0,400,l,0,0,0,1,0,83,83,38,,,['l'],0,[0.28365051760374627],2018_Jul_09_1445,60.0220241004,go-nogo,001,35,
logos/2.jpg,properties2.xlsx,frogs/ab13.jpg,0,0,400,l,0,0,0,1,0,84,84,12,,,['l'],0,[0.10047439684967685],2018_Jul_09_1445,60.0220241004,go-nogo,001,35,
logos/2.jpg,properties2.xlsx,frogs/ab62.jpg,0,0,400,l,0,0,0,1,0,85,85,60,,,['l'],0,[0.13391200760452193],2018_Jul_09_1445,60.0220241004,go-nogo,001,35,
logos/2.jpg,properties2.xlsx,frogs/ab30.jpg,0,0,400,l,0,0,0,1,0,86,86,29,,,['l'],0,[0.23364457270872663],2018_Jul_09_1445,60.0220241004,go-nogo,001,35,
logos/2.jpg,properties2.xlsx,frogs/ab23.jpg,0,0,400,l,0,0,0,1,0,87,87,22,,,['l'],0,[0.20025531755163684],2018_Jul_09_1445,60.0220241004,go-nogo,001,35,
logos/2.jpg,properties2.xlsx,logos/2.jpg,0,0,400,a,0,0,0,1,0,88,88,82,,,['a'],0,[0.0506812165822339],2018_Jul_09_1445,60.0220241004,go-nogo,001,35,
logos/2.jpg,properties2.xlsx,frogs/ab17.jpg,0,0,400,l,0,0,0,1,0,89,89,16,,,['l'],0,[0.03385745111336291],2018_Jul_09_1445,60.0220241004,go-nogo,001,35,
logos/2.jpg,properties2.xlsx,,,,,,0,0,0,1,,,,,,,,,,2018_Jul_09_1445,60.0220241004,go-nogo,001,35,
logos/4.jpg,properties4.xlsx,frogs/ab34.jpg,0,0,400,l,0,1,1,3,0,0,0,33,space,9.84258319011,['l'],0,[0.0337413976812968],2018_Jul_09_1445,60.0220241004,go-nogo,001,35,
logos/4.jpg,properties4.xlsx,frogs/ab20.jpg,0,0,400,l,0,1,1,3,0,1,1,19,,,['l'],0,[0.16717781376974017],2018_Jul_09_1445,60.0220241004,go-nogo,001,35,
logos/4.jpg,properties4.xlsx,logos/4.jpg,0,0,400,a,0,1,1,3,0,2,2,87,,,['a'],0,[0.23401321302480937],2018_Jul_09_1445,60.0220241004,go-nogo,001,35,
logos/4.jpg,properties4.xlsx,frogs/ab36.jpg,0,0,400,l,0,1,1,3,0,3,3,35,,,['l'],0,[0.15062028853026277],2018_Jul_09_1445,60.0220241004,go-nogo,001,35,
logos/4.jpg,properties4.xlsx,frogs/ab33.jpg,0,0,400,l,0,1,1,3,0,4,4,32,,,['l'],0,[0.31675931030076754],2018_Jul_09_1445,60.0220241004,go-nogo,001,35,
logos/4.jpg,properties4.xlsx,frogs/ab52.jpg,0,0,400,l,0,1,1,3,0,5,5,51,,,['l'],0,[0.36654623278627696],2018_Jul_09_1445,60.0220241004,go-nogo,001,35,
logos/4.jpg,properties4.xlsx,frogs/ab57.jpg,0,0,400,l,0,1,1,3,0,6,6,56,,,['l'],0,[0.2670873034712713],2018_Jul_09_1445,60.0220241004,go-nogo,001,35,
logos/4.jpg,properties4.xlsx,frogs/ab26.jpg,0,0,400,l,0,1,1,3,0,7,7,25,,,['l'],0,[0.2670315523118916],2018_Jul_09_1445,60.0220241004,go-nogo,001,35,
logos/4.jpg,properties4.xlsx,frogs/ab64.jpg,0,0,400,l,0,1,1,3,0,8,8,62,,,['l'],0,[0.23408944420043554],2018_Jul_09_1445,60.0220241004,go-nogo,001,35,
logos/4.jpg,properties4.xlsx,frogs/ab71.jpg,0,0,400,l,0,1,1,3,0,9,9,69,,,['l'],0,[0.36715437552811636],2018_Jul_09_1445,60.0220241004,go-nogo,001,35,
logos/4.jpg,properties4.xlsx,logos/4.jpg,0,0,400,a,0,1,1,3,0,10,10,89,,,['a'],0,[0.20043906881983276],2018_Jul_09_1445,60.0220241004,go-nogo,001,35,
logos/4.jpg,properties4.xlsx,frogs/ab27.jpg,0,0,400,l,0,1,1,3,0,11,11,26,,,['l'],0,[0.8168119325673615],2018_Jul_09_1445,60.0220241004,go-nogo,001,35,
logos/4.jpg,properties4.xlsx,frogs/ab51.jpg,0,0,400,l,0,1,1,3,0,12,12,50,,,['l'],0,[0.050413269686032436],2018_Jul_09_1445,60.0220241004,go-nogo,001,35,
logos/4.jpg,properties4.xlsx,frogs/ab55.jpg,0,0,400,l,0,1,1,3,0,13,13,54,,,['l'],0,[0.26711404127127025],2018_Jul_09_1445,60.0220241004,go-nogo,001,35,
logos/4.jpg,properties4.xlsx,frogs/ab65.jpg,0,0,400,l,0,1,1,3,0,14,14,63,,,['l'],0,[0.13387275423701794],2018_Jul_09_1445,60.0220241004,go-nogo,001,35,
logos/4.jpg,properties4.xlsx,frogs/ab11.jpg,0,0,400,l,0,1,1,3,0,15,15,10,,,['l'],0,[0.4337007789818017],2018_Jul_09_1445,60.0220241004,go-nogo,001,35,
logos/4.jpg,properties4.xlsx,logos/4.jpg,0,0,400,a,0,1,1,3,0,16,16,82,,,['a'],0,[0.23377712393448746],2018_Jul_09_1445,60.0220241004,go-nogo,001,35,
logos/4.jpg,properties4.xlsx,frogs/ab41.jpg,0,0,400,l,0,1,1,3,0,17,17,40,,,['l'],0,[0.3836550118303421],2018_Jul_09_1445,60.0220241004,go-nogo,001,35,
logos/4.jpg,properties4.xlsx,logos/4.jpg,0,0,400,a,0,1,1,3,0,18,18,80,,,['l'],0,[0.21706884301056562],2018_Jul_09_1445,60.0220241004,go-nogo,001,35,
logos/4.jpg,properties4.xlsx,frogs/ab44.jpg,0,0,400,l,0,1,1,3,0,19,19,43,,,['l'],0,[0.3171148661604093],2018_Jul_09_1445,60.0220241004,go-nogo,001,35,
logos/4.jpg,properties4.xlsx,frogs/ab6.jpg,0,0,400,l,0,1,1,3,0,20,20,5,,,['l'],0,[0.23400183523699525],2018_Jul_09_1445,60.0220241004,go-nogo,001,35,
logos/4.jpg,properties4.xlsx,frogs/ab73.jpg,0,0,400,l,0,1,1,3,0,21,21,71,,,['l'],0,[0.2671185923845769],2018_Jul_09_1445,60.0220241004,go-nogo,001,35,
logos/4.jpg,properties4.xlsx,frogs/ab8.jpg,0,0,400,l,0,1,1,3,0,22,22,7,,,['l'],0,[0.06720688401583175],2018_Jul_09_1445,60.0220241004,go-nogo,001,35,
logos/4.jpg,properties4.xlsx,frogs/ab49.jpg,0,0,400,l,0,1,1,3,0,23,23,48,,,['l'],0,[0.3336797869633301],2018_Jul_09_1445,60.0220241004,go-nogo,001,35,
logos/4.jpg,properties4.xlsx,frogs/ab22.jpg,0,0,400,l,0,1,1,3,0,24,24,21,,,['l'],0,[0.18355386329858447],2018_Jul_09_1445,60.0220241004,go-nogo,001,35,
logos/4.jpg,properties4.xlsx,logos/4.jpg,0,0,400,a,0,1,1,3,0,25,25,88,,,['a'],0,[0.2341275597900676],2018_Jul_09_1445,60.0220241004,go-nogo,001,35,
logos/4.jpg,properties4.xlsx,frogs/ab39.jpg,0,0,400,l,0,1,1,3,0,26,26,38,,,['l'],0,[0.33331000886937545],2018_Jul_09_1445,60.0220241004,go-nogo,001,35,
logos/4.jpg,properties4.xlsx,frogs/ab48.jpg,0,0,400,l,0,1,1,3,0,27,27,47,,,['l'],0,[0.46689888730907114],2018_Jul_09_1445,60.0220241004,go-nogo,001,35,
logos/4.jpg,properties4.xlsx,frogs/ab23.jpg,0,0,400,l,0,1,1,3,0,28,28,22,,,['l'],0,[0.4004503328287683],2018_Jul_09_1445,60.0220241004,go-nogo,001,35,
logos/4.jpg,properties4.xlsx,logos/4.jpg,0,0,400,a,0,1,1,3,0,29,29,83,,,['a'],0,[0.1838849569139711],2018_Jul_09_1445,60.0220241004,go-nogo,001,35,
logos/4.jpg,properties4.xlsx,frogs/ab54.jpg,0,0,400,l,0,1,1,3,0,30,30,53,,,['l'],0,[0.21695620291393425],2018_Jul_09_1445,60.0220241004,go-nogo,001,35,
logos/4.jpg,properties4.xlsx,frogs/ab42.jpg,0,0,400,l,0,1,1,3,0,31,31,41,,,['l'],0,[0.16707768924061384],2018_Jul_09_1445,60.0220241004,go-nogo,001,35,
logos/4.jpg,properties4.xlsx,frogs/ab78.jpg,0,0,400,l,0,1,1,3,0,32,32,76,,,['l'],0,[0.317105763930158],2018_Jul_09_1445,60.0220241004,go-nogo,001,35,
logos/4.jpg,properties4.xlsx,frogs/ab66.jpg,0,0,400,l,0,1,1,3,0,33,33,64,,,['l'],0,[0.3836396518163383],2018_Jul_09_1445,60.0220241004,go-nogo,001,35,
logos/4.jpg,properties4.xlsx,frogs/ab70.jpg,0,0,400,l,0,1,1,3,0,34,34,68,,,['l'],0,[0.4166761955639231],2018_Jul_09_1445,60.0220241004,go-nogo,001,35,
logos/4.jpg,properties4.xlsx,frogs/ab80.jpg,0,0,400,l,0,1,1,3,0,35,35,78,,,['l'],0,[0.21728672764038492],2018_Jul_09_1445,60.0220241004,go-nogo,001,35,
logos/4.jpg,properties4.xlsx,frogs/ab81.jpg,0,0,400,l,0,1,1,3,0,36,36,79,,,['l'],0,[0.21666891378117725],2018_Jul_09_1445,60.0220241004,go-nogo,001,35,
logos/4.jpg,properties4.xlsx,frogs/ab18.jpg,0,0,400,l,0,1,1,3,0,37,37,17,,,['l'],0,[0.43351532104315993],2018_Jul_09_1445,60.0220241004,go-nogo,001,35,
logos/4.jpg,properties4.xlsx,frogs/ab37.jpg,0,0,400,l,0,1,1,3,0,38,38,36,,,['l'],0,[0.06724215515714604],2018_Jul_09_1445,60.0220241004,go-nogo,001,35,
logos/4.jpg,properties4.xlsx,frogs/ab61.jpg,0,0,400,l,0,1,1,3,0,39,39,59,,,['l'],0,[0.3170835772434657],2018_Jul_09_1445,60.0220241004,go-nogo,001,35,
logos/4.jpg,properties4.xlsx,frogs/ab32.jpg,0,0,400,l,0,1,1,3,0,40,40,31,,,['l'],0,[0.41705166255087534],2018_Jul_09_1445,60.0220241004,go-nogo,001,35,
logos/4.jpg,properties4.xlsx,frogs/ab63.jpg,0,0,400,l,0,1,1,3,0,41,41,61,,,['l'],0,[0.31695500824753253],2018_Jul_09_1445,60.0220241004,go-nogo,001,35,
logos/4.jpg,properties4.xlsx,frogs/ab28.jpg,0,0,400,l,0,1,1,3,0,42,42,27,,,['l'],0,[0.3004173941335466],2018_Jul_09_1445,60.0220241004,go-nogo,001,35,
logos/4.jpg,properties4.xlsx,frogs/ab29.jpg,0,0,400,l,0,1,1,3,0,43,43,28,,,['l'],0,[0.5168678543941496],2018_Jul_09_1445,60.0220241004,go-nogo,001,35,
logos/4.jpg,properties4.xlsx,frogs/ab56.jpg,0,0,400,l,0,1,1,3,0,44,44,55,,,['l'],0,[0.9000131413449708],2018_Jul_09_1445,60.0220241004,go-nogo,001,35,
logos/4.jpg,properties4.xlsx,frogs/ab14.jpg,0,0,400,l,0,1,1,3,0,45,45,13,,,['l'],0,[1.0500833138485177],2018_Jul_09_1445,60.0220241004,go-nogo,001,35,
logos/4.jpg,properties4.xlsx,frogs/ab15.jpg,0,0,400,l,0,1,1,3,0,46,46,14,,,['l'],0,[1.7662405116352602],2018_Jul_09_1445,60.0220241004,go-nogo,001,35,
logos/4.jpg,properties4.xlsx,frogs/ab47.jpg,0,0,400,l,0,1,1,3,0,47,47,46,,,['l'],0,[0.03388930891924247],2018_Jul_09_1445,60.0220241004,go-nogo,001,35,
logos/4.jpg,properties4.xlsx,frogs/ab58.jpg,0,0,400,l,0,1,1,3,0,48,48,57,,,['l'],0,[0.03396497120593267],2018_Jul_09_1445,60.0220241004,go-nogo,001,35,
logos/4.jpg,properties4.xlsx,frogs/ab38.jpg,0,0,400,l,0,1,1,3,0,49,49,37,,,['l'],0,[0.0005597871440841118],2018_Jul_09_1445,60.0220241004,go-nogo,001,35,
logos/4.jpg,properties4.xlsx,frogs/ab76.jpg,0,0,400,l,0,1,1,3,0,50,50,74,,,['l'],0,[0.43359041444273316],2018_Jul_09_1445,60.0220241004,go-nogo,001,35,
logos/4.jpg,properties4.xlsx,frogs/ab46.jpg,0,0,400,l,0,1,1,3,0,51,51,45,,,['l'],0,[0.13377206081895565],2018_Jul_09_1445,60.0220241004,go-nogo,001,35,
logos/4.jpg,properties4.xlsx,frogs/ab10.jpg,0,0,400,l,0,1,1,3,0,52,52,9,,,['l'],0,[0.06718242177339562],2018_Jul_09_1445,60.0220241004,go-nogo,001,35,
logos/4.jpg,properties4.xlsx,frogs/ab24.jpg,0,0,400,l,0,1,1,3,0,53,53,23,,,['l'],0,[0.16718634710923652],2018_Jul_09_1445,60.0220241004,go-nogo,001,35,
logos/4.jpg,properties4.xlsx,frogs/ab53.jpg,0,0,400,l,0,1,1,3,0,54,54,52,,,['l'],0,[0.0672467062722717],2018_Jul_09_1445,60.0220241004,go-nogo,001,35,
logos/4.jpg,properties4.xlsx,logos/4.jpg,0,0,400,a,0,1,1,3,0,55,55,86,,,['a'],0,[0.18377061015053187],2018_Jul_09_1445,60.0220241004,go-nogo,001,35,
logos/4.jpg,properties4.xlsx,frogs/ab50.jpg,0,0,400,l,0,1,1,3,0,56,56,49,,,['l'],0,[0.05054638979891024],2018_Jul_09_1445,60.0220241004,go-nogo,001,35,
logos/4.jpg,properties4.xlsx,frogs/ab17.jpg,0,0,400,l,0,1,1,3,0,57,57,16,,,['l'],0,[0.18376037014240865],2018_Jul_09_1445,60.0220241004,go-nogo,001,35,
logos/4.jpg,properties4.xlsx,frogs/ab75.jpg,0,0,400,l,0,1,1,3,0,58,58,73,,,['l'],0,[0.10048122352054634],2018_Jul_09_1445,60.0220241004,go-nogo,001,35,
logos/4.jpg,properties4.xlsx,frogs/ab7.jpg,0,0,400,l,0,1,1,3,0,59,59,6,,,['l'],0,[0.1505429195749457],2018_Jul_09_1445,60.0220241004,go-nogo,001,35,
logos/4.jpg,properties4.xlsx,logos/4.jpg,0,0,400,a,0,1,1,3,0,60,60,84,,,['a'],0,[0.36666285510727903],2018_Jul_09_1445,60.0220241004,go-nogo,001,35,
logos/4.jpg,properties4.xlsx,frogs/ab2.jpg,0,0,400,l,0,1,1,3,0,61,61,1,,,['l'],0,[0.05071990105898294],2018_Jul_09_1445,60.0220241004,go-nogo,001,35,
logos/4.jpg,properties4.xlsx,frogs/ab69.jpg,0,0,400,l,0,1,1,3,0,62,62,67,,,['l'],0,[0.06722736403389717],2018_Jul_09_1445,60.0220241004,go-nogo,001,35,
logos/4.jpg,properties4.xlsx,frogs/ab25.jpg,0,0,400,l,0,1,1,3,0,63,63,24,,,['l'],0,[0.08375018702281523],2018_Jul_09_1445,60.0220241004,go-nogo,001,35,
logos/4.jpg,properties4.xlsx,frogs/ab5.jpg,0,0,400,l,0,1,1,3,0,64,64,4,,,['l'],0,[0.0670117549598217],2018_Jul_09_1445,60.0220241004,go-nogo,001,35,
logos/4.jpg,properties4.xlsx,frogs/ab30.jpg,0,0,400,l,0,1,1,3,0,65,65,29,,,['l'],0,[0.10038963233273535],2018_Jul_09_1445,60.0220241004,go-nogo,001,35,
logos/4.jpg,properties4.xlsx,frogs/ab4.jpg,0,0,400,l,0,1,1,3,0,66,66,3,,,['l'],0,[0.08375473813794088],2018_Jul_09_1445,60.0220241004,go-nogo,001,35,
logos/4.jpg,properties4.xlsx,frogs/ab21.jpg,0,0,400,l,0,1,1,3,0,67,67,20,,,['l'],0,[0.083792284836818],2018_Jul_09_1445,60.0220241004,go-nogo,001,35,
logos/4.jpg,properties4.xlsx,frogs/ab62.jpg,0,0,400,l,0,1,1,3,0,68,68,60,,,['l'],0,[0.0005660449260176392],2018_Jul_09_1445,60.0220241004,go-nogo,001,35,
logos/4.jpg,properties4.xlsx,frogs/ab72.jpg,0,0,400,l,0,1,1,3,0,69,69,70,,,['l'],0,[1.6495937276540644],2018_Jul_09_1445,60.0220241004,go-nogo,001,35,
logos/4.jpg,properties4.xlsx,logos/4.jpg,0,0,400,a,0,1,1,3,0,70,70,81,,,['a'],0,[0.2838206155283842],2018_Jul_09_1445,60.0220241004,go-nogo,001,35,
logos/4.jpg,properties4.xlsx,frogs/ab60.jpg,0,0,400,l,0,1,1,3,0,71,71,58,,,['l'],0,[0.13384260310158425],2018_Jul_09_1445,60.0220241004,go-nogo,001,35,
logos/4.jpg,properties4.xlsx,logos/4.jpg,0,0,400,a,0,1,1,3,0,72,72,85,,,['a'],0,[0.6501967503900232],2018_Jul_09_1445,60.0220241004,go-nogo,001,35,
logos/4.jpg,properties4.xlsx,frogs/ab45.jpg,0,0,400,l,0,1,1,3,0,73,73,44,,,['l'],0,[0.1002206721877883],2018_Jul_09_1445,60.0220241004,go-nogo,001,35,
logos/4.jpg,properties4.xlsx,frogs/ab74.jpg,0,0,400,l,0,1,1,3,0,74,74,72,,,['l'],0,[0.4337599434747972],2018_Jul_09_1445,60.0220241004,go-nogo,001,35,
logos/4.jpg,properties4.xlsx,frogs/ab9.jpg,0,0,400,l,0,1,1,3,0,75,75,8,,,['l'],0,[0.26716467242658837],2018_Jul_09_1445,60.0220241004,go-nogo,001,35,
logos/4.jpg,properties4.xlsx,frogs/ab31.jpg,0,0,400,l,0,1,1,3,0,76,76,30,,,['l'],0,[0.16738602728037222],2018_Jul_09_1445,60.0220241004,go-nogo,001,35,
logos/4.jpg,properties4.xlsx,frogs/ab19.jpg,0,0,400,l,0,1,1,3,0,77,77,18,,,['l'],0,[0.1504553106115054],2018_Jul_09_1445,60.0220241004,go-nogo,001,35,
logos/4.jpg,properties4.xlsx,frogs/ab13.jpg,0,0,400,l,0,1,1,3,0,78,78,12,,,['l'],0,[0.03379089105692401],2018_Jul_09_1445,60.0220241004,go-nogo,001,35,
logos/4.jpg,properties4.xlsx,frogs/ab35.jpg,0,0,400,l,0,1,1,3,0,79,79,34,,,['l'],0,[0.16714936929929536],2018_Jul_09_1445,60.0220241004,go-nogo,001,35,
logos/4.jpg,properties4.xlsx,frogs/ab40.jpg,0,0,400,l,0,1,1,3,0,80,80,39,,,['l'],0,[0.10041466346592642],2018_Jul_09_1445,60.0220241004,go-nogo,001,35,
logos/4.jpg,properties4.xlsx,frogs/ab68.jpg,0,0,400,l,0,1,1,3,0,81,81,66,,,['l'],0,[0.06721712402577396],2018_Jul_09_1445,60.0220241004,go-nogo,001,35,
logos/4.jpg,properties4.xlsx,frogs/ab43.jpg,0,0,400,l,0,1,1,3,0,82,82,42,,,['l'],0,[0.2837284554479993],2018_Jul_09_1445,60.0220241004,go-nogo,001,35,
logos/4.jpg,properties4.xlsx,frogs/ab1.jpg,0,0,400,l,0,1,1,3,0,83,83,0,,,['l'],0,[0.01721516135694401],2018_Jul_09_1445,60.0220241004,go-nogo,001,35,
logos/4.jpg,properties4.xlsx,frogs/ab16.jpg,0,0,400,l,0,1,1,3,0,84,84,15,,,['l'],0,[0.18367560562546714],2018_Jul_09_1445,60.0220241004,go-nogo,001,35,
logos/4.jpg,properties4.xlsx,frogs/ab77.jpg,0,0,400,l,0,1,1,3,0,85,85,75,,,['l'],0,[0.11714854441015632],2018_Jul_09_1445,60.0220241004,go-nogo,001,35,
logos/4.jpg,properties4.xlsx,frogs/ab79.jpg,0,0,400,l,0,1,1,3,0,86,86,77,,,['l'],0,[0.31658579904069484],2018_Jul_09_1445,60.0220241004,go-nogo,001,35,
logos/4.jpg,properties4.xlsx,frogs/ab12.jpg,0,0,400,l,0,1,1,3,0,87,87,11,,,['l'],0,[0.13381131418645964],2018_Jul_09_1445,60.0220241004,go-nogo,001,35,
logos/4.jpg,properties4.xlsx,frogs/ab67.jpg,0,0,400,l,0,1,1,3,0,88,88,65,,,['l'],0,[0.6001287965536903],2018_Jul_09_1445,60.0220241004,go-nogo,001,35,
logos/4.jpg,properties4.xlsx,frogs/ab3.jpg,0,0,400,l,0,1,1,3,0,89,89,2,,,['l'],0,[0.8500987876395811],2018_Jul_09_1445,60.0220241004,go-nogo,001,35,
logos/4.jpg,properties4.xlsx,,,,,,0,1,1,3,,,,,,,,,,2018_Jul_09_1445,60.0220241004,go-nogo,001,35,
logos/3.jpg,properties3.xlsx,frogs/ab58.jpg,0,0,400,l,0,2,2,2,0,0,0,57,space,7.4935086878,['l'],0,[0.033831851093054865],2018_Jul_09_1445,60.0220241004,go-nogo,001,35,
logos/3.jpg,properties3.xlsx,frogs/ab69.jpg,0,0,400,l,0,2,2,2,0,1,1,67,,,['l'],0,[0.017228245811566012],2018_Jul_09_1445,60.0220241004,go-nogo,001,35,
logos/3.jpg,properties3.xlsx,frogs/ab35.jpg,0,0,400,l,0,2,2,2,0,2,2,34,,,['l'],0,[0.13375499413814396],2018_Jul_09_1445,60.0220241004,go-nogo,001,35,
logos/3.jpg,properties3.xlsx,frogs/ab46.jpg,0,0,400,l,0,2,2,2,0,3,3,45,,,['l'],0,[0.2003850243290799],2018_Jul_09_1445,60.0220241004,go-nogo,001,35,
logos/3.jpg,properties3.xlsx,frogs/ab53.jpg,0,0,400,l,0,2,2,2,0,4,4,52,,,['l'],0,[0.3668932553027844],2018_Jul_09_1445,60.0220241004,go-nogo,001,35,
logos/3.jpg,properties3.xlsx,frogs/ab43.jpg,0,0,400,l,0,2,2,2,0,5,5,42,,,['l'],0,[0.5501962383896171],2018_Jul_09_1445,60.0220241004,go-nogo,001,35,
logos/3.jpg,properties3.xlsx,frogs/ab33.jpg,0,0,400,l,0,2,2,2,0,6,6,32,,,['l'],0,[0.6167011129182356],2018_Jul_09_1445,60.0220241004,go-nogo,001,35,
logos/3.jpg,properties3.xlsx,frogs/ab65.jpg,0,0,400,l,0,2,2,2,0,7,7,63,,,['l'],0,[0.40028023490594933],2018_Jul_09_1445,60.0220241004,go-nogo,001,35,
logos/3.jpg,properties3.xlsx,frogs/ab77.jpg,0,0,400,l,0,2,2,2,0,8,8,75,,,['l'],0,[0.4169765691531211],2018_Jul_09_1445,60.0220241004,go-nogo,001,35,
logos/3.jpg,properties3.xlsx,frogs/ab74.jpg,0,0,400,l,0,2,2,2,0,9,9,72,,,['l'],0,[0.3004947630888637],2018_Jul_09_1445,60.0220241004,go-nogo,001,35,
logos/3.jpg,properties3.xlsx,frogs/ab71.jpg,0,0,400,l,0,2,2,2,0,10,10,69,,,['l'],0,[0.2505508271369763],2018_Jul_09_1445,60.0220241004,go-nogo,001,35,
logos/3.jpg,properties3.xlsx,frogs/ab42.jpg,0,0,400,l,0,2,2,2,0,11,11,41,,,['l'],0,[0.10052844134042971],2018_Jul_09_1445,60.0220241004,go-nogo,001,35,
logos/3.jpg,properties3.xlsx,logos/3.jpg,0,0,400,a,0,2,2,2,0,12,12,85,,,['a'],0,[0.36728010007936973],2018_Jul_09_1445,60.0220241004,go-nogo,001,35,
logos/3.jpg,properties3.xlsx,frogs/ab51.jpg,0,0,400,l,0,2,2,2,0,13,13,50,,,['l'],0,[0.566864128168163],2018_Jul_09_1445,60.0220241004,go-nogo,001,35,
logos/3.jpg,properties3.xlsx,frogs/ab15.jpg,0,0,400,l,0,2,2,2,0,14,14,14,,,['l'],0,[0.8999499946239666],2018_Jul_09_1445,60.0220241004,go-nogo,001,35,
logos/3.jpg,properties3.xlsx,frogs/ab23.jpg,0,0,400,l,0,2,2,2,0,15,15,22,,,['l'],0,[0.01712698350274877],2018_Jul_09_1445,60.0220241004,go-nogo,001,35,
logos/3.jpg,properties3.xlsx,logos/3.jpg,0,0,400,a,0,2,2,2,0,16,16,83,,,['a'],0,[0.08375758258443966],2018_Jul_09_1445,60.0220241004,go-nogo,001,35,
logos/3.jpg,properties3.xlsx,frogs/ab67.jpg,0,0,400,l,0,2,2,2,0,17,17,65,,,['l'],0,[1.1666208710721548],2018_Jul_09_1445,60.0220241004,go-nogo,001,35,
logos/3.jpg,properties3.xlsx,frogs/ab72.jpg,0,0,400,l,0,2,2,2,0,18,18,70,,,['l'],0,[0.18390657471172744],2018_Jul_09_1445,60.0220241004,go-nogo,001,35,
logos/3.jpg,properties3.xlsx,logos/3.jpg,0,0,400,a,0,2,2,2,0,19,19,84,,,['a'],0,[0.2170807896873157],2018_Jul_09_1445,60.0220241004,go-nogo,001,35,
logos/3.jpg,properties3.xlsx,frogs/ab76.jpg,0,0,400,l,0,2,2,2,0,20,20,74,,,['l'],0,[0.30025241621478926],2018_Jul_09_1445,60.0220241004,go-nogo,001,35,
logos/3.jpg,properties3.xlsx,frogs/ab25.jpg,0,0,400,l,0,2,2,2,0,21,21,24,,,['l'],0,[1.266529222993995],2018_Jul_09_1445,60.0220241004,go-nogo,001,35,
logos/3.jpg,properties3.xlsx,frogs/ab37.jpg,0,0,400,l,0,2,2,2,0,22,22,36,,,['l'],0,[0.5168877655214601],2018_Jul_09_1445,60.0220241004,go-nogo,001,35,
logos/3.jpg,properties3.xlsx,frogs/ab14.jpg,0,0,400,l,0,2,2,2,0,23,23,13,,,['l'],0,[0.48364812826730486],2018_Jul_09_1445,60.0220241004,go-nogo,001,35,
logos/3.jpg,properties3.xlsx,frogs/ab49.jpg,0,0,400,l,0,2,2,2,0,24,24,48,,,['l'],0,[0.2503995025635959],2018_Jul_09_1445,60.0220241004,go-nogo,001,35,
logos/3.jpg,properties3.xlsx,logos/3.jpg,0,0,400,a,0,2,2,2,0,25,25,88,,,['a'],0,[0.23382320397286094],2018_Jul_09_1445,60.0220241004,go-nogo,001,35,
logos/3.jpg,properties3.xlsx,frogs/ab45.jpg,0,0,400,l,0,2,2,2,0,26,26,44,,,['l'],0,[0.21702048741281033],2018_Jul_09_1445,60.0220241004,go-nogo,001,35,
logos/3.jpg,properties3.xlsx,frogs/ab60.jpg,0,0,400,l,0,2,2,2,0,27,27,58,,,['l'],0,[4.198201058019549],2018_Jul_09_1445,60.0220241004,go-nogo,001,35,
logos/3.jpg,properties3.xlsx,frogs/ab75.jpg,0,0,400,l,0,2,2,2,0,28,28,73,,,['l'],0,[0.30039350078004645],2018_Jul_09_1445,60.0220241004,go-nogo,001,35,
logos/3.jpg,properties3.xlsx,frogs/ab7.jpg,0,0,400,l,0,2,2,2,0,29,29,6,,,['l'],0,[0.15032219049680862],2018_Jul_09_1445,60.0220241004,go-nogo,001,35,
logos/3.jpg,properties3.xlsx,frogs/ab30.jpg,0,0,400,l,0,2,2,2,0,30,30,29,,,['l'],0,[0.2336969105326716],2018_Jul_09_1445,60.0220241004,go-nogo,001,35,
logos/3.jpg,properties3.xlsx,frogs/ab47.jpg,0,0,400,l,0,2,2,2,0,31,31,46,,,['l'],0,[0.35021341884930735],2018_Jul_09_1445,60.0220241004,go-nogo,001,35,
logos/3.jpg,properties3.xlsx,frogs/ab34.jpg,0,0,400,l,0,2,2,2,0,32,32,33,,,['l'],0,[0.41701752918743296],2018_Jul_09_1445,60.0220241004,go-nogo,001,35,
logos/3.jpg,properties3.xlsx,frogs/ab12.jpg,0,0,400,l,0,2,2,2,0,33,33,11,,,['l'],0,[0.21711776749543787],2018_Jul_09_1445,60.0220241004,go-nogo,001,35,
logos/3.jpg,properties3.xlsx,frogs/ab63.jpg,0,0,400,l,0,2,2,2,0,34,34,61,,,['l'],0,[0.21699659405931015],2018_Jul_09_1445,60.0220241004,go-nogo,001,35,
logos/3.jpg,properties3.xlsx,frogs/ab19.jpg,0,0,400,l,0,2,2,2,0,35,35,18,,,['l'],0,[0.5502474384338711],2018_Jul_09_1445,60.0220241004,go-nogo,001,35,
logos/3.jpg,properties3.xlsx,frogs/ab13.jpg,0,0,400,l,0,2,2,2,0,36,36,12,,,['l'],0,[1.7995711711901095],2018_Jul_09_1445,60.0220241004,go-nogo,001,35,
logos/3.jpg,properties3.xlsx,frogs/ab79.jpg,0,0,400,l,0,2,2,2,0,37,37,77,,,['l'],0,[0.3170733372353425],2018_Jul_09_1445,60.0220241004,go-nogo,001,35,
logos/3.jpg,properties3.xlsx,frogs/ab55.jpg,0,0,400,l,0,2,2,2,0,38,38,54,,,['l'],0,[0.3003144251561025],2018_Jul_09_1445,60.0220241004,go-nogo,001,35,
logos/3.jpg,properties3.xlsx,frogs/ab38.jpg,0,0,400,l,0,2,2,2,0,39,39,37,,,['l'],0,[0.18377516126565752],2018_Jul_09_1445,60.0220241004,go-nogo,001,35,
logos/3.jpg,properties3.xlsx,frogs/ab29.jpg,0,0,400,l,0,2,2,2,0,40,40,28,,,['l'],0,[0.21708761636000418],2018_Jul_09_1445,60.0220241004,go-nogo,001,35,
logos/3.jpg,properties3.xlsx,frogs/ab64.jpg,0,0,400,l,0,2,2,2,0,41,41,62,,,['l'],0,[0.21713198973156977],2018_Jul_09_1445,60.0220241004,go-nogo,001,35,
logos/3.jpg,properties3.xlsx,frogs/ab18.jpg,0,0,400,l,0,2,2,2,0,42,42,17,,,['l'],0,[0.21687428284349153],2018_Jul_09_1445,60.0220241004,go-nogo,001,35,
logos/3.jpg,properties3.xlsx,logos/3.jpg,0,0,400,a,0,2,2,2,0,43,43,82,,,['a'],0,[0.36709179769604816],2018_Jul_09_1445,60.0220241004,go-nogo,001,35,
logos/3.jpg,properties3.xlsx,frogs/ab73.jpg,0,0,400,l,0,2,2,2,0,44,44,71,,,['l'],0,[0.26690298331232043],2018_Jul_09_1445,60.0220241004,go-nogo,001,35,
logos/3.jpg,properties3.xlsx,frogs/ab31.jpg,0,0,400,l,0,2,2,2,0,45,45,30,,,['l'],0,[0.20037364654126577],2018_Jul_09_1445,60.0220241004,go-nogo,001,35,
logos/3.jpg,properties3.xlsx,frogs/ab66.jpg,0,0,400,l,0,2,2,2,0,46,46,64,,,['l'],0,[0.3169806082678406],2018_Jul_09_1445,60.0220241004,go-nogo,001,35,
logos/3.jpg,properties3.xlsx,frogs/ab80.jpg,0,0,400,l,0,2,2,2,0,47,47,78,,,['l'],0,[0.3000419271465944],2018_Jul_09_1445,60.0220241004,go-nogo,001,35,
logos/3.jpg,properties3.xlsx,frogs/ab26.jpg,0,0,400,l,0,2,2,2,0,48,48,25,,,['l'],0,[0.5500739271737984],2018_Jul_09_1445,60.0220241004,go-nogo,001,35,
logos/3.jpg,properties3.xlsx,frogs/ab39.jpg,0,0,400,l,0,2,2,2,0,49,49,38,,,['l'],0,[0.3335159468224447],2018_Jul_09_1445,60.0220241004,go-nogo,001,35,
logos/3.jpg,properties3.xlsx,frogs/ab57.jpg,0,0,400,l,0,2,2,2,0,50,50,56,,,['l'],0,[0.416886684632118],2018_Jul_09_1445,60.0220241004,go-nogo,001,35,
logos/3.jpg,properties3.xlsx,frogs/ab62.jpg,0,0,400,l,0,2,2,2,0,51,51,60,,,['l'],0,[0.23374697279723478],2018_Jul_09_1445,60.0220241004,go-nogo,001,35,
logos/3.jpg,properties3.xlsx,frogs/ab28.jpg,0,0,400,l,0,2,2,2,0,52,52,27,,,['l'],0,[0.25031530693559034],2018_Jul_09_1445,60.0220241004,go-nogo,001,35,
logos/3.jpg,properties3.xlsx,frogs/ab16.jpg,0,0,400,l,0,2,2,2,0,53,53,15,,,['l'],0,[0.20047661551870988],2018_Jul_09_1445,60.0220241004,go-nogo,001,35,
logos/3.jpg,properties3.xlsx,frogs/ab40.jpg,0,0,400,l,0,2,2,2,0,54,54,39,,,['l'],0,[0.18379052127966133],2018_Jul_09_1445,60.0220241004,go-nogo,001,35,
logos/3.jpg,properties3.xlsx,frogs/ab10.jpg,0,0,400,l,0,2,2,2,0,55,55,9,,,['l'],0,[0.2503409069577174],2018_Jul_09_1445,60.0220241004,go-nogo,001,35,
logos/3.jpg,properties3.xlsx,frogs/ab81.jpg,0,0,400,l,0,2,2,2,0,56,56,79,,,['l'],0,[0.0839151649397536],2018_Jul_09_1445,60.0220241004,go-nogo,001,35,
logos/3.jpg,properties3.xlsx,frogs/ab5.jpg,0,0,400,l,0,2,2,2,0,57,57,4,,,['l'],0,[0.3503971701156843],2018_Jul_09_1445,60.0220241004,go-nogo,001,35,
logos/3.jpg,properties3.xlsx,frogs/ab32.jpg,0,0,400,l,0,2,2,2,0,58,58,31,,,['l'],0,[0.15050651065575948],2018_Jul_09_1445,60.0220241004,go-nogo,001,35,
logos/3.jpg,properties3.xlsx,frogs/ab68.jpg,0,0,400,l,0,2,2,2,0,59,59,66,,,['l'],0,[0.33374065812677145],2018_Jul_09_1445,60.0220241004,go-nogo,001,35,
logos/3.jpg,properties3.xlsx,frogs/ab21.jpg,0,0,400,l,0,2,2,2,0,60,60,20,,,['l'],0,[0.2833319395540457],2018_Jul_09_1445,60.0220241004,go-nogo,001,35,
logos/3.jpg,properties3.xlsx,frogs/ab78.jpg,0,0,400,l,0,2,2,2,0,61,61,76,,,['l'],0,[0.3169032393125235],2018_Jul_09_1445,60.0220241004,go-nogo,001,35,
logos/3.jpg,properties3.xlsx,frogs/ab61.jpg,0,0,400,l,0,2,2,2,0,62,62,59,,,['l'],0,[0.2170233318593091],2018_Jul_09_1445,60.0220241004,go-nogo,001,35,
logos/3.jpg,properties3.xlsx,frogs/ab41.jpg,0,0,400,l,0,2,2,2,0,63,63,40,,,['l'],0,[0.30012839833216276],2018_Jul_09_1445,60.0220241004,go-nogo,001,35,
logos/3.jpg,properties3.xlsx,frogs/ab11.jpg,0,0,400,l,0,2,2,2,0,64,64,10,,,['l'],0,[0.05042009635872091],2018_Jul_09_1445,60.0220241004,go-nogo,001,35,
logos/3.jpg,properties3.xlsx,frogs/ab52.jpg,0,0,400,l,0,2,2,2,0,65,65,51,,,['l'],0,[0.0672256573670893],2018_Jul_09_1445,60.0220241004,go-nogo,001,35,
logos/3.jpg,properties3.xlsx,logos/3.jpg,0,0,400,a,0,2,2,2,0,66,66,81,,,['a'],0,[0.08397831166257674],2018_Jul_09_1445,60.0220241004,go-nogo,001,35,
logos/3.jpg,properties3.xlsx,frogs/ab27.jpg,0,0,400,l,0,2,2,2,0,67,67,26,,,['l'],0,[0.03366914873186033],2018_Jul_09_1445,60.0220241004,go-nogo,001,35,
logos/3.jpg,properties3.xlsx,frogs/ab24.jpg,0,0,400,l,0,2,2,2,0,68,68,23,,,['l'],0,[0.11705069543859281],2018_Jul_09_1445,60.0220241004,go-nogo,001,35,
logos/3.jpg,properties3.xlsx,frogs/ab1.jpg,0,0,400,l,0,2,2,2,0,69,69,0,,,['l'],0,[0.15056226181332022],2018_Jul_09_1445,60.0220241004,go-nogo,001,35,
logos/3.jpg,properties3.xlsx,frogs/ab56.jpg,0,0,400,l,0,2,2,2,0,70,70,55,,,['l'],0,[0.28384109554463066],2018_Jul_09_1445,60.0220241004,go-nogo,001,35,
logos/3.jpg,properties3.xlsx,frogs/ab8.jpg,0,0,400,l,0,2,2,2,0,71,71,7,,,['l'],0,[0.11721738002597704],2018_Jul_09_1445,60.0220241004,go-nogo,001,35,
logos/3.jpg,properties3.xlsx,frogs/ab44.jpg,0,0,400,l,0,2,2,2,0,72,72,43,,,['l'],0,[0.2337412839042372],2018_Jul_09_1445,60.0220241004,go-nogo,001,35,
logos/3.jpg,properties3.xlsx,logos/3.jpg,0,0,400,a,0,2,2,2,0,73,73,80,,,['a'],0,[0.7999409492840641],2018_Jul_09_1445,60.0220241004,go-nogo,001,35,
logos/3.jpg,properties3.xlsx,logos/3.jpg,0,0,400,a,0,2,2,2,0,74,74,86,,,['a'],0,[1.2665121563131834],2018_Jul_09_1445,60.0220241004,go-nogo,001,35,
logos/3.jpg,properties3.xlsx,logos/3.jpg,0,0,400,a,0,2,2,2,0,75,75,89,,,['a'],0,[0.33362744913938513],2018_Jul_09_1445,60.0220241004,go-nogo,001,35,
logos/3.jpg,properties3.xlsx,frogs/ab4.jpg,0,0,400,l,0,2,2,2,0,76,76,3,,,['l'],0,[0.5169127966528322],2018_Jul_09_1445,60.0220241004,go-nogo,001,35,
logos/3.jpg,properties3.xlsx,frogs/ab9.jpg,0,0,400,l,0,2,2,2,0,77,77,8,,,['l'],0,[0.33384135154483374],2018_Jul_09_1445,60.0220241004,go-nogo,001,35,
logos/3.jpg,properties3.xlsx,frogs/ab50.jpg,0,0,400,l,0,2,2,2,0,78,78,49,,,['l'],0,[0.38349686058427324],2018_Jul_09_1445,60.0220241004,go-nogo,001,35,
logos/3.jpg,properties3.xlsx,frogs/ab20.jpg,0,0,400,l,0,2,2,2,0,79,79,19,,,['l'],0,[0.4504318154795328],2018_Jul_09_1445,60.0220241004,go-nogo,001,35,
logos/3.jpg,properties3.xlsx,frogs/ab3.jpg,0,0,400,l,0,2,2,2,0,80,80,2,,,['l'],0,[0.5002272713063576],2018_Jul_09_1445,60.0220241004,go-nogo,001,35,
logos/3.jpg,properties3.xlsx,frogs/ab48.jpg,0,0,400,l,0,2,2,2,0,81,81,47,,,['l'],0,[0.5169822011575889],2018_Jul_09_1445,60.0220241004,go-nogo,001,35,
logos/3.jpg,properties3.xlsx,frogs/ab54.jpg,0,0,400,l,0,2,2,2,0,82,82,53,,,['l'],0,[0.7832406328088837],2018_Jul_09_1445,60.0220241004,go-nogo,001,35,
logos/3.jpg,properties3.xlsx,frogs/ab36.jpg,0,0,400,l,0,2,2,2,0,83,83,35,,,['l'],0,[0.10055916136479937],2018_Jul_09_1445,60.0220241004,go-nogo,001,35,
logos/3.jpg,properties3.xlsx,frogs/ab6.jpg,0,0,400,l,0,2,2,2,0,84,84,5,,,['l'],0,[0.1333954560523125],2018_Jul_09_1445,60.0220241004,go-nogo,001,35,
logos/3.jpg,properties3.xlsx,frogs/ab2.jpg,0,0,400,l,0,2,2,2,0,85,85,1,,,['l'],0,[0.2337361639001756],2018_Jul_09_1445,60.0220241004,go-nogo,001,35,
logos/3.jpg,properties3.xlsx,logos/3.jpg,0,0,400,a,0,2,2,2,0,86,86,87,,,['a'],0,[0.4835041992573679],2018_Jul_09_1445,60.0220241004,go-nogo,001,35,
logos/3.jpg,properties3.xlsx,frogs/ab17.jpg,0,0,400,l,0,2,2,2,0,87,87,16,,,['l'],0,[0.1338613764510228],2018_Jul_09_1445,60.0220241004,go-nogo,001,35,
logos/3.jpg,properties3.xlsx,frogs/ab22.jpg,0,0,400,l,0,2,2,2,0,88,88,21,,,['l'],0,[0.36721695335836557],2018_Jul_09_1445,60.0220241004,go-nogo,001,35,
logos/3.jpg,properties3.xlsx,frogs/ab70.jpg,0,0,400,l,0,2,2,2,0,89,89,68,,,['l'],0,[0.4169714491490595],2018_Jul_09_1445,60.0220241004,go-nogo,001,35,
logos/3.jpg,properties3.xlsx,,,,,,0,2,2,2,,,,,,,,,,2018_Jul_09_1445,60.0220241004,go-nogo,001,35,
logos/1.jpg,properties1.xlsx,logos/1.jpg,0,0,400,a,0,3,3,0,0,0,0,88,space,9.79629436839,['a'],0,[0.2668136676802533],2018_Jul_09_1445,60.0220241004,go-nogo,001,35,
logos/1.jpg,properties1.xlsx,frogs/ab29.jpg,0,0,400,l,0,3,3,0,0,1,1,28,,,['l'],0,[0.10042774792054843],2018_Jul_09_1445,60.0220241004,go-nogo,001,35,
logos/1.jpg,properties1.xlsx,frogs/ab42.jpg,0,0,400,l,0,3,3,0,0,2,2,41,,,['l'],0,[0.25039893367465993],2018_Jul_09_1445,60.0220241004,go-nogo,001,35,
logos/1.jpg,properties1.xlsx,frogs/ab52.jpg,0,0,400,l,0,3,3,0,0,3,3,51,,,['l'],0,[0.11720315779166413],2018_Jul_09_1445,60.0220241004,go-nogo,001,35,
logos/1.jpg,properties1.xlsx,frogs/ab51.jpg,0,0,400,l,0,3,3,0,0,4,4,50,,,['l'],0,[0.1837387523464713],2018_Jul_09_1445,60.0220241004,go-nogo,001,35,
logos/1.jpg,properties1.xlsx,frogs/ab46.jpg,0,0,400,l,0,3,3,0,0,5,5,45,,,['l'],0,[0.08381902263681695],2018_Jul_09_1445,60.0220241004,go-nogo,001,35,
logos/1.jpg,properties1.xlsx,frogs/ab50.jpg,0,0,400,l,0,3,3,0,0,6,6,49,,,['l'],0,[0.23396940854217974],2018_Jul_09_1445,60.0220241004,go-nogo,001,35,
logos/1.jpg,properties1.xlsx,frogs/ab24.jpg,0,0,400,l,0,3,3,0,0,7,7,23,,,['l'],0,[0.11730498898941732],2018_Jul_09_1445,60.0220241004,go-nogo,001,35,
logos/1.jpg,properties1.xlsx,frogs/ab77.jpg,0,0,400,l,0,3,3,0,0,8,8,75,,,['l'],0,[0.18375866347378178],2018_Jul_09_1445,60.0220241004,go-nogo,001,35,
logos/1.jpg,properties1.xlsx,frogs/ab54.jpg,0,0,400,l,0,3,3,0,0,9,9,53,,,['l'],0,[0.0837871648309374],2018_Jul_09_1445,60.0220241004,go-nogo,001,35,
logos/1.jpg,properties1.xlsx,frogs/ab66.jpg,0,0,400,l,0,3,3,0,0,10,10,64,,,['l'],0,[0.017015481185808312],2018_Jul_09_1445,60.0220241004,go-nogo,001,35,
logos/1.jpg,properties1.xlsx,frogs/ab14.jpg,0,0,400,l,0,3,3,0,0,11,11,13,,,['l'],0,[0.15050480398713262],2018_Jul_09_1445,60.0220241004,go-nogo,001,35,
logos/1.jpg,properties1.xlsx,logos/1.jpg,0,0,400,a,0,3,3,0,0,12,12,80,,,['l'],0,[0.15035859941781382],2018_Jul_09_1445,60.0220241004,go-nogo,001,35,
logos/1.jpg,properties1.xlsx,frogs/ab44.jpg,0,0,400,l,0,3,3,0,0,13,13,43,,,['l'],0,[0.017305045877947123],2018_Jul_09_1445,60.0220241004,go-nogo,001,35,
logos/1.jpg,properties1.xlsx,frogs/ab7.jpg,0,0,400,l,0,3,3,0,0,14,14,6,,,['l'],0,[0.11688059751577384],2018_Jul_09_1445,60.0220241004,go-nogo,001,35,
logos/1.jpg,properties1.xlsx,frogs/ab45.jpg,0,0,400,l,0,3,3,0,0,15,15,44,,,['l'],0,[0.033586090881726705],2018_Jul_09_1445,60.0220241004,go-nogo,001,35,
logos/1.jpg,properties1.xlsx,frogs/ab28.jpg,0,0,400,l,0,3,3,0,0,16,16,27,,,['l'],0,[0.017273756962822517],2018_Jul_09_1445,60.0220241004,go-nogo,001,35,
logos/1.jpg,properties1.xlsx,frogs/ab64.jpg,0,0,400,l,0,3,3,0,0,17,17,62,,,['l'],0,[0.06704987054945377],2018_Jul_09_1445,60.0220241004,go-nogo,001,35,
logos/1.jpg,properties1.xlsx,frogs/ab30.jpg,0,0,400,l,0,3,3,0,0,18,18,29,,,['l'],0,[0.05052249644541007],2018_Jul_09_1445,60.0220241004,go-nogo,001,35,
logos/1.jpg,properties1.xlsx,frogs/ab81.jpg,0,0,400,l,0,3,3,0,0,19,19,79,,,['l'],0,[0.06726320406414743],2018_Jul_09_1445,60.0220241004,go-nogo,001,35,
logos/1.jpg,properties1.xlsx,frogs/ab37.jpg,0,0,400,l,0,3,3,0,0,20,20,36,,,['l'],0,[0.200266126450515],2018_Jul_09_1445,60.0220241004,go-nogo,001,35,
logos/1.jpg,properties1.xlsx,frogs/ab12.jpg,0,0,400,l,0,3,3,0,0,21,21,11,,,['l'],0,[0.4168758757332398],2018_Jul_09_1445,60.0220241004,go-nogo,001,35,
logos/1.jpg,properties1.xlsx,frogs/ab63.jpg,0,0,400,l,0,3,3,0,0,22,22,61,,,['l'],0,[0.3171330706209119],2018_Jul_09_1445,60.0220241004,go-nogo,001,35,
logos/1.jpg,properties1.xlsx,frogs/ab47.jpg,0,0,400,l,0,3,3,0,0,23,23,46,,,['l'],0,[0.2171200430548197],2018_Jul_09_1445,60.0220241004,go-nogo,001,35,
logos/1.jpg,properties1.xlsx,frogs/ab6.jpg,0,0,400,l,0,3,3,0,0,24,24,5,,,['l'],0,[0.2004697888460214],2018_Jul_09_1445,60.0220241004,go-nogo,001,35,
logos/1.jpg,properties1.xlsx,frogs/ab5.jpg,0,0,400,l,0,3,3,0,0,25,25,4,,,['l'],0,[0.1171434244079137],2018_Jul_09_1445,60.0220241004,go-nogo,001,35,
logos/1.jpg,properties1.xlsx,frogs/ab78.jpg,0,0,400,l,0,3,3,0,0,26,26,76,,,['l'],0,[0.11735960236910614],2018_Jul_09_1445,60.0220241004,go-nogo,001,35,
logos/1.jpg,properties1.xlsx,logos/1.jpg,0,0,400,a,0,3,3,0,0,27,27,89,,,['a'],0,[0.4002398437605734],2018_Jul_09_1445,60.0220241004,go-nogo,001,35,
logos/1.jpg,properties1.xlsx,frogs/ab3.jpg,0,0,400,l,0,3,3,0,0,28,28,2,,,['l'],0,[0.3170067771789036],2018_Jul_09_1445,60.0220241004,go-nogo,001,35,
logos/1.jpg,properties1.xlsx,frogs/ab23.jpg,0,0,400,l,0,3,3,0,0,29,29,22,,,['l'],0,[0.2002348375335714],2018_Jul_09_1445,60.0220241004,go-nogo,001,35,
logos/1.jpg,properties1.xlsx,frogs/ab38.jpg,0,0,400,l,0,3,3,0,0,30,30,37,,,['l'],0,[0.033808526626671664],2018_Jul_09_1445,60.0220241004,go-nogo,001,35,
logos/1.jpg,properties1.xlsx,frogs/ab40.jpg,0,0,400,l,0,3,3,0,0,31,31,39,,,['l'],0,[0.15045075949637976],2018_Jul_09_1445,60.0220241004,go-nogo,001,35,
logos/1.jpg,properties1.xlsx,frogs/ab65.jpg,0,0,400,l,0,3,3,0,0,32,32,63,,,['l'],0,[0.017149739078377024],2018_Jul_09_1445,60.0220241004,go-nogo,001,35,
logos/1.jpg,properties1.xlsx,logos/1.jpg,0,0,400,a,0,3,3,0,0,33,33,86,,,['a'],0,[0.06757779988947732],2018_Jul_09_1445,60.0220241004,go-nogo,001,35,
logos/1.jpg,properties1.xlsx,logos/1.jpg,0,0,400,a,0,3,3,0,0,34,34,85,,,['a'],0,[0.433827641310927],2018_Jul_09_1445,60.0220241004,go-nogo,001,35,
logos/1.jpg,properties1.xlsx,frogs/ab20.jpg,0,0,400,l,0,3,3,0,0,35,35,19,,,['l'],0,[0.4001789725971321],2018_Jul_09_1445,60.0220241004,go-nogo,001,35,
logos/1.jpg,properties1.xlsx,frogs/ab55.jpg,0,0,400,l,0,3,3,0,0,36,36,54,,,['l'],0,[0.5502451628744893],2018_Jul_09_1445,60.0220241004,go-nogo,001,35,
logos/1.jpg,properties1.xlsx,frogs/ab56.jpg,0,0,400,l,0,3,3,0,0,37,37,55,,,['l'],0,[0.38342347385514586],2018_Jul_09_1445,60.0220241004,go-nogo,001,35,
logos/1.jpg,properties1.xlsx,frogs/ab15.jpg,0,0,400,l,0,3,3,0,0,38,38,14,,,['l'],0,[0.33368832030464546],2018_Jul_09_1445,60.0220241004,go-nogo,001,35,
logos/1.jpg,properties1.xlsx,frogs/ab73.jpg,0,0,400,l,0,3,3,0,0,39,39,71,,,['l'],0,[0.23392901739862282],2018_Jul_09_1445,60.0220241004,go-nogo,001,35,
logos/1.jpg,properties1.xlsx,frogs/ab31.jpg,0,0,400,l,0,3,3,0,0,40,40,30,,,['l'],0,[0.3002802917944791],2018_Jul_09_1445,60.0220241004,go-nogo,001,35,
logos/1.jpg,properties1.xlsx,frogs/ab76.jpg,0,0,400,l,0,3,3,0,0,41,41,74,,,['l'],0,[0.31677580809446226],2018_Jul_09_1445,60.0220241004,go-nogo,001,35,
logos/1.jpg,properties1.xlsx,frogs/ab19.jpg,0,0,400,l,0,3,3,0,0,42,42,18,,,['l'],0,[0.4000168391248735],2018_Jul_09_1445,60.0220241004,go-nogo,001,35,
logos/1.jpg,properties1.xlsx,frogs/ab43.jpg,0,0,400,l,0,3,3,0,0,43,43,42,,,['l'],0,[0.2005209888884565],2018_Jul_09_1445,60.0220241004,go-nogo,001,35,
logos/1.jpg,properties1.xlsx,frogs/ab75.jpg,0,0,400,l,0,3,3,0,0,44,44,73,,,['l'],0,[0.46706045189239376],2018_Jul_09_1445,60.0220241004,go-nogo,001,35,
logos/1.jpg,properties1.xlsx,frogs/ab1.jpg,0,0,400,l,0,3,3,0,0,45,45,0,,,['l'],0,[0.26716637909339624],2018_Jul_09_1445,60.0220241004,go-nogo,001,35,
logos/1.jpg,properties1.xlsx,frogs/ab27.jpg,0,0,400,l,0,3,3,0,0,46,46,26,,,['l'],0,[0.2337060127629229],2018_Jul_09_1445,60.0220241004,go-nogo,001,35,
logos/1.jpg,properties1.xlsx,frogs/ab60.jpg,0,0,400,l,0,3,3,0,0,47,47,58,,,['l'],0,[0.23376460836880142],2018_Jul_09_1445,60.0220241004,go-nogo,001,35,
logos/1.jpg,properties1.xlsx,logos/1.jpg,0,0,400,a,0,3,3,0,0,48,48,84,,,['a'],0,[0.5169793567110901],2018_Jul_09_1445,60.0220241004,go-nogo,001,35,
logos/1.jpg,properties1.xlsx,frogs/ab21.jpg,0,0,400,l,0,3,3,0,0,49,49,20,,,['l'],0,[0.1171434244079137],2018_Jul_09_1445,60.0220241004,go-nogo,001,35,
logos/1.jpg,properties1.xlsx,frogs/ab34.jpg,0,0,400,l,0,3,3,0,0,50,50,33,,,['l'],0,[0.2835612019716791],2018_Jul_09_1445,60.0220241004,go-nogo,001,35,
logos/1.jpg,properties1.xlsx,logos/1.jpg,0,0,400,a,0,3,3,0,0,51,51,82,,,['a'],0,[0.35049786353556556],2018_Jul_09_1445,60.0220241004,go-nogo,001,35,
logos/1.jpg,properties1.xlsx,frogs/ab11.jpg,0,0,400,l,0,3,3,0,0,52,52,10,,,['l'],0,[0.20013414411550912],2018_Jul_09_1445,60.0220241004,go-nogo,001,35,
logos/1.jpg,properties1.xlsx,frogs/ab58.jpg,0,0,400,l,0,3,3,0,0,53,53,57,,,['l'],0,[0.11704500654559524],2018_Jul_09_1445,60.0220241004,go-nogo,001,35,
logos/1.jpg,properties1.xlsx,frogs/ab70.jpg,0,0,400,l,0,3,3,0,0,54,54,68,,,['l'],0,[0.1004476590478589],2018_Jul_09_1445,60.0220241004,go-nogo,001,35,
logos/1.jpg,properties1.xlsx,frogs/ab17.jpg,0,0,400,l,0,3,3,0,0,55,55,16,,,['l'],0,[0.01711276127025485],2018_Jul_09_1445,60.0220241004,go-nogo,001,35,
logos/1.jpg,properties1.xlsx,frogs/ab80.jpg,0,0,400,l,0,3,3,0,0,56,56,78,,,['l'],0,[0.18350607659158413],2018_Jul_09_1445,60.0220241004,go-nogo,001,35,
logos/1.jpg,properties1.xlsx,frogs/ab79.jpg,0,0,400,l,0,3,3,0,0,57,57,77,,,['l'],0,[0.48357474153999647],2018_Jul_09_1445,60.0220241004,go-nogo,001,35,
logos/1.jpg,properties1.xlsx,frogs/ab25.jpg,0,0,400,l,0,3,3,0,0,58,58,24,,,['l'],0,[0.05059019427972089],2018_Jul_09_1445,60.0220241004,go-nogo,001,35,
logos/1.jpg,properties1.xlsx,frogs/ab4.jpg,0,0,400,l,0,3,3,0,0,59,59,3,,,['l'],0,[0.6503019949232112],2018_Jul_09_1445,60.0220241004,go-nogo,001,35,
logos/1.jpg,properties1.xlsx,frogs/ab69.jpg,0,0,400,l,0,3,3,0,0,60,60,67,,,['l'],0,[0.08374620479662553],2018_Jul_09_1445,60.0220241004,go-nogo,001,35,
logos/1.jpg,properties1.xlsx,frogs/ab13.jpg,0,0,400,l,0,3,3,0,0,61,61,12,,,['l'],0,[0.10062970364924695],2018_Jul_09_1445,60.0220241004,go-nogo,001,35,
logos/1.jpg,properties1.xlsx,frogs/ab41.jpg,0,0,400,l,0,3,3,0,0,62,62,40,,,['l'],0,[0.4003012838111317],2018_Jul_09_1445,60.0220241004,go-nogo,001,35,
logos/1.jpg,properties1.xlsx,frogs/ab74.jpg,0,0,400,l,0,3,3,0,0,63,63,72,,,['l'],0,[0.08384632932757086],2018_Jul_09_1445,60.0220241004,go-nogo,001,35,
logos/1.jpg,properties1.xlsx,frogs/ab36.jpg,0,0,400,l,0,3,3,0,0,64,64,35,,,['l'],0,[0.4669489495754533],2018_Jul_09_1445,60.0220241004,go-nogo,001,35,
logos/1.jpg,properties1.xlsx,frogs/ab35.jpg,0,0,400,l,0,3,3,0,0,65,65,34,,,['l'],0,[0.35032662783487467],2018_Jul_09_1445,60.0220241004,go-nogo,001,35,
logos/1.jpg,properties1.xlsx,logos/1.jpg,0,0,400,a,0,3,3,0,0,66,66,81,,,['a'],0,[0.06720119512283418],2018_Jul_09_1445,60.0220241004,go-nogo,001,35,
logos/1.jpg,properties1.xlsx,logos/1.jpg,0,0,400,a,0,3,3,0,0,67,67,87,,,['a'],0,[0.20009318408119725],2018_Jul_09_1445,60.0220241004,go-nogo,001,35,
logos/1.jpg,properties1.xlsx,frogs/ab2.jpg,0,0,400,l,0,3,3,0,0,68,68,1,,,['l'],0,[0.21692491399880964],2018_Jul_09_1445,60.0220241004,go-nogo,001,35,
logos/1.jpg,properties1.xlsx,frogs/ab26.jpg,0,0,400,l,0,3,3,0,0,69,69,25,,,['l'],0,[0.11719291778172192],2018_Jul_09_1445,60.0220241004,go-nogo,001,35,
logos/1.jpg,properties1.xlsx,frogs/ab18.jpg,0,0,400,l,0,3,3,0,0,70,70,17,,,['l'],0,[0.03392685561811959],2018_Jul_09_1445,60.0220241004,go-nogo,001,35,
logos/1.jpg,properties1.xlsx,logos/1.jpg,0,0,400,a,0,3,3,0,0,71,71,83,,,['a'],0,[1.4830291766302253],2018_Jul_09_1445,60.0220241004,go-nogo,001,35,
logos/1.jpg,properties1.xlsx,frogs/ab53.jpg,0,0,400,l,0,3,3,0,0,72,72,52,,,['l'],0,[0.1838263613099116],2018_Jul_09_1445,60.0220241004,go-nogo,001,35,
logos/1.jpg,properties1.xlsx,frogs/ab8.jpg,0,0,400,l,0,3,3,0,0,73,73,7,,,['l'],0,[0.2500155022371473],2018_Jul_09_1445,60.0220241004,go-nogo,001,35,
logos/1.jpg,properties1.xlsx,frogs/ab71.jpg,0,0,400,l,0,3,3,0,0,74,74,69,,,['l'],0,[0.20031505093538726],2018_Jul_09_1445,60.0220241004,go-nogo,001,35,
logos/1.jpg,properties1.xlsx,frogs/ab10.jpg,0,0,400,l,0,3,3,0,0,75,75,9,,,['l'],0,[0.2835873708827421],2018_Jul_09_1445,60.0220241004,go-nogo,001,35,
logos/1.jpg,properties1.xlsx,frogs/ab72.jpg,0,0,400,l,0,3,3,0,0,76,76,70,,,['l'],0,[0.35037896565700066],2018_Jul_09_1445,60.0220241004,go-nogo,001,35,
logos/1.jpg,properties1.xlsx,frogs/ab22.jpg,0,0,400,l,0,3,3,0,0,77,77,21,,,['l'],0,[0.10065245922305621],2018_Jul_09_1445,60.0220241004,go-nogo,001,35,
logos/1.jpg,properties1.xlsx,frogs/ab39.jpg,0,0,400,l,0,3,3,0,0,78,78,38,,,['l'],0,[0.33366897806445195],2018_Jul_09_1445,60.0220241004,go-nogo,001,35,
logos/1.jpg,properties1.xlsx,frogs/ab61.jpg,0,0,400,l,0,3,3,0,0,79,79,59,,,['l'],0,[0.13386308311783068],2018_Jul_09_1445,60.0220241004,go-nogo,001,35,
logos/1.jpg,properties1.xlsx,frogs/ab33.jpg,0,0,400,l,0,3,3,0,0,80,80,32,,,['l'],0,[0.3502469833219948],2018_Jul_09_1445,60.0220241004,go-nogo,001,35,
logos/1.jpg,properties1.xlsx,frogs/ab48.jpg,0,0,400,l,0,3,3,0,0,81,81,47,,,['l'],0,[0.1672688360686152],2018_Jul_09_1445,60.0220241004,go-nogo,001,35,
logos/1.jpg,properties1.xlsx,frogs/ab68.jpg,0,0,400,l,0,3,3,0,0,82,82,66,,,['l'],0,[0.016941525567744975],2018_Jul_09_1445,60.0220241004,go-nogo,001,35,
logos/1.jpg,properties1.xlsx,frogs/ab9.jpg,0,0,400,l,0,3,3,0,0,83,83,8,,,['l'],0,[0.10060979252011748],2018_Jul_09_1445,60.0220241004,go-nogo,001,35,
logos/1.jpg,properties1.xlsx,frogs/ab62.jpg,0,0,400,l,0,3,3,0,0,84,84,60,,,['l'],0,[0.06724443071470887],2018_Jul_09_1445,60.0220241004,go-nogo,001,35,
logos/1.jpg,properties1.xlsx,frogs/ab67.jpg,0,0,400,l,0,3,3,0,0,85,85,65,,,['l'],0,[0.13377888749164413],2018_Jul_09_1445,60.0220241004,go-nogo,001,35,
logos/1.jpg,properties1.xlsx,frogs/ab49.jpg,0,0,400,l,0,3,3,0,0,86,86,48,,,['l'],0,[0.06723077736933192],2018_Jul_09_1445,60.0220241004,go-nogo,001,35,
logos/1.jpg,properties1.xlsx,frogs/ab16.jpg,0,0,400,l,0,3,3,0,0,87,87,15,,,['l'],0,[0.017274894740694435],2018_Jul_09_1445,60.0220241004,go-nogo,001,35,
logos/1.jpg,properties1.xlsx,frogs/ab32.jpg,0,0,400,l,0,3,3,0,0,88,88,31,,,['l'],0,[0.033842091099359095],2018_Jul_09_1445,60.0220241004,go-nogo,001,35,
logos/1.jpg,properties1.xlsx,frogs/ab57.jpg,0,0,400,l,0,3,3,0,0,89,89,56,,,['l'],0,[0.0005643382610287517],2018_Jul_09_1445,60.0220241004,go-nogo,001,35,
logos/1.jpg,properties1.xlsx,,,,,,0,3,3,0,,,,,,,,,,2018_Jul_09_1445,60.0220241004,go-nogo,001,35,
