pix,source,image1,x,y,size,answer,trials_2.thisRepN,trials_2.thisTrialN,trials_2.thisN,trials_2.thisIndex,trials.thisRepN,trials.thisTrialN,trials.thisN,trials.thisIndex,key_resp_3.keys,key_resp_3.rt,key_resp_2.keys,key_resp_2.corr,key_resp_2.rt,date,frameRate,expName,session,participant,
logos/1.jpg,properties1.xlsx,frogs/ab69.jpg,0,0,400,l,0,0,0,0,0,0,0,67,space,4.06301605824,['l'],0,[0.13441399791190634],2018_Jul_09_0721,60.0008300329,go-nogo,001,37,
logos/1.jpg,properties1.xlsx,frogs/ab49.jpg,0,0,400,l,0,0,0,0,0,1,1,48,,,['l'],0,[0.15073909870989155],2018_Jul_09_0721,60.0008300329,go-nogo,001,37,
logos/1.jpg,properties1.xlsx,frogs/ab41.jpg,0,0,400,l,0,0,0,0,0,2,2,40,,,['l'],0,[0.01771337919490179],2018_Jul_09_0721,60.0008300329,go-nogo,001,37,
logos/1.jpg,properties1.xlsx,frogs/ab42.jpg,0,0,400,l,0,0,0,0,0,3,3,41,,,['l'],0,[0.0009942411634256132],2018_Jul_09_0721,60.0008300329,go-nogo,001,37,
logos/1.jpg,properties1.xlsx,frogs/ab61.jpg,0,0,400,l,0,0,0,0,0,4,4,59,,,['l'],0,[2.3670195746817626],2018_Jul_09_0721,60.0008300329,go-nogo,001,37,
logos/1.jpg,properties1.xlsx,logos/1.jpg,0,0,400,a,0,0,0,0,0,5,5,89,,,['a'],0,[0.3010283791591064],2018_Jul_09_0721,60.0008300329,go-nogo,001,37,
logos/1.jpg,properties1.xlsx,frogs/ab23.jpg,0,0,400,l,0,0,0,0,0,6,6,22,,,['l'],0,[0.40102101606316864],2018_Jul_09_0721,60.0008300329,go-nogo,001,37,
logos/1.jpg,properties1.xlsx,frogs/ab12.jpg,0,0,400,l,0,0,0,0,0,7,7,11,,,['l'],0,[0.5680642419029027],2018_Jul_09_0721,60.0008300329,go-nogo,001,37,
logos/1.jpg,properties1.xlsx,frogs/ab55.jpg,0,0,400,l,0,0,0,0,0,8,8,54,,,['l'],0,[0.4010625171504216],2018_Jul_09_0721,60.0008300329,go-nogo,001,37,
logos/1.jpg,properties1.xlsx,frogs/ab50.jpg,0,0,400,l,0,0,0,0,0,9,9,49,,,['l'],0,[0.3505713093545637],2018_Jul_09_0721,60.0008300329,go-nogo,001,37,
logos/1.jpg,properties1.xlsx,frogs/ab31.jpg,0,0,400,l,0,0,0,0,0,10,10,30,,,['l'],0,[0.3338825162136345],2018_Jul_09_0721,60.0008300329,go-nogo,001,37,
logos/1.jpg,properties1.xlsx,logos/1.jpg,0,0,400,a,0,0,0,0,0,11,11,83,,,['a'],0,[0.28478538804483833],2018_Jul_09_0721,60.0008300329,go-nogo,001,37,
logos/1.jpg,properties1.xlsx,frogs/ab71.jpg,0,0,400,l,0,0,0,0,0,12,12,69,,,['l'],0,[0.3680504082076368],2018_Jul_09_0721,60.0008300329,go-nogo,001,37,
logos/1.jpg,properties1.xlsx,frogs/ab6.jpg,0,0,400,l,0,0,0,0,0,13,13,5,,,['l'],0,[0.5010921926659648],2018_Jul_09_0721,60.0008300329,go-nogo,001,37,
logos/1.jpg,properties1.xlsx,frogs/ab9.jpg,0,0,400,l,0,0,0,0,0,14,14,8,,,['l'],0,[0.3846968077632482],2018_Jul_09_0721,60.0008300329,go-nogo,001,37,
logos/1.jpg,properties1.xlsx,frogs/ab81.jpg,0,0,400,l,0,0,0,0,0,15,15,79,,,['l'],0,[0.4679176493373234],2018_Jul_09_0721,60.0008300329,go-nogo,001,37,
logos/1.jpg,properties1.xlsx,logos/1.jpg,0,0,400,a,0,0,0,0,0,16,16,86,,,['a'],0,[0.2682251144069596],2018_Jul_09_0721,60.0008300329,go-nogo,001,37,
logos/1.jpg,properties1.xlsx,frogs/ab14.jpg,0,0,400,l,0,0,0,0,0,17,17,13,,,['l'],0,[0.3497542287586839],2018_Jul_09_0721,60.0008300329,go-nogo,001,37,
logos/1.jpg,properties1.xlsx,frogs/ab30.jpg,0,0,400,l,0,0,0,0,0,18,18,29,,,['l'],0,[0.2508343727167812],2018_Jul_09_0721,60.0008300329,go-nogo,001,37,
logos/1.jpg,properties1.xlsx,frogs/ab47.jpg,0,0,400,l,0,0,0,0,0,19,19,46,,,['l'],0,[0.06632722047652351],2018_Jul_09_0721,60.0008300329,go-nogo,001,37,
logos/1.jpg,properties1.xlsx,frogs/ab72.jpg,0,0,400,l,0,0,0,0,0,20,20,70,,,['l'],0,[0.40123610773298424],2018_Jul_09_0721,60.0008300329,go-nogo,001,37,
logos/1.jpg,properties1.xlsx,frogs/ab54.jpg,0,0,400,l,0,0,0,0,0,21,21,53,,,['l'],0,[0.4009032065150677],2018_Jul_09_0721,60.0008300329,go-nogo,001,37,
logos/1.jpg,properties1.xlsx,frogs/ab38.jpg,0,0,400,l,0,0,0,0,0,22,22,37,,,['l'],0,[0.3179920612456044],2018_Jul_09_0721,60.0008300329,go-nogo,001,37,
logos/1.jpg,properties1.xlsx,frogs/ab66.jpg,0,0,400,l,0,0,0,0,0,23,23,64,,,['l'],0,[0.2678230447054375],2018_Jul_09_0721,60.0008300329,go-nogo,001,37,
logos/1.jpg,properties1.xlsx,frogs/ab20.jpg,0,0,400,l,0,0,0,0,0,24,24,19,,,['l'],0,[0.4010120910970727],2018_Jul_09_0721,60.0008300329,go-nogo,001,37,
logos/1.jpg,properties1.xlsx,frogs/ab11.jpg,0,0,400,l,0,0,0,0,0,25,25,10,,,['l'],0,[0.6843614521785639],2018_Jul_09_0721,60.0008300329,go-nogo,001,37,
logos/1.jpg,properties1.xlsx,frogs/ab46.jpg,0,0,400,l,0,0,0,0,0,26,26,45,,,['l'],0,[0.5179764425556641],2018_Jul_09_0721,60.0008300329,go-nogo,001,37,
logos/1.jpg,properties1.xlsx,frogs/ab35.jpg,0,0,400,l,0,0,0,0,0,27,27,34,,,['l'],0,[0.5007231453346321],2018_Jul_09_0721,60.0008300329,go-nogo,001,37,
logos/1.jpg,properties1.xlsx,frogs/ab26.jpg,0,0,400,l,0,0,0,0,0,28,28,25,,,['l'],0,[0.2676391904169577],2018_Jul_09_0721,60.0008300329,go-nogo,001,37,
logos/1.jpg,properties1.xlsx,frogs/ab74.jpg,0,0,400,l,0,0,0,0,0,29,29,72,,,['l'],0,[0.23439235487603582],2018_Jul_09_0721,60.0008300329,go-nogo,001,37,
logos/1.jpg,properties1.xlsx,frogs/ab40.jpg,0,0,400,l,0,0,0,0,0,30,30,39,,,['l'],0,[0.2508468676751363],2018_Jul_09_0721,60.0008300329,go-nogo,001,37,
logos/1.jpg,properties1.xlsx,frogs/ab43.jpg,0,0,400,l,0,0,0,0,0,31,31,42,,,['l'],0,[0.23451194941299036],2018_Jul_09_0721,60.0008300329,go-nogo,001,37,
logos/1.jpg,properties1.xlsx,logos/1.jpg,0,0,400,a,0,0,0,0,0,32,32,82,,,['a'],0,[0.0508865837691701],2018_Jul_09_0721,60.0008300329,go-nogo,001,37,
logos/1.jpg,properties1.xlsx,frogs/ab76.jpg,0,0,400,l,0,0,0,0,0,33,33,74,,,['l'],0,[0.501128338772105],2018_Jul_09_0721,60.0008300329,go-nogo,001,37,
logos/1.jpg,properties1.xlsx,frogs/ab75.jpg,0,0,400,l,0,0,0,0,0,34,34,73,,,['l'],0,[0.3178180244140094],2018_Jul_09_0721,60.0008300329,go-nogo,001,37,
logos/1.jpg,properties1.xlsx,frogs/ab33.jpg,0,0,400,l,0,0,0,0,0,35,35,32,,,['l'],0,[0.367666634680063],2018_Jul_09_0721,60.0008300329,go-nogo,001,37,
logos/1.jpg,properties1.xlsx,frogs/ab77.jpg,0,0,400,l,0,0,0,0,0,36,36,75,,,['l'],0,[0.3510309450866771],2018_Jul_09_0721,60.0008300329,go-nogo,001,37,
logos/1.jpg,properties1.xlsx,frogs/ab1.jpg,0,0,400,l,0,0,0,0,0,37,37,0,,,['l'],0,[0.40112811564904405],2018_Jul_09_0721,60.0008300329,go-nogo,001,37,
logos/1.jpg,properties1.xlsx,frogs/ab3.jpg,0,0,400,l,0,0,0,0,0,38,38,2,,,['l'],0,[0.41786421111464733],2018_Jul_09_0721,60.0008300329,go-nogo,001,37,
logos/1.jpg,properties1.xlsx,frogs/ab36.jpg,0,0,400,l,0,0,0,0,0,39,39,35,,,['l'],0,[0.3013291505048983],2018_Jul_09_0721,60.0008300329,go-nogo,001,37,
logos/1.jpg,properties1.xlsx,frogs/ab19.jpg,0,0,400,l,0,0,0,0,0,40,40,18,,,['l'],0,[0.3180121424156823],2018_Jul_09_0721,60.0008300329,go-nogo,001,37,
logos/1.jpg,properties1.xlsx,frogs/ab67.jpg,0,0,400,l,0,0,0,0,0,41,41,65,,,['l'],0,[0.28364879367290996],2018_Jul_09_0721,60.0008300329,go-nogo,001,37,
logos/1.jpg,properties1.xlsx,frogs/ab65.jpg,0,0,400,l,0,0,0,0,0,42,42,63,,,['l'],0,[0.35109118860418675],2018_Jul_09_0721,60.0008300329,go-nogo,001,37,
logos/1.jpg,properties1.xlsx,frogs/ab27.jpg,0,0,400,l,0,0,0,0,0,43,43,26,,,['l'],0,[0.2511587952176342],2018_Jul_09_0721,60.0008300329,go-nogo,001,37,
logos/1.jpg,properties1.xlsx,frogs/ab56.jpg,0,0,400,l,0,0,0,0,0,44,44,55,,,['l'],0,[0.6028555427401443],2018_Jul_09_0721,60.0008300329,go-nogo,001,37,
logos/1.jpg,properties1.xlsx,logos/1.jpg,0,0,400,a,0,0,0,0,0,45,45,85,,,['a'],0,[0.2676137542584911],2018_Jul_09_0721,60.0008300329,go-nogo,001,37,
logos/1.jpg,properties1.xlsx,frogs/ab34.jpg,0,0,400,l,0,0,0,0,0,46,46,33,,,['l'],0,[0.3677880142131471],2018_Jul_09_0721,60.0008300329,go-nogo,001,37,
logos/1.jpg,properties1.xlsx,frogs/ab73.jpg,0,0,400,l,0,0,0,0,0,47,47,71,,,['l'],0,[0.2844739067440969],2018_Jul_09_0721,60.0008300329,go-nogo,001,37,
logos/1.jpg,properties1.xlsx,logos/1.jpg,0,0,400,a,0,0,0,0,0,48,48,80,,,['l'],0,[0.26766641156427795],2018_Jul_09_0721,60.0008300329,go-nogo,001,37,
logos/1.jpg,properties1.xlsx,frogs/ab4.jpg,0,0,400,l,0,0,0,0,0,49,49,3,,,['l'],0,[0.26816799462540075],2018_Jul_09_0721,60.0008300329,go-nogo,001,37,
logos/1.jpg,properties1.xlsx,logos/1.jpg,0,0,400,a,0,0,0,0,0,50,50,87,,,['a'],0,[0.3177667058625957],2018_Jul_09_0721,60.0008300329,go-nogo,001,37,
logos/1.jpg,properties1.xlsx,frogs/ab63.jpg,0,0,400,l,0,0,0,0,0,51,51,61,,,['l'],0,[0.3346839781224844],2018_Jul_09_0721,60.0008300329,go-nogo,001,37,
logos/1.jpg,properties1.xlsx,frogs/ab15.jpg,0,0,400,l,0,0,0,0,0,52,52,14,,,['l'],0,[0.20124904893600615],2018_Jul_09_0721,60.0008300329,go-nogo,001,37,
logos/1.jpg,properties1.xlsx,frogs/ab53.jpg,0,0,400,l,0,0,0,0,0,53,53,52,,,['l'],0,[0.28467471847397974],2018_Jul_09_0721,60.0008300329,go-nogo,001,37,
logos/1.jpg,properties1.xlsx,frogs/ab24.jpg,0,0,400,l,0,0,0,0,0,54,54,23,,,['l'],0,[0.30142955636256374],2018_Jul_09_0721,60.0008300329,go-nogo,001,37,
logos/1.jpg,properties1.xlsx,frogs/ab21.jpg,0,0,400,l,0,0,0,0,0,55,55,20,,,['l'],0,[0.30125016455713194],2018_Jul_09_0721,60.0008300329,go-nogo,001,37,
logos/1.jpg,properties1.xlsx,frogs/ab51.jpg,0,0,400,l,0,0,0,0,0,56,56,50,,,['l'],0,[0.25114585401752265],2018_Jul_09_0721,60.0008300329,go-nogo,001,37,
logos/1.jpg,properties1.xlsx,frogs/ab58.jpg,0,0,400,l,0,0,0,0,0,57,57,57,,,['l'],0,[0.2178325274871895],2018_Jul_09_0721,60.0008300329,go-nogo,001,37,
logos/1.jpg,properties1.xlsx,frogs/ab52.jpg,0,0,400,l,0,0,0,0,0,58,58,51,,,['l'],0,[0.35145041846408276],2018_Jul_09_0721,60.0008300329,go-nogo,001,37,
logos/1.jpg,properties1.xlsx,frogs/ab57.jpg,0,0,400,l,0,0,0,0,0,59,59,56,,,['l'],0,[0.33450949504913297],2018_Jul_09_0721,60.0008300329,go-nogo,001,37,
logos/1.jpg,properties1.xlsx,frogs/ab25.jpg,0,0,400,l,0,0,0,0,0,60,60,24,,,['l'],0,[0.5011390487343306],2018_Jul_09_0721,60.0008300329,go-nogo,001,37,
logos/1.jpg,properties1.xlsx,frogs/ab37.jpg,0,0,400,l,0,0,0,0,0,61,61,36,,,['l'],0,[0.3511871319860802],2018_Jul_09_0721,60.0008300329,go-nogo,001,37,
logos/1.jpg,properties1.xlsx,frogs/ab10.jpg,0,0,400,l,0,0,0,0,0,62,62,9,,,['l'],0,[0.6509669084553025],2018_Jul_09_0721,60.0008300329,go-nogo,001,37,
logos/1.jpg,properties1.xlsx,logos/1.jpg,0,0,400,a,0,0,0,0,0,63,63,88,,,['a'],0,[0.31785595552355517],2018_Jul_09_0721,60.0008300329,go-nogo,001,37,
logos/1.jpg,properties1.xlsx,frogs/ab60.jpg,0,0,400,l,0,0,0,0,0,64,64,58,,,['l'],0,[0.5180768484133296],2018_Jul_09_0721,60.0008300329,go-nogo,001,37,
logos/1.jpg,properties1.xlsx,frogs/ab22.jpg,0,0,400,l,0,0,0,0,0,65,65,21,,,['l'],0,[1.0345097181707388],2018_Jul_09_0721,60.0008300329,go-nogo,001,37,
logos/1.jpg,properties1.xlsx,frogs/ab13.jpg,0,0,400,l,0,0,0,0,0,66,66,12,,,['l'],0,[0.31788674664858263],2018_Jul_09_0721,60.0008300329,go-nogo,001,37,
logos/1.jpg,properties1.xlsx,frogs/ab78.jpg,0,0,400,l,0,0,0,0,0,67,67,76,,,['l'],0,[0.3345291299701785],2018_Jul_09_0721,60.0008300329,go-nogo,001,37,
logos/1.jpg,properties1.xlsx,frogs/ab28.jpg,0,0,400,l,0,0,0,0,0,68,68,27,,,['l'],0,[0.38467181786108995],2018_Jul_09_0721,60.0008300329,go-nogo,001,37,
logos/1.jpg,properties1.xlsx,frogs/ab17.jpg,0,0,400,l,0,0,0,0,0,69,69,16,,,['l'],0,[0.3350164330913685],2018_Jul_09_0721,60.0008300329,go-nogo,001,37,
logos/1.jpg,properties1.xlsx,frogs/ab18.jpg,0,0,400,l,0,0,0,0,0,70,70,17,,,['l'],0,[0.2846162599453237],2018_Jul_09_0721,60.0008300329,go-nogo,001,37,
logos/1.jpg,properties1.xlsx,frogs/ab39.jpg,0,0,400,l,0,0,0,0,0,71,71,38,,,['l'],0,[0.40103797349729575],2018_Jul_09_0721,60.0008300329,go-nogo,001,37,
logos/1.jpg,properties1.xlsx,frogs/ab7.jpg,0,0,400,l,0,0,0,0,0,72,72,6,,,['l'],0,[0.36752651272399817],2018_Jul_09_0721,60.0008300329,go-nogo,001,37,
logos/1.jpg,properties1.xlsx,frogs/ab79.jpg,0,0,400,l,0,0,0,0,0,73,73,77,,,['l'],0,[0.35129646281711757],2018_Jul_09_0721,60.0008300329,go-nogo,001,37,
logos/1.jpg,properties1.xlsx,frogs/ab16.jpg,0,0,400,l,0,0,0,0,0,74,74,15,,,['l'],0,[0.35136072256136686],2018_Jul_09_0721,60.0008300329,go-nogo,001,37,
logos/1.jpg,properties1.xlsx,frogs/ab48.jpg,0,0,400,l,0,0,0,0,0,75,75,47,,,['l'],0,[0.25137611813261174],2018_Jul_09_0721,60.0008300329,go-nogo,001,37,
logos/1.jpg,properties1.xlsx,frogs/ab29.jpg,0,0,400,l,0,0,0,0,0,76,76,28,,,['l'],0,[0.30127292321412824],2018_Jul_09_0721,60.0008300329,go-nogo,001,37,
logos/1.jpg,properties1.xlsx,frogs/ab8.jpg,0,0,400,l,0,0,0,0,0,77,77,7,,,['l'],0,[0.4677650324301794],2018_Jul_09_0721,60.0008300329,go-nogo,001,37,
logos/1.jpg,properties1.xlsx,frogs/ab68.jpg,0,0,400,l,0,0,0,0,0,78,78,66,,,['l'],0,[0.33438276054221205],2018_Jul_09_0721,60.0008300329,go-nogo,001,37,
logos/1.jpg,properties1.xlsx,frogs/ab44.jpg,0,0,400,l,0,0,0,0,0,79,79,43,,,['l'],0,[0.9010332878897316],2018_Jul_09_0721,60.0008300329,go-nogo,001,37,
logos/1.jpg,properties1.xlsx,logos/1.jpg,0,0,400,a,0,0,0,0,0,80,80,81,,,['a'],0,[0.4511561177278054],2018_Jul_09_0721,60.0008300329,go-nogo,001,37,
logos/1.jpg,properties1.xlsx,frogs/ab45.jpg,0,0,400,l,0,0,0,0,0,81,81,44,,,['l'],0,[0.26818584455759265],2018_Jul_09_0721,60.0008300329,go-nogo,001,37,
logos/1.jpg,properties1.xlsx,frogs/ab5.jpg,0,0,400,l,0,0,0,0,0,82,82,4,,,['l'],0,[0.28476664561458165],2018_Jul_09_0721,60.0008300329,go-nogo,001,37,
logos/1.jpg,properties1.xlsx,frogs/ab70.jpg,0,0,400,l,0,0,0,0,0,83,83,68,,,['l'],0,[0.2679948502991465],2018_Jul_09_0721,60.0008300329,go-nogo,001,37,
logos/1.jpg,properties1.xlsx,frogs/ab62.jpg,0,0,400,l,0,0,0,0,0,84,84,60,,,['l'],0,[0.2846292011454352],2018_Jul_09_0721,60.0008300329,go-nogo,001,37,
logos/1.jpg,properties1.xlsx,frogs/ab32.jpg,0,0,400,l,0,0,0,0,0,85,85,31,,,['l'],0,[0.3164319772622548],2018_Jul_09_0721,60.0008300329,go-nogo,001,37,
logos/1.jpg,properties1.xlsx,frogs/ab2.jpg,0,0,400,l,0,0,0,0,0,86,86,1,,,['l'],0,[0.4502506799690309],2018_Jul_09_0721,60.0008300329,go-nogo,001,37,
logos/1.jpg,properties1.xlsx,frogs/ab80.jpg,0,0,400,l,0,0,0,0,0,87,87,78,,,['l'],0,[0.6176620606420329],2018_Jul_09_0721,60.0008300329,go-nogo,001,37,
logos/1.jpg,properties1.xlsx,frogs/ab64.jpg,0,0,400,l,0,0,0,0,0,88,88,62,,,['l'],0,[0.5177381459725439],2018_Jul_09_0721,60.0008300329,go-nogo,001,37,
logos/1.jpg,properties1.xlsx,logos/1.jpg,0,0,400,a,0,0,0,0,0,89,89,84,,,['a'],0,[0.801451199404255],2018_Jul_09_0721,60.0008300329,go-nogo,001,37,
logos/1.jpg,properties1.xlsx,,,,,,0,0,0,0,,,,,,,,,,2018_Jul_09_0721,60.0008300329,go-nogo,001,37,
logos/3.jpg,properties3.xlsx,frogs/ab76.jpg,0,0,400,l,0,1,1,2,0,0,0,74,space,2.01559459236,['l'],0,[1.0175330948914052],2018_Jul_09_0721,60.0008300329,go-nogo,001,37,
logos/3.jpg,properties3.xlsx,frogs/ab37.jpg,0,0,400,l,0,1,1,2,0,1,1,36,,,['l'],0,[0.13461659463791875],2018_Jul_09_0721,60.0008300329,go-nogo,001,37,
logos/3.jpg,properties3.xlsx,frogs/ab11.jpg,0,0,400,l,0,1,1,2,0,2,2,10,,,['l'],0,[0.2504528304343694],2018_Jul_09_0721,60.0008300329,go-nogo,001,37,
logos/3.jpg,properties3.xlsx,frogs/ab56.jpg,0,0,400,l,0,1,1,2,0,3,3,55,,,['l'],0,[0.31770155361300567],2018_Jul_09_0721,60.0008300329,go-nogo,001,37,
logos/3.jpg,properties3.xlsx,frogs/ab60.jpg,0,0,400,l,0,1,1,2,0,4,4,58,,,['l'],0,[0.26750710092892405],2018_Jul_09_0721,60.0008300329,go-nogo,001,37,
logos/3.jpg,properties3.xlsx,frogs/ab50.jpg,0,0,400,l,0,1,1,2,0,5,5,49,,,['l'],0,[0.28438465709768934],2018_Jul_09_0721,60.0008300329,go-nogo,001,37,
logos/3.jpg,properties3.xlsx,frogs/ab58.jpg,0,0,400,l,0,1,1,2,0,6,6,57,,,['l'],0,[0.23450525569205638],2018_Jul_09_0721,60.0008300329,go-nogo,001,37,
logos/3.jpg,properties3.xlsx,frogs/ab2.jpg,0,0,400,l,0,1,1,2,0,7,7,1,,,['l'],0,[0.3180335623328574],2018_Jul_09_0721,60.0008300329,go-nogo,001,37,
logos/3.jpg,properties3.xlsx,frogs/ab13.jpg,0,0,400,l,0,1,1,2,0,8,8,12,,,['l'],0,[0.38416086357756285],2018_Jul_09_0721,60.0008300329,go-nogo,001,37,
logos/3.jpg,properties3.xlsx,frogs/ab36.jpg,0,0,400,l,0,1,1,2,0,9,9,35,,,['l'],0,[0.5333621907266206],2018_Jul_09_0721,60.0008300329,go-nogo,001,37,
logos/3.jpg,properties3.xlsx,frogs/ab3.jpg,0,0,400,l,0,1,1,2,0,10,10,2,,,['l'],0,[0.2677784198822337],2018_Jul_09_0721,60.0008300329,go-nogo,001,37,
logos/3.jpg,properties3.xlsx,frogs/ab63.jpg,0,0,400,l,0,1,1,2,0,11,11,61,,,['l'],0,[0.2672844230401097],2018_Jul_09_0721,60.0008300329,go-nogo,001,37,
logos/3.jpg,properties3.xlsx,frogs/ab34.jpg,0,0,400,l,0,1,1,2,0,12,12,33,,,['l'],0,[0.26775967745197704],2018_Jul_09_0721,60.0008300329,go-nogo,001,37,
logos/3.jpg,properties3.xlsx,frogs/ab81.jpg,0,0,400,l,0,1,1,2,0,13,13,79,,,['l'],0,[0.2513676394155482],2018_Jul_09_0721,60.0008300329,go-nogo,001,37,
logos/3.jpg,properties3.xlsx,frogs/ab1.jpg,0,0,400,l,0,1,1,2,0,14,14,0,,,['l'],0,[0.2036400472134119],2018_Jul_09_0721,60.0008300329,go-nogo,001,37,
logos/3.jpg,properties3.xlsx,logos/3.jpg,0,0,400,a,0,1,1,2,0,15,15,82,,,['a'],0,[0.134360894371639],2018_Jul_09_0721,60.0008300329,go-nogo,001,37,
logos/3.jpg,properties3.xlsx,frogs/ab74.jpg,0,0,400,l,0,1,1,2,0,16,16,72,,,['l'],0,[0.15114563089446165],2018_Jul_09_0721,60.0008300329,go-nogo,001,37,
logos/3.jpg,properties3.xlsx,frogs/ab32.jpg,0,0,400,l,0,1,1,2,0,17,17,31,,,['l'],0,[0.26632900546246674],2018_Jul_09_0721,60.0008300329,go-nogo,001,37,
logos/3.jpg,properties3.xlsx,frogs/ab75.jpg,0,0,400,l,0,1,1,2,0,18,18,73,,,['l'],0,[0.24960674370231573],2018_Jul_09_0721,60.0008300329,go-nogo,001,37,
logos/3.jpg,properties3.xlsx,frogs/ab20.jpg,0,0,400,l,0,1,1,2,0,19,19,19,,,['l'],0,[0.2170761366505758],2018_Jul_09_0721,60.0008300329,go-nogo,001,37,
logos/3.jpg,properties3.xlsx,frogs/ab21.jpg,0,0,400,l,0,1,1,2,0,20,20,20,,,['l'],0,[0.22006421512924135],2018_Jul_09_0721,60.0008300329,go-nogo,001,37,
logos/3.jpg,properties3.xlsx,frogs/ab77.jpg,0,0,400,l,0,1,1,2,0,21,21,75,,,['l'],0,[0.21765001193853095],2018_Jul_09_0721,60.0008300329,go-nogo,001,37,
logos/3.jpg,properties3.xlsx,logos/3.jpg,0,0,400,a,0,1,1,2,0,22,22,88,,,['a'],0,[0.31762658390653087],2018_Jul_09_0721,60.0008300329,go-nogo,001,37,
logos/3.jpg,properties3.xlsx,frogs/ab25.jpg,0,0,400,l,0,1,1,2,0,23,23,24,,,['l'],0,[0.28451496158959344],2018_Jul_09_0721,60.0008300329,go-nogo,001,37,
logos/3.jpg,properties3.xlsx,logos/3.jpg,0,0,400,a,0,1,1,2,0,24,24,80,,,['a'],0,[0.33392312481009867],2018_Jul_09_0721,60.0008300329,go-nogo,001,37,
logos/3.jpg,properties3.xlsx,logos/3.jpg,0,0,400,a,0,1,1,2,0,25,25,85,,,['a'],0,[0.3175797278381651],2018_Jul_09_0721,60.0008300329,go-nogo,001,37,
logos/3.jpg,properties3.xlsx,frogs/ab12.jpg,0,0,400,l,0,1,1,2,0,26,26,11,,,['l'],0,[0.15109698982996633],2018_Jul_09_0721,60.0008300329,go-nogo,001,37,
logos/3.jpg,properties3.xlsx,frogs/ab68.jpg,0,0,400,l,0,1,1,2,0,27,27,66,,,['l'],0,[0.217499626269273],2018_Jul_09_0721,60.0008300329,go-nogo,001,37,
logos/3.jpg,properties3.xlsx,frogs/ab16.jpg,0,0,400,l,0,1,1,2,0,28,28,15,,,['l'],0,[0.2503943719129893],2018_Jul_09_0721,60.0008300329,go-nogo,001,37,
logos/3.jpg,properties3.xlsx,frogs/ab45.jpg,0,0,400,l,0,1,1,2,0,29,29,44,,,['l'],0,[0.21766964685957646],2018_Jul_09_0721,60.0008300329,go-nogo,001,37,
logos/3.jpg,properties3.xlsx,frogs/ab29.jpg,0,0,400,l,0,1,1,2,0,30,30,28,,,['l'],0,[0.18451250722864643],2018_Jul_09_0721,60.0008300329,go-nogo,001,37,
logos/3.jpg,properties3.xlsx,frogs/ab30.jpg,0,0,400,l,0,1,1,2,0,31,31,29,,,['l'],0,[0.19970502988871885],2018_Jul_09_0721,60.0008300329,go-nogo,001,37,
logos/3.jpg,properties3.xlsx,frogs/ab72.jpg,0,0,400,l,0,1,1,2,0,32,32,70,,,['l'],0,[0.5004629825853044],2018_Jul_09_0721,60.0008300329,go-nogo,001,37,
logos/3.jpg,properties3.xlsx,frogs/ab27.jpg,0,0,400,l,0,1,1,2,0,33,33,26,,,['l'],0,[0.3845687345092301],2018_Jul_09_0721,60.0008300329,go-nogo,001,37,
logos/3.jpg,properties3.xlsx,frogs/ab24.jpg,0,0,400,l,0,1,1,2,0,34,34,23,,,['l'],0,[0.4034860915635363],2018_Jul_09_0721,60.0008300329,go-nogo,001,37,
logos/3.jpg,properties3.xlsx,frogs/ab62.jpg,0,0,400,l,0,1,1,2,0,35,35,60,,,['l'],0,[0.450378753223049],2018_Jul_09_0721,60.0008300329,go-nogo,001,37,
logos/3.jpg,properties3.xlsx,frogs/ab35.jpg,0,0,400,l,0,1,1,2,0,36,36,34,,,['l'],0,[0.46679354993102606],2018_Jul_09_0721,60.0008300329,go-nogo,001,37,
logos/3.jpg,properties3.xlsx,logos/3.jpg,0,0,400,a,0,1,1,2,0,37,37,83,,,['a'],0,[0.33429797336430056],2018_Jul_09_0721,60.0008300329,go-nogo,001,37,
logos/3.jpg,properties3.xlsx,frogs/ab7.jpg,0,0,400,l,0,1,1,2,0,38,38,6,,,['l'],0,[0.16797097601374844],2018_Jul_09_0721,60.0008300329,go-nogo,001,37,
logos/3.jpg,properties3.xlsx,frogs/ab23.jpg,0,0,400,l,0,1,1,2,0,39,39,22,,,['l'],0,[1.267367871463648],2018_Jul_09_0721,60.0008300329,go-nogo,001,37,
logos/3.jpg,properties3.xlsx,frogs/ab57.jpg,0,0,400,l,0,1,1,2,0,40,40,56,,,['l'],0,[0.3676046061736997],2018_Jul_09_0721,60.0008300329,go-nogo,001,37,
logos/3.jpg,properties3.xlsx,frogs/ab70.jpg,0,0,400,l,0,1,1,2,0,41,41,68,,,['l'],0,[0.4175545148027595],2018_Jul_09_0721,60.0008300329,go-nogo,001,37,
logos/3.jpg,properties3.xlsx,frogs/ab10.jpg,0,0,400,l,0,1,1,2,0,42,42,9,,,['l'],0,[0.7341333077492891],2018_Jul_09_0721,60.0008300329,go-nogo,001,37,
logos/3.jpg,properties3.xlsx,frogs/ab31.jpg,0,0,400,l,0,1,1,2,0,43,43,30,,,['l'],0,[0.5678955600524205],2018_Jul_09_0721,60.0008300329,go-nogo,001,37,
logos/3.jpg,properties3.xlsx,frogs/ab14.jpg,0,0,400,l,0,1,1,2,0,44,44,13,,,['l'],0,[0.4678413408837514],2018_Jul_09_0721,60.0008300329,go-nogo,001,37,
logos/3.jpg,properties3.xlsx,frogs/ab22.jpg,0,0,400,l,0,1,1,2,0,45,45,21,,,['l'],0,[0.4511324665727443],2018_Jul_09_0721,60.0008300329,go-nogo,001,37,
logos/3.jpg,properties3.xlsx,frogs/ab39.jpg,0,0,400,l,0,1,1,2,0,46,46,38,,,['l'],0,[0.4676137542628567],2018_Jul_09_0721,60.0008300329,go-nogo,001,37,
logos/3.jpg,properties3.xlsx,frogs/ab52.jpg,0,0,400,l,0,1,1,2,0,47,47,51,,,['l'],0,[0.3843656915414613],2018_Jul_09_0721,60.0008300329,go-nogo,001,37,
logos/3.jpg,properties3.xlsx,frogs/ab33.jpg,0,0,400,l,0,1,1,2,0,48,48,32,,,['l'],0,[0.4175107824776205],2018_Jul_09_0721,60.0008300329,go-nogo,001,37,
logos/3.jpg,properties3.xlsx,logos/3.jpg,0,0,400,a,0,1,1,2,0,49,49,81,,,['a'],0,[0.4176567056638305],2018_Jul_09_0721,60.0008300329,go-nogo,001,37,
logos/3.jpg,properties3.xlsx,frogs/ab9.jpg,0,0,400,l,0,1,1,2,0,50,50,8,,,['l'],0,[0.36754525515425485],2018_Jul_09_0721,60.0008300329,go-nogo,001,37,
logos/3.jpg,properties3.xlsx,frogs/ab41.jpg,0,0,400,l,0,1,1,2,0,51,51,40,,,['l'],0,[0.43435710125777405],2018_Jul_09_0721,60.0008300329,go-nogo,001,37,
logos/3.jpg,properties3.xlsx,frogs/ab67.jpg,0,0,400,l,0,1,1,2,0,52,52,65,,,['l'],0,[0.4176633993847645],2018_Jul_09_0721,60.0008300329,go-nogo,001,37,
logos/3.jpg,properties3.xlsx,frogs/ab51.jpg,0,0,400,l,0,1,1,2,0,53,53,50,,,['l'],0,[0.3837476376720588],2018_Jul_09_0721,60.0008300329,go-nogo,001,37,
logos/3.jpg,properties3.xlsx,logos/3.jpg,0,0,400,a,0,1,1,2,0,54,54,87,,,['a'],0,[0.4343115839365055],2018_Jul_09_0721,60.0008300329,go-nogo,001,37,
logos/3.jpg,properties3.xlsx,frogs/ab80.jpg,0,0,400,l,0,1,1,2,0,55,55,78,,,['l'],0,[0.5342475473080412],2018_Jul_09_0721,60.0008300329,go-nogo,001,37,
logos/3.jpg,properties3.xlsx,logos/3.jpg,0,0,400,a,0,1,1,2,0,56,56,84,,,['a'],0,[0.3346152558879112],2018_Jul_09_0721,60.0008300329,go-nogo,001,37,
logos/3.jpg,properties3.xlsx,frogs/ab28.jpg,0,0,400,l,0,1,1,2,0,57,57,27,,,['l'],0,[0.4510347381947213],2018_Jul_09_0721,60.0008300329,go-nogo,001,37,
logos/3.jpg,properties3.xlsx,frogs/ab4.jpg,0,0,400,l,0,1,1,2,0,58,58,3,,,['l'],0,[0.2670354164947639],2018_Jul_09_0721,60.0008300329,go-nogo,001,37,
logos/3.jpg,properties3.xlsx,frogs/ab44.jpg,0,0,400,l,0,1,1,2,0,59,59,43,,,['l'],0,[0.866285719384905],2018_Jul_09_0721,60.0008300329,go-nogo,001,37,
logos/3.jpg,properties3.xlsx,frogs/ab17.jpg,0,0,400,l,0,1,1,2,0,60,60,16,,,['l'],0,[0.4512270712075406],2018_Jul_09_0721,60.0008300329,go-nogo,001,37,
logos/3.jpg,properties3.xlsx,frogs/ab15.jpg,0,0,400,l,0,1,1,2,0,61,61,14,,,['l'],0,[0.5182499927468598],2018_Jul_09_0721,60.0008300329,go-nogo,001,37,
logos/3.jpg,properties3.xlsx,frogs/ab73.jpg,0,0,400,l,0,1,1,2,0,62,62,71,,,['l'],0,[0.2672915630028001],2018_Jul_09_0721,60.0008300329,go-nogo,001,37,
logos/3.jpg,properties3.xlsx,frogs/ab18.jpg,0,0,400,l,0,1,1,2,0,63,63,17,,,['l'],0,[0.2662705469483626],2018_Jul_09_0721,60.0008300329,go-nogo,001,37,
logos/3.jpg,properties3.xlsx,frogs/ab55.jpg,0,0,400,l,0,1,1,2,0,64,64,54,,,['l'],0,[0.3171763193895458],2018_Jul_09_0721,60.0008300329,go-nogo,001,37,
logos/3.jpg,properties3.xlsx,frogs/ab71.jpg,0,0,400,l,0,1,1,2,0,65,65,69,,,['l'],0,[0.31752216180757387],2018_Jul_09_0721,60.0008300329,go-nogo,001,37,
logos/3.jpg,properties3.xlsx,frogs/ab79.jpg,0,0,400,l,0,1,1,2,0,66,66,77,,,['l'],0,[0.3839707618099055],2018_Jul_09_0721,60.0008300329,go-nogo,001,37,
logos/3.jpg,properties3.xlsx,frogs/ab43.jpg,0,0,400,l,0,1,1,2,0,67,67,42,,,['l'],0,[0.30042058900289703],2018_Jul_09_0721,60.0008300329,go-nogo,001,37,
logos/3.jpg,properties3.xlsx,frogs/ab5.jpg,0,0,400,l,0,1,1,2,0,68,68,4,,,['l'],0,[0.28575463931338163],2018_Jul_09_0721,60.0008300329,go-nogo,001,37,
logos/3.jpg,properties3.xlsx,frogs/ab69.jpg,0,0,400,l,0,1,1,2,0,69,69,67,,,['l'],0,[0.2010303872739314],2018_Jul_09_0721,60.0008300329,go-nogo,001,37,
logos/3.jpg,properties3.xlsx,frogs/ab40.jpg,0,0,400,l,0,1,1,2,0,70,70,39,,,['l'],0,[0.4828049381831079],2018_Jul_09_0721,60.0008300329,go-nogo,001,37,
logos/3.jpg,properties3.xlsx,frogs/ab54.jpg,0,0,400,l,0,1,1,2,0,71,71,53,,,['l'],0,[0.4012249515290023],2018_Jul_09_0721,60.0008300329,go-nogo,001,37,
logos/3.jpg,properties3.xlsx,frogs/ab53.jpg,0,0,400,l,0,1,1,2,0,72,72,52,,,['l'],0,[0.3176252451594337],2018_Jul_09_0721,60.0008300329,go-nogo,001,37,
logos/3.jpg,properties3.xlsx,frogs/ab66.jpg,0,0,400,l,0,1,1,2,0,73,73,64,,,['l'],0,[0.335179759960738],2018_Jul_09_0721,60.0008300329,go-nogo,001,37,
logos/3.jpg,properties3.xlsx,frogs/ab64.jpg,0,0,400,l,0,1,1,2,0,74,74,62,,,['l'],0,[1.0665967544337036],2018_Jul_09_0721,60.0008300329,go-nogo,001,37,
logos/3.jpg,properties3.xlsx,frogs/ab26.jpg,0,0,400,l,0,1,1,2,0,75,75,25,,,['l'],0,[0.4669519680683152],2018_Jul_09_0721,60.0008300329,go-nogo,001,37,
logos/3.jpg,properties3.xlsx,frogs/ab61.jpg,0,0,400,l,0,1,1,2,0,76,76,59,,,['l'],0,[0.4006367962938384],2018_Jul_09_0721,60.0008300329,go-nogo,001,37,
logos/3.jpg,properties3.xlsx,frogs/ab49.jpg,0,0,400,l,0,1,1,2,0,77,77,48,,,['l'],0,[0.7680321120278677],2018_Jul_09_0721,60.0008300329,go-nogo,001,37,
logos/3.jpg,properties3.xlsx,frogs/ab19.jpg,0,0,400,l,0,1,1,2,0,78,78,18,,,['l'],0,[0.7510715536845964],2018_Jul_09_0721,60.0008300329,go-nogo,001,37,
logos/3.jpg,properties3.xlsx,frogs/ab46.jpg,0,0,400,l,0,1,1,2,0,79,79,45,,,['l'],0,[0.6167624241061276],2018_Jul_09_0721,60.0008300329,go-nogo,001,37,
logos/3.jpg,properties3.xlsx,logos/3.jpg,0,0,400,a,0,1,1,2,0,80,80,89,,,['a'],0,[0.4175536223046947],2018_Jul_09_0721,60.0008300329,go-nogo,001,37,
logos/3.jpg,properties3.xlsx,frogs/ab42.jpg,0,0,400,l,0,1,1,2,0,81,81,41,,,['l'],0,[0.48436948464950547],2018_Jul_09_0721,60.0008300329,go-nogo,001,37,
logos/3.jpg,properties3.xlsx,frogs/ab65.jpg,0,0,400,l,0,1,1,2,0,82,82,63,,,['l'],0,[0.4176839268038748],2018_Jul_09_0721,60.0008300329,go-nogo,001,37,
logos/3.jpg,properties3.xlsx,frogs/ab78.jpg,0,0,400,l,0,1,1,2,0,83,83,76,,,['l'],0,[0.45093656357494183],2018_Jul_09_0721,60.0008300329,go-nogo,001,37,
logos/3.jpg,properties3.xlsx,frogs/ab48.jpg,0,0,400,l,0,1,1,2,0,84,84,47,,,['l'],0,[0.3174262184256804],2018_Jul_09_0721,60.0008300329,go-nogo,001,37,
logos/3.jpg,properties3.xlsx,frogs/ab6.jpg,0,0,400,l,0,1,1,2,0,85,85,5,,,['l'],0,[0.4181926498422399],2018_Jul_09_0721,60.0008300329,go-nogo,001,37,
logos/3.jpg,properties3.xlsx,frogs/ab8.jpg,0,0,400,l,0,1,1,2,0,86,86,7,,,['l'],0,[0.3177104785791016],2018_Jul_09_0721,60.0008300329,go-nogo,001,37,
logos/3.jpg,properties3.xlsx,logos/3.jpg,0,0,400,a,0,1,1,2,0,87,87,86,,,['a'],0,[0.26782706094672903],2018_Jul_09_0721,60.0008300329,go-nogo,001,37,
logos/3.jpg,properties3.xlsx,frogs/ab47.jpg,0,0,400,l,0,1,1,2,0,88,88,46,,,['l'],0,[0.3840626889577834],2018_Jul_09_0721,60.0008300329,go-nogo,001,37,
logos/3.jpg,properties3.xlsx,frogs/ab38.jpg,0,0,400,l,0,1,1,2,0,89,89,37,,,['l'],0,[0.7175895452965051],2018_Jul_09_0721,60.0008300329,go-nogo,001,37,
logos/3.jpg,properties3.xlsx,,,,,,0,1,1,2,,,,,,,,,,2018_Jul_09_0721,60.0008300329,go-nogo,001,37,
logos/2.jpg,properties2.xlsx,frogs/ab27.jpg,0,0,400,l,0,2,2,1,0,0,0,26,space,4.05490906576,['l'],0,[1.1172392403968843],2018_Jul_09_0721,60.0008300329,go-nogo,001,37,
logos/2.jpg,properties2.xlsx,frogs/ab22.jpg,0,0,400,l,0,2,2,1,0,1,1,21,,,['l'],0,[0.35124692925455747],2018_Jul_09_0721,60.0008300329,go-nogo,001,37,
logos/2.jpg,properties2.xlsx,frogs/ab25.jpg,0,0,400,l,0,2,2,1,0,2,2,24,,,['l'],0,[0.30132111802959116],2018_Jul_09_0721,60.0008300329,go-nogo,001,37,
logos/2.jpg,properties2.xlsx,logos/2.jpg,0,0,400,a,0,2,2,1,0,3,3,86,,,['a'],0,[0.23459673659090186],2018_Jul_09_0721,60.0008300329,go-nogo,001,37,
logos/2.jpg,properties2.xlsx,frogs/ab52.jpg,0,0,400,l,0,2,2,1,0,4,4,51,,,['l'],0,[0.2179110671786475],2018_Jul_09_0721,60.0008300329,go-nogo,001,37,
logos/2.jpg,properties2.xlsx,frogs/ab31.jpg,0,0,400,l,0,2,2,1,0,5,5,30,,,['l'],0,[0.20184612912999],2018_Jul_09_0721,60.0008300329,go-nogo,001,37,
logos/2.jpg,properties2.xlsx,frogs/ab19.jpg,0,0,400,l,0,2,2,1,0,6,6,18,,,['l'],0,[0.19458076090086251],2018_Jul_09_0721,60.0008300329,go-nogo,001,37,
logos/2.jpg,properties2.xlsx,frogs/ab47.jpg,0,0,400,l,0,2,2,1,0,7,7,46,,,['l'],0,[0.3871003009917331],2018_Jul_09_0721,60.0008300329,go-nogo,001,37,
logos/2.jpg,properties2.xlsx,frogs/ab30.jpg,0,0,400,l,0,2,2,1,0,8,8,29,,,['l'],0,[0.41767098560376326],2018_Jul_09_0721,60.0008300329,go-nogo,001,37,
logos/2.jpg,properties2.xlsx,frogs/ab24.jpg,0,0,400,l,0,2,2,1,0,9,9,23,,,['l'],0,[0.2845337040198501],2018_Jul_09_0721,60.0008300329,go-nogo,001,37,
logos/2.jpg,properties2.xlsx,frogs/ab39.jpg,0,0,400,l,0,2,2,1,0,10,10,38,,,['l'],0,[0.051148531507351436],2018_Jul_09_0721,60.0008300329,go-nogo,001,37,
logos/2.jpg,properties2.xlsx,frogs/ab36.jpg,0,0,400,l,0,2,2,1,0,11,11,35,,,['l'],0,[0.03454943426186219],2018_Jul_09_0721,60.0008300329,go-nogo,001,37,
logos/2.jpg,properties2.xlsx,frogs/ab74.jpg,0,0,400,l,0,2,2,1,0,12,12,72,,,['l'],0,[0.4510655293270247],2018_Jul_09_0721,60.0008300329,go-nogo,001,37,
logos/2.jpg,properties2.xlsx,frogs/ab7.jpg,0,0,400,l,0,2,2,1,0,13,13,6,,,['l'],0,[0.30133852171275066],2018_Jul_09_0721,60.0008300329,go-nogo,001,37,
logos/2.jpg,properties2.xlsx,frogs/ab61.jpg,0,0,400,l,0,2,2,1,0,14,14,59,,,['l'],0,[0.28431727360293735],2018_Jul_09_0721,60.0008300329,go-nogo,001,37,
logos/2.jpg,properties2.xlsx,logos/2.jpg,0,0,400,a,0,2,2,1,0,15,15,84,,,['a'],0,[0.28423248642502585],2018_Jul_09_0721,60.0008300329,go-nogo,001,37,
logos/2.jpg,properties2.xlsx,frogs/ab56.jpg,0,0,400,l,0,2,2,1,0,16,16,55,,,['l'],0,[0.20059752644738182],2018_Jul_09_0721,60.0008300329,go-nogo,001,37,
logos/2.jpg,properties2.xlsx,frogs/ab69.jpg,0,0,400,l,0,2,2,1,0,17,17,67,,,['l'],0,[0.15093857169267721],2018_Jul_09_0721,60.0008300329,go-nogo,001,37,
logos/2.jpg,properties2.xlsx,frogs/ab50.jpg,0,0,400,l,0,2,2,1,0,18,18,49,,,['l'],0,[0.01773836909706006],2018_Jul_09_0721,60.0008300329,go-nogo,001,37,
logos/2.jpg,properties2.xlsx,frogs/ab17.jpg,0,0,400,l,0,2,2,1,0,19,19,16,,,['l'],0,[0.0009897786803776398],2018_Jul_09_0721,60.0008300329,go-nogo,001,37,
logos/2.jpg,properties2.xlsx,frogs/ab65.jpg,0,0,400,l,0,2,2,1,0,20,20,63,,,['l'],0,[0.06779091482894728],2018_Jul_09_0721,60.0008300329,go-nogo,001,37,
logos/2.jpg,properties2.xlsx,frogs/ab41.jpg,0,0,400,l,0,2,2,1,0,21,21,40,,,['l'],0,[0.20099513366585597],2018_Jul_09_0721,60.0008300329,go-nogo,001,37,
logos/2.jpg,properties2.xlsx,logos/2.jpg,0,0,400,a,0,2,2,1,0,22,22,88,,,['l'],0,[1.0498298678430729],2018_Jul_09_0721,60.0008300329,go-nogo,001,37,
logos/2.jpg,properties2.xlsx,frogs/ab34.jpg,0,0,400,l,0,2,2,1,0,23,23,33,,,['l'],0,[0.3009377907583257],2018_Jul_09_0721,60.0008300329,go-nogo,001,37,
logos/2.jpg,properties2.xlsx,frogs/ab48.jpg,0,0,400,l,0,2,2,1,0,24,24,47,,,['l'],0,[0.26706353014014894],2018_Jul_09_0721,60.0008300329,go-nogo,001,37,
logos/2.jpg,properties2.xlsx,frogs/ab71.jpg,0,0,400,l,0,2,2,1,0,25,25,69,,,['l'],0,[0.18451607721362961],2018_Jul_09_0721,60.0008300329,go-nogo,001,37,
logos/2.jpg,properties2.xlsx,frogs/ab80.jpg,0,0,400,l,0,2,2,1,0,26,26,78,,,['l'],0,[0.2845805600809399],2018_Jul_09_0721,60.0008300329,go-nogo,001,37,
logos/2.jpg,properties2.xlsx,frogs/ab28.jpg,0,0,400,l,0,2,2,1,0,27,27,27,,,['l'],0,[0.2844658742833417],2018_Jul_09_0721,60.0008300329,go-nogo,001,37,
logos/2.jpg,properties2.xlsx,frogs/ab13.jpg,0,0,400,l,0,2,2,1,0,28,28,12,,,['l'],0,[0.17801513228187105],2018_Jul_09_0721,60.0008300329,go-nogo,001,37,
logos/2.jpg,properties2.xlsx,frogs/ab37.jpg,0,0,400,l,0,2,2,1,0,29,29,36,,,['l'],0,[0.13379415905365022],2018_Jul_09_0721,60.0008300329,go-nogo,001,37,
logos/2.jpg,properties2.xlsx,frogs/ab35.jpg,0,0,400,l,0,2,2,1,0,30,30,34,,,['l'],0,[0.19965638882422354],2018_Jul_09_0721,60.0008300329,go-nogo,001,37,
logos/2.jpg,properties2.xlsx,frogs/ab16.jpg,0,0,400,l,0,2,2,1,0,31,31,15,,,['l'],0,[0.4670653151260922],2018_Jul_09_0721,60.0008300329,go-nogo,001,37,
logos/2.jpg,properties2.xlsx,logos/2.jpg,0,0,400,a,0,2,2,1,0,32,32,82,,,['a'],0,[0.3344041804521112],2018_Jul_09_0721,60.0008300329,go-nogo,001,37,
logos/2.jpg,properties2.xlsx,frogs/ab58.jpg,0,0,400,l,0,2,2,1,0,33,33,57,,,['l'],0,[0.350944372919912],2018_Jul_09_0721,60.0008300329,go-nogo,001,37,
logos/2.jpg,properties2.xlsx,frogs/ab23.jpg,0,0,400,l,0,2,2,1,0,34,34,22,,,['l'],0,[0.33362146097351797],2018_Jul_09_0721,60.0008300329,go-nogo,001,37,
logos/2.jpg,properties2.xlsx,frogs/ab10.jpg,0,0,400,l,0,2,2,1,0,35,35,9,,,['l'],0,[0.33366385455883574],2018_Jul_09_0721,60.0008300329,go-nogo,001,37,
logos/2.jpg,properties2.xlsx,logos/2.jpg,0,0,400,a,0,2,2,1,0,36,36,81,,,['a'],0,[0.43371227249735966],2018_Jul_09_0721,60.0008300329,go-nogo,001,37,
logos/2.jpg,properties2.xlsx,frogs/ab42.jpg,0,0,400,l,0,2,2,1,0,37,37,41,,,['l'],0,[0.5010944239038508],2018_Jul_09_0721,60.0008300329,go-nogo,001,37,
logos/2.jpg,properties2.xlsx,frogs/ab14.jpg,0,0,400,l,0,2,2,1,0,38,38,13,,,['l'],0,[0.3178398905802169],2018_Jul_09_0721,60.0008300329,go-nogo,001,37,
logos/2.jpg,properties2.xlsx,frogs/ab9.jpg,0,0,400,l,0,2,2,1,0,39,39,8,,,['l'],0,[0.5832340058987029],2018_Jul_09_0721,60.0008300329,go-nogo,001,37,
logos/2.jpg,properties2.xlsx,frogs/ab3.jpg,0,0,400,l,0,2,2,1,0,40,40,2,,,['l'],0,[0.7341636526325601],2018_Jul_09_0721,60.0008300329,go-nogo,001,37,
logos/2.jpg,properties2.xlsx,frogs/ab46.jpg,0,0,400,l,0,2,2,1,0,41,41,45,,,['l'],0,[0.9174418371185311],2018_Jul_09_0721,60.0008300329,go-nogo,001,37,
logos/2.jpg,properties2.xlsx,frogs/ab6.jpg,0,0,400,l,0,2,2,1,0,42,42,5,,,['l'],0,[0.7340900216659065],2018_Jul_09_0721,60.0008300329,go-nogo,001,37,
logos/2.jpg,properties2.xlsx,frogs/ab81.jpg,0,0,400,l,0,2,2,1,0,43,43,79,,,['l'],0,[0.5843897889499203],2018_Jul_09_0721,60.0008300329,go-nogo,001,37,
logos/2.jpg,properties2.xlsx,frogs/ab73.jpg,0,0,400,l,0,2,2,1,0,44,44,71,,,['l'],0,[0.43441332854126813],2018_Jul_09_0721,60.0008300329,go-nogo,001,37,
logos/2.jpg,properties2.xlsx,frogs/ab26.jpg,0,0,400,l,0,2,2,1,0,45,45,25,,,['l'],0,[0.46682121732010273],2018_Jul_09_0721,60.0008300329,go-nogo,001,37,
logos/2.jpg,properties2.xlsx,logos/2.jpg,0,0,400,a,0,2,2,1,0,46,46,85,,,['a'],0,[0.5343635718600126],2018_Jul_09_0721,60.0008300329,go-nogo,001,37,
logos/2.jpg,properties2.xlsx,frogs/ab20.jpg,0,0,400,l,0,2,2,1,0,47,47,19,,,['l'],0,[0.5176087339714286],2018_Jul_09_0721,60.0008300329,go-nogo,001,37,
logos/2.jpg,properties2.xlsx,frogs/ab15.jpg,0,0,400,l,0,2,2,1,0,48,48,14,,,['l'],0,[0.4841633179457858],2018_Jul_09_0721,60.0008300329,go-nogo,001,37,
logos/2.jpg,properties2.xlsx,frogs/ab40.jpg,0,0,400,l,0,2,2,1,0,49,49,39,,,['l'],0,[0.40228657617990393],2018_Jul_09_0721,60.0008300329,go-nogo,001,37,
logos/2.jpg,properties2.xlsx,frogs/ab53.jpg,0,0,400,l,0,2,2,1,0,50,50,52,,,['l'],0,[0.3506953663745662],2018_Jul_09_0721,60.0008300329,go-nogo,001,37,
logos/2.jpg,properties2.xlsx,frogs/ab29.jpg,0,0,400,l,0,2,2,1,0,51,51,28,,,['l'],0,[0.3501424647620297],2018_Jul_09_0721,60.0008300329,go-nogo,001,37,
logos/2.jpg,properties2.xlsx,frogs/ab49.jpg,0,0,400,l,0,2,2,1,0,52,52,48,,,['l'],0,[0.3175926690310007],2018_Jul_09_0721,60.0008300329,go-nogo,001,37,
logos/2.jpg,properties2.xlsx,frogs/ab70.jpg,0,0,400,l,0,2,2,1,0,53,53,68,,,['l'],0,[0.35100417018838925],2018_Jul_09_0721,60.0008300329,go-nogo,001,37,
logos/2.jpg,properties2.xlsx,frogs/ab66.jpg,0,0,400,l,0,2,2,1,0,54,54,64,,,['l'],0,[0.43418841941456776],2018_Jul_09_0721,60.0008300329,go-nogo,001,37,
logos/2.jpg,properties2.xlsx,frogs/ab63.jpg,0,0,400,l,0,2,2,1,0,55,55,61,,,['l'],0,[0.4011548905473319],2018_Jul_09_0721,60.0008300329,go-nogo,001,37,
logos/2.jpg,properties2.xlsx,frogs/ab1.jpg,0,0,400,l,0,2,2,1,0,56,56,0,,,['l'],0,[0.23440708107227692],2018_Jul_09_0721,60.0008300329,go-nogo,001,37,
logos/2.jpg,properties2.xlsx,frogs/ab79.jpg,0,0,400,l,0,2,2,1,0,57,57,77,,,['l'],0,[0.21774774031655397],2018_Jul_09_0721,60.0008300329,go-nogo,001,37,
logos/2.jpg,properties2.xlsx,frogs/ab55.jpg,0,0,400,l,0,2,2,1,0,58,58,54,,,['l'],0,[0.3341520501780906],2018_Jul_09_0721,60.0008300329,go-nogo,001,37,
logos/2.jpg,properties2.xlsx,frogs/ab72.jpg,0,0,400,l,0,2,2,1,0,59,59,70,,,['l'],0,[0.3509586528671207],2018_Jul_09_0721,60.0008300329,go-nogo,001,37,
logos/2.jpg,properties2.xlsx,frogs/ab18.jpg,0,0,400,l,0,2,2,1,0,60,60,17,,,['l'],0,[0.43451418065524194],2018_Jul_09_0721,60.0008300329,go-nogo,001,37,
logos/2.jpg,properties2.xlsx,frogs/ab60.jpg,0,0,400,l,0,2,2,1,0,61,61,58,,,['l'],0,[0.40090008277911693],2018_Jul_09_0721,60.0008300329,go-nogo,001,37,
logos/2.jpg,properties2.xlsx,frogs/ab62.jpg,0,0,400,l,0,2,2,1,0,62,62,60,,,['l'],0,[0.6676891702300054],2018_Jul_09_0721,60.0008300329,go-nogo,001,37,
logos/2.jpg,properties2.xlsx,frogs/ab2.jpg,0,0,400,l,0,2,2,1,0,63,63,1,,,['l'],0,[0.42061533175001387],2018_Jul_09_0721,60.0008300329,go-nogo,001,37,
logos/2.jpg,properties2.xlsx,frogs/ab75.jpg,0,0,400,l,0,2,2,1,0,64,64,73,,,['l'],0,[0.4844060770046781],2018_Jul_09_0721,60.0008300329,go-nogo,001,37,
logos/2.jpg,properties2.xlsx,frogs/ab51.jpg,0,0,400,l,0,2,2,1,0,65,65,50,,,['l'],0,[0.33453626994014485],2018_Jul_09_0721,60.0008300329,go-nogo,001,37,
logos/2.jpg,properties2.xlsx,logos/2.jpg,0,0,400,a,0,2,2,1,0,66,66,83,,,['a'],0,[0.2678449108789209],2018_Jul_09_0721,60.0008300329,go-nogo,001,37,
logos/2.jpg,properties2.xlsx,logos/2.jpg,0,0,400,a,0,2,2,1,0,67,67,89,,,['a'],0,[1.0010410972317914],2018_Jul_09_0721,60.0008300329,go-nogo,001,37,
logos/2.jpg,properties2.xlsx,frogs/ab78.jpg,0,0,400,l,0,2,2,1,0,68,68,76,,,['l'],0,[0.051263217312225606],2018_Jul_09_0721,60.0008300329,go-nogo,001,37,
logos/2.jpg,properties2.xlsx,frogs/ab12.jpg,0,0,400,l,0,2,2,1,0,69,69,11,,,['l'],0,[0.6343285413749982],2018_Jul_09_0721,60.0008300329,go-nogo,001,37,
logos/2.jpg,properties2.xlsx,frogs/ab33.jpg,0,0,400,l,0,2,2,1,0,70,70,32,,,['l'],0,[0.25112889658339554],2018_Jul_09_0721,60.0008300329,go-nogo,001,37,
logos/2.jpg,properties2.xlsx,frogs/ab21.jpg,0,0,400,l,0,2,2,1,0,71,71,20,,,['l'],0,[0.6500904768399778],2018_Jul_09_0721,60.0008300329,go-nogo,001,37,
logos/2.jpg,properties2.xlsx,frogs/ab68.jpg,0,0,400,l,0,2,2,1,0,72,72,66,,,['l'],0,[0.6341933281364618],2018_Jul_09_0721,60.0008300329,go-nogo,001,37,
logos/2.jpg,properties2.xlsx,frogs/ab32.jpg,0,0,400,l,0,2,2,1,0,73,73,31,,,['l'],0,[0.034410651052894536],2018_Jul_09_0721,60.0008300329,go-nogo,001,37,
logos/2.jpg,properties2.xlsx,frogs/ab57.jpg,0,0,400,l,0,2,2,1,0,74,74,56,,,['l'],0,[0.051073561793600675],2018_Jul_09_0721,60.0008300329,go-nogo,001,37,
logos/2.jpg,properties2.xlsx,logos/2.jpg,0,0,400,a,0,2,2,1,0,75,75,80,,,['l'],0,[0.6344276084928424],2018_Jul_09_0721,60.0008300329,go-nogo,001,37,
logos/2.jpg,properties2.xlsx,frogs/ab54.jpg,0,0,400,l,0,2,2,1,0,76,76,53,,,['l'],0,[0.35093187796883285],2018_Jul_09_0721,60.0008300329,go-nogo,001,37,
logos/2.jpg,properties2.xlsx,frogs/ab8.jpg,0,0,400,l,0,2,2,1,0,77,77,7,,,['l'],0,[0.05098788213217631],2018_Jul_09_0721,60.0008300329,go-nogo,001,37,
logos/2.jpg,properties2.xlsx,frogs/ab11.jpg,0,0,400,l,0,2,2,1,0,78,78,10,,,['l'],0,[0.3177452859454206],2018_Jul_09_0721,60.0008300329,go-nogo,001,37,
logos/2.jpg,properties2.xlsx,frogs/ab44.jpg,0,0,400,l,0,2,2,1,0,79,79,43,,,['l'],0,[0.41690923979331274],2018_Jul_09_0721,60.0008300329,go-nogo,001,37,
logos/2.jpg,properties2.xlsx,frogs/ab64.jpg,0,0,400,l,0,2,2,1,0,80,80,62,,,['l'],0,[0.501021685435262],2018_Jul_09_0721,60.0008300329,go-nogo,001,37,
logos/2.jpg,properties2.xlsx,frogs/ab76.jpg,0,0,400,l,0,2,2,1,0,81,81,74,,,['l'],0,[0.233547160634771],2018_Jul_09_0721,60.0008300329,go-nogo,001,37,
logos/2.jpg,properties2.xlsx,frogs/ab5.jpg,0,0,400,l,0,2,2,1,0,82,82,4,,,['l'],0,[0.3177171723000356],2018_Jul_09_0721,60.0008300329,go-nogo,001,37,
logos/2.jpg,properties2.xlsx,frogs/ab45.jpg,0,0,400,l,0,2,2,1,0,83,83,44,,,['l'],0,[0.41765715190558694],2018_Jul_09_0721,60.0008300329,go-nogo,001,37,
logos/2.jpg,properties2.xlsx,logos/2.jpg,0,0,400,a,0,2,2,1,0,84,84,87,,,['a'],0,[1.4007010560453637],2018_Jul_09_0721,60.0008300329,go-nogo,001,37,
logos/2.jpg,properties2.xlsx,frogs/ab77.jpg,0,0,400,l,0,2,2,1,0,85,85,75,,,['l'],0,[0.4841878615989117],2018_Jul_09_0721,60.0008300329,go-nogo,001,37,
logos/2.jpg,properties2.xlsx,frogs/ab4.jpg,0,0,400,l,0,2,2,1,0,86,86,3,,,['l'],0,[0.3011024563747924],2018_Jul_09_0721,60.0008300329,go-nogo,001,37,
logos/2.jpg,properties2.xlsx,frogs/ab38.jpg,0,0,400,l,0,2,2,1,0,87,87,37,,,['l'],0,[0.45089461623865645],2018_Jul_09_0721,60.0008300329,go-nogo,001,37,
logos/2.jpg,properties2.xlsx,frogs/ab43.jpg,0,0,400,l,0,2,2,1,0,88,88,42,,,['l'],0,[0.8842132977515575],2018_Jul_09_0721,60.0008300329,go-nogo,001,37,
logos/2.jpg,properties2.xlsx,frogs/ab67.jpg,0,0,400,l,0,2,2,1,0,89,89,65,,,['l'],0,[0.21752104618644807],2018_Jul_09_0721,60.0008300329,go-nogo,001,37,
logos/2.jpg,properties2.xlsx,,,,,,0,2,2,1,,,,,,,,,,2018_Jul_09_0721,60.0008300329,go-nogo,001,37,
logos/4.jpg,properties4.xlsx,frogs/ab23.jpg,0,0,400,l,0,3,3,3,0,0,0,22,space,6.26833310649,['l'],0,[0.934068601753097],2018_Jul_09_0721,60.0008300329,go-nogo,001,37,
logos/4.jpg,properties4.xlsx,frogs/ab1.jpg,0,0,400,l,0,3,3,3,0,1,1,0,,,['l'],0,[0.334324302013556],2018_Jul_09_0721,60.0008300329,go-nogo,001,37,
logos/4.jpg,properties4.xlsx,frogs/ab75.jpg,0,0,400,l,0,3,3,3,0,2,2,73,,,['l'],0,[0.3836896253997111],2018_Jul_09_0721,60.0008300329,go-nogo,001,37,
logos/4.jpg,properties4.xlsx,frogs/ab22.jpg,0,0,400,l,0,3,3,3,0,3,3,21,,,['l'],0,[0.31784703055018326],2018_Jul_09_0721,60.0008300329,go-nogo,001,37,
logos/4.jpg,properties4.xlsx,frogs/ab7.jpg,0,0,400,l,0,3,3,3,0,4,4,6,,,['l'],0,[0.21758307469281135],2018_Jul_09_0721,60.0008300329,go-nogo,001,37,
logos/4.jpg,properties4.xlsx,frogs/ab28.jpg,0,0,400,l,0,3,3,3,0,5,5,27,,,['l'],0,[0.6011937141447561],2018_Jul_09_0721,60.0008300329,go-nogo,001,37,
logos/4.jpg,properties4.xlsx,frogs/ab20.jpg,0,0,400,l,0,3,3,3,0,6,6,19,,,['l'],0,[0.5511135010165162],2018_Jul_09_0721,60.0008300329,go-nogo,001,37,
logos/4.jpg,properties4.xlsx,frogs/ab61.jpg,0,0,400,l,0,3,3,3,0,7,7,59,,,['l'],0,[2.349076377620804],2018_Jul_09_0721,60.0008300329,go-nogo,001,37,
logos/4.jpg,properties4.xlsx,frogs/ab4.jpg,0,0,400,l,0,3,3,3,0,8,8,3,,,['l'],0,[0.4342062693394837],2018_Jul_09_0721,60.0008300329,go-nogo,001,37,
logos/4.jpg,properties4.xlsx,frogs/ab26.jpg,0,0,400,l,0,3,3,3,0,9,9,25,,,['l'],0,[0.6176562594118877],2018_Jul_09_0721,60.0008300329,go-nogo,001,37,
logos/4.jpg,properties4.xlsx,frogs/ab70.jpg,0,0,400,l,0,3,3,3,0,10,10,68,,,['l'],0,[2.0504224855612847],2018_Jul_09_0721,60.0008300329,go-nogo,001,37,
logos/4.jpg,properties4.xlsx,frogs/ab44.jpg,0,0,400,l,0,3,3,3,0,11,11,43,,,['l'],0,[0.8343954786105314],2018_Jul_09_0721,60.0008300329,go-nogo,001,37,
logos/4.jpg,properties4.xlsx,frogs/ab81.jpg,0,0,400,l,0,3,3,3,0,12,12,79,,,['l'],0,[0.6824898868944729],2018_Jul_09_0721,60.0008300329,go-nogo,001,37,
logos/4.jpg,properties4.xlsx,frogs/ab71.jpg,0,0,400,l,0,3,3,3,0,13,13,69,,,['l'],0,[0.5575872248009546],2018_Jul_09_0721,60.0008300329,go-nogo,001,37,
logos/4.jpg,properties4.xlsx,frogs/ab64.jpg,0,0,400,l,0,3,3,3,0,14,14,62,,,['l'],0,[0.5370334753170027],2018_Jul_09_0721,60.0008300329,go-nogo,001,37,
logos/4.jpg,properties4.xlsx,frogs/ab8.jpg,0,0,400,l,0,3,3,3,0,15,15,7,,,['l'],0,[0.4726353861478856],2018_Jul_09_0721,60.0008300329,go-nogo,001,37,
logos/4.jpg,properties4.xlsx,frogs/ab36.jpg,0,0,400,l,0,3,3,3,0,16,16,35,,,['l'],0,[0.9504735809896374],2018_Jul_09_0721,60.0008300329,go-nogo,001,37,
logos/4.jpg,properties4.xlsx,frogs/ab3.jpg,0,0,400,l,0,3,3,3,0,17,17,2,,,['l'],0,[2.8667779312381754],2018_Jul_09_0721,60.0008300329,go-nogo,001,37,
logos/4.jpg,properties4.xlsx,frogs/ab47.jpg,0,0,400,l,0,3,3,3,0,18,18,46,,,['l'],0,[0.4537046416517114],2018_Jul_09_0721,60.0008300329,go-nogo,001,37,
logos/4.jpg,properties4.xlsx,frogs/ab27.jpg,0,0,400,l,0,3,3,3,0,19,19,26,,,['l'],0,[0.3843201742201927],2018_Jul_09_0721,60.0008300329,go-nogo,001,37,
logos/4.jpg,properties4.xlsx,frogs/ab17.jpg,0,0,400,l,0,3,3,3,0,20,20,16,,,['l'],0,[0.5844540487014456],2018_Jul_09_0721,60.0008300329,go-nogo,001,37,
logos/4.jpg,properties4.xlsx,frogs/ab16.jpg,0,0,400,l,0,3,3,3,0,21,21,15,,,['l'],0,[0.3675064315466443],2018_Jul_09_0721,60.0008300329,go-nogo,001,37,
logos/4.jpg,properties4.xlsx,frogs/ab37.jpg,0,0,400,l,0,3,3,3,0,22,22,36,,,['l'],0,[0.4333766937852488],2018_Jul_09_0721,60.0008300329,go-nogo,001,37,
logos/4.jpg,properties4.xlsx,frogs/ab43.jpg,0,0,400,l,0,3,3,3,0,23,23,42,,,['l'],0,[0.9671779928248725],2018_Jul_09_0721,60.0008300329,go-nogo,001,37,
logos/4.jpg,properties4.xlsx,frogs/ab73.jpg,0,0,400,l,0,3,3,3,0,24,24,71,,,['l'],0,[0.4173523643403314],2018_Jul_09_0721,60.0008300329,go-nogo,001,37,
logos/4.jpg,properties4.xlsx,frogs/ab74.jpg,0,0,400,l,0,3,3,3,0,25,25,72,,,['l'],0,[1.0342531254136702],2018_Jul_09_0721,60.0008300329,go-nogo,001,37,
logos/4.jpg,properties4.xlsx,logos/4.jpg,0,0,400,a,0,3,3,3,0,26,26,82,,,['a'],0,[0.9343028820949257],2018_Jul_09_0721,60.0008300329,go-nogo,001,37,
logos/4.jpg,properties4.xlsx,frogs/ab68.jpg,0,0,400,l,0,3,3,3,0,27,27,66,,,['l'],0,[0.8338100008695619],2018_Jul_09_0721,60.0008300329,go-nogo,001,37,
logos/4.jpg,properties4.xlsx,frogs/ab67.jpg,0,0,400,l,0,3,3,3,0,28,28,65,,,['l'],0,[0.5036483028088696],2018_Jul_09_0721,60.0008300329,go-nogo,001,37,
logos/4.jpg,properties4.xlsx,frogs/ab80.jpg,0,0,400,l,0,3,3,3,0,29,29,78,,,['l'],0,[0.38719267438864335],2018_Jul_09_0721,60.0008300329,go-nogo,001,37,
logos/4.jpg,properties4.xlsx,logos/4.jpg,0,0,400,a,0,3,3,3,0,30,30,86,,,['a'],0,[0.6172274148193537],2018_Jul_09_0721,60.0008300329,go-nogo,001,37,
logos/4.jpg,properties4.xlsx,frogs/ab25.jpg,0,0,400,l,0,3,3,3,0,31,31,24,,,['l'],0,[0.6167999089666409],2018_Jul_09_0721,60.0008300329,go-nogo,001,37,
logos/4.jpg,properties4.xlsx,frogs/ab5.jpg,0,0,400,l,0,3,3,3,0,32,32,4,,,['l'],0,[0.417641533218557],2018_Jul_09_0721,60.0008300329,go-nogo,001,37,
logos/4.jpg,properties4.xlsx,frogs/ab79.jpg,0,0,400,l,0,3,3,3,0,33,33,77,,,['l'],0,[0.4504331955104135],2018_Jul_09_0721,60.0008300329,go-nogo,001,37,
logos/4.jpg,properties4.xlsx,frogs/ab15.jpg,0,0,400,l,0,3,3,3,0,34,34,14,,,['l'],0,[0.43447981953795534],2018_Jul_09_0721,60.0008300329,go-nogo,001,37,
logos/4.jpg,properties4.xlsx,frogs/ab45.jpg,0,0,400,l,0,3,3,3,0,35,35,44,,,['l'],0,[0.4139898835492204],2018_Jul_09_0721,60.0008300329,go-nogo,001,37,
logos/4.jpg,properties4.xlsx,frogs/ab9.jpg,0,0,400,l,0,3,3,3,0,36,36,8,,,['l'],0,[0.5510894036124228],2018_Jul_09_0721,60.0008300329,go-nogo,001,37,
logos/4.jpg,properties4.xlsx,frogs/ab58.jpg,0,0,400,l,0,3,3,3,0,37,37,57,,,['l'],0,[0.46825367429846665],2018_Jul_09_0721,60.0008300329,go-nogo,001,37,
logos/4.jpg,properties4.xlsx,frogs/ab66.jpg,0,0,400,l,0,3,3,3,0,38,38,64,,,['l'],0,[0.699960060774174],2018_Jul_09_0721,60.0008300329,go-nogo,001,37,
logos/4.jpg,properties4.xlsx,frogs/ab72.jpg,0,0,400,l,0,3,3,3,0,39,39,70,,,['l'],0,[0.4170051831752062],2018_Jul_09_0721,60.0008300329,go-nogo,001,37,
logos/4.jpg,properties4.xlsx,frogs/ab78.jpg,0,0,400,l,0,3,3,3,0,40,40,76,,,['l'],0,[0.5675202652491862],2018_Jul_09_0721,60.0008300329,go-nogo,001,37,
logos/4.jpg,properties4.xlsx,frogs/ab13.jpg,0,0,400,l,0,3,3,3,0,41,41,12,,,['l'],0,[0.38367311421461636],2018_Jul_09_0721,60.0008300329,go-nogo,001,37,
logos/4.jpg,properties4.xlsx,frogs/ab77.jpg,0,0,400,l,0,3,3,3,0,42,42,75,,,['l'],0,[0.5506065629742807],2018_Jul_09_0721,60.0008300329,go-nogo,001,37,
logos/4.jpg,properties4.xlsx,frogs/ab60.jpg,0,0,400,l,0,3,3,3,0,43,43,58,,,['l'],0,[0.5020391315047164],2018_Jul_09_0721,60.0008300329,go-nogo,001,37,
logos/4.jpg,properties4.xlsx,logos/4.jpg,0,0,400,a,0,3,3,3,0,44,44,88,,,['a'],0,[0.4997784377337666],2018_Jul_09_0721,60.0008300329,go-nogo,001,37,
logos/4.jpg,properties4.xlsx,frogs/ab24.jpg,0,0,400,l,0,3,3,3,0,45,45,23,,,['l'],0,[0.4894036114856135],2018_Jul_09_0721,60.0008300329,go-nogo,001,37,
logos/4.jpg,properties4.xlsx,frogs/ab34.jpg,0,0,400,l,0,3,3,3,0,46,46,33,,,['l'],0,[0.4963458959682612],2018_Jul_09_0721,60.0008300329,go-nogo,001,37,
logos/4.jpg,properties4.xlsx,frogs/ab40.jpg,0,0,400,l,0,3,3,3,0,47,47,39,,,['l'],0,[0.5736365441625821],2018_Jul_09_0721,60.0008300329,go-nogo,001,37,
logos/4.jpg,properties4.xlsx,frogs/ab48.jpg,0,0,400,l,0,3,3,3,0,48,48,47,,,['l'],0,[0.5045474930884666],2018_Jul_09_0721,60.0008300329,go-nogo,001,37,
logos/4.jpg,properties4.xlsx,frogs/ab21.jpg,0,0,400,l,0,3,3,3,0,49,49,20,,,['l'],0,[0.3874238310017972],2018_Jul_09_0721,60.0008300329,go-nogo,001,37,
logos/4.jpg,properties4.xlsx,frogs/ab53.jpg,0,0,400,l,0,3,3,3,0,50,50,52,,,['l'],0,[0.35334608115954325],2018_Jul_09_0721,60.0008300329,go-nogo,001,37,
logos/4.jpg,properties4.xlsx,frogs/ab54.jpg,0,0,400,l,0,3,3,3,0,51,51,53,,,['l'],0,[0.38494983054260956],2018_Jul_09_0721,60.0008300329,go-nogo,001,37,
logos/4.jpg,properties4.xlsx,frogs/ab35.jpg,0,0,400,l,0,3,3,3,0,52,52,34,,,['l'],0,[0.7902325176619343],2018_Jul_09_0721,60.0008300329,go-nogo,001,37,
logos/4.jpg,properties4.xlsx,frogs/ab46.jpg,0,0,400,l,0,3,3,3,0,53,53,45,,,['l'],0,[0.6627451855383697],2018_Jul_09_0721,60.0008300329,go-nogo,001,37,
logos/4.jpg,properties4.xlsx,frogs/ab62.jpg,0,0,400,l,0,3,3,3,0,54,54,60,,,['l'],0,[0.6470046699905652],2018_Jul_09_0721,60.0008300329,go-nogo,001,37,
logos/4.jpg,properties4.xlsx,frogs/ab10.jpg,0,0,400,l,0,3,3,3,0,55,55,9,,,['l'],0,[1.7666942596843],2018_Jul_09_0721,60.0008300329,go-nogo,001,37,
logos/4.jpg,properties4.xlsx,frogs/ab39.jpg,0,0,400,l,0,3,3,3,0,56,56,38,,,['l'],0,[1.0397089568723459],2018_Jul_09_0721,60.0008300329,go-nogo,001,37,
logos/4.jpg,properties4.xlsx,logos/4.jpg,0,0,400,a,0,3,3,3,0,57,57,89,,,['a'],0,[0.9874220460042125],2018_Jul_09_0721,60.0008300329,go-nogo,001,37,
logos/4.jpg,properties4.xlsx,frogs/ab76.jpg,0,0,400,l,0,3,3,3,0,58,58,74,,,['l'],0,[0.4246337975055212],2018_Jul_09_0721,60.0008300329,go-nogo,001,37,
logos/4.jpg,properties4.xlsx,frogs/ab63.jpg,0,0,400,l,0,3,3,3,0,59,59,61,,,['l'],0,[0.6237056010795641],2018_Jul_09_0721,60.0008300329,go-nogo,001,37,
logos/4.jpg,properties4.xlsx,frogs/ab55.jpg,0,0,400,l,0,3,3,3,0,60,60,54,,,['l'],0,[1.097357540820667],2018_Jul_09_0721,60.0008300329,go-nogo,001,37,
logos/4.jpg,properties4.xlsx,frogs/ab2.jpg,0,0,400,l,0,3,3,3,0,61,61,1,,,['l'],0,[0.33279322416638024],2018_Jul_09_0721,60.0008300329,go-nogo,001,37,
logos/4.jpg,properties4.xlsx,frogs/ab19.jpg,0,0,400,l,0,3,3,3,0,62,62,18,,,['l'],0,[0.5392147368984297],2018_Jul_09_0721,60.0008300329,go-nogo,001,37,
logos/4.jpg,properties4.xlsx,frogs/ab31.jpg,0,0,400,l,0,3,3,3,0,63,63,30,,,['l'],0,[0.5457451342153945],2018_Jul_09_0721,60.0008300329,go-nogo,001,37,
logos/4.jpg,properties4.xlsx,logos/4.jpg,0,0,400,a,0,3,3,3,0,64,64,81,,,['a'],0,[0.5980864873781684],2018_Jul_09_0721,60.0008300329,go-nogo,001,37,
logos/4.jpg,properties4.xlsx,logos/4.jpg,0,0,400,a,0,3,3,3,0,65,65,87,,,['a'],0,[0.9859190817951458],2018_Jul_09_0721,60.0008300329,go-nogo,001,37,
logos/4.jpg,properties4.xlsx,frogs/ab33.jpg,0,0,400,l,0,3,3,3,0,66,66,32,,,['l'],0,[0.9937797452366794],2018_Jul_09_0721,60.0008300329,go-nogo,001,37,
logos/4.jpg,properties4.xlsx,frogs/ab65.jpg,0,0,400,l,0,3,3,3,0,67,67,63,,,['l'],0,[0.4186107844871003],2018_Jul_09_0721,60.0008300329,go-nogo,001,37,
logos/4.jpg,properties4.xlsx,frogs/ab30.jpg,0,0,400,l,0,3,3,3,0,68,68,29,,,['l'],0,[0.35416450050252024],2018_Jul_09_0721,60.0008300329,go-nogo,001,37,
logos/4.jpg,properties4.xlsx,frogs/ab50.jpg,0,0,400,l,0,3,3,3,0,69,69,49,,,['l'],0,[0.627401429330348],2018_Jul_09_0721,60.0008300329,go-nogo,001,37,
logos/4.jpg,properties4.xlsx,frogs/ab14.jpg,0,0,400,l,0,3,3,3,0,70,70,13,,,['l'],0,[0.5252502895018551],2018_Jul_09_0721,60.0008300329,go-nogo,001,37,
logos/4.jpg,properties4.xlsx,frogs/ab51.jpg,0,0,400,l,0,3,3,3,0,71,71,50,,,['l'],0,[1.0490301909303525],2018_Jul_09_0721,60.0008300329,go-nogo,001,37,
logos/4.jpg,properties4.xlsx,logos/4.jpg,0,0,400,a,0,3,3,3,0,72,72,85,,,['a'],0,[0.7554969978664303],2018_Jul_09_0721,60.0008300329,go-nogo,001,37,
logos/4.jpg,properties4.xlsx,frogs/ab56.jpg,0,0,400,l,0,3,3,3,0,73,73,55,,,['a'],0,[1.2686267378594493],2018_Jul_09_0721,60.0008300329,go-nogo,001,37,
logos/4.jpg,properties4.xlsx,frogs/ab32.jpg,0,0,400,l,0,3,3,3,0,74,74,31,,,['l'],0,[0.9084294068670715],2018_Jul_09_0721,60.0008300329,go-nogo,001,37,
logos/4.jpg,properties4.xlsx,frogs/ab69.jpg,0,0,400,l,0,3,3,3,0,75,75,67,,,['l'],0,[0.4031804114856641],2018_Jul_09_0721,60.0008300329,go-nogo,001,37,
logos/4.jpg,properties4.xlsx,frogs/ab49.jpg,0,0,400,l,0,3,3,3,0,76,76,48,,,['l'],0,[0.3596569243236445],2018_Jul_09_0721,60.0008300329,go-nogo,001,37,
logos/4.jpg,properties4.xlsx,frogs/ab42.jpg,0,0,400,l,0,3,3,3,0,77,77,41,,,['l'],0,[0.30490538421145175],2018_Jul_09_0721,60.0008300329,go-nogo,001,37,
logos/4.jpg,properties4.xlsx,frogs/ab52.jpg,0,0,400,l,0,3,3,3,0,78,78,51,,,['l'],0,[0.30079499130806653],2018_Jul_09_0721,60.0008300329,go-nogo,001,37,
logos/4.jpg,properties4.xlsx,frogs/ab38.jpg,0,0,400,l,0,3,3,3,0,79,79,37,,,['l'],0,[0.16548626559233526],2018_Jul_09_0721,60.0008300329,go-nogo,001,37,
logos/4.jpg,properties4.xlsx,frogs/ab29.jpg,0,0,400,l,0,3,3,3,0,80,80,28,,,['l'],0,[0.29000158418057254],2018_Jul_09_0721,60.0008300329,go-nogo,001,37,
logos/4.jpg,properties4.xlsx,frogs/ab18.jpg,0,0,400,l,0,3,3,3,0,81,81,17,,,['l'],0,[0.26862361412349856],2018_Jul_09_0721,60.0008300329,go-nogo,001,37,
logos/4.jpg,properties4.xlsx,frogs/ab41.jpg,0,0,400,l,0,3,3,3,0,82,82,40,,,['l'],0,[0.31538775627996074],2018_Jul_09_0721,60.0008300329,go-nogo,001,37,
logos/4.jpg,properties4.xlsx,frogs/ab11.jpg,0,0,400,l,0,3,3,3,0,83,83,10,,,['l'],0,[0.301992275439261],2018_Jul_09_0721,60.0008300329,go-nogo,001,37,
logos/4.jpg,properties4.xlsx,frogs/ab6.jpg,0,0,400,l,0,3,3,3,0,84,84,5,,,['l'],0,[0.31665019266074523],2018_Jul_09_0721,60.0008300329,go-nogo,001,37,
logos/4.jpg,properties4.xlsx,logos/4.jpg,0,0,400,a,0,3,3,3,0,85,85,83,,,['a'],0,[0.8348319094293402],2018_Jul_09_0721,60.0008300329,go-nogo,001,37,
logos/4.jpg,properties4.xlsx,frogs/ab57.jpg,0,0,400,l,0,3,3,3,0,86,86,56,,,['l'],0,[0.7525004406707012],2018_Jul_09_0721,60.0008300329,go-nogo,001,37,
logos/4.jpg,properties4.xlsx,logos/4.jpg,0,0,400,a,0,3,3,3,0,87,87,84,,,['a'],0,[0.8325734468890005],2018_Jul_09_0721,60.0008300329,go-nogo,001,37,
logos/4.jpg,properties4.xlsx,logos/4.jpg,0,0,400,a,0,3,3,3,0,88,88,80,,,['a'],0,[0.5340253156609833],2018_Jul_09_0721,60.0008300329,go-nogo,001,37,
logos/4.jpg,properties4.xlsx,frogs/ab12.jpg,0,0,400,l,0,3,3,3,0,89,89,11,,,['l'],0,[0.8845091603579931],2018_Jul_09_0721,60.0008300329,go-nogo,001,37,
logos/4.jpg,properties4.xlsx,,,,,,0,3,3,3,,,,,,,,,,2018_Jul_09_0721,60.0008300329,go-nogo,001,37,
