pix,source,image1,x,y,size,answer,trials_2.thisRepN,trials_2.thisTrialN,trials_2.thisN,trials_2.thisIndex,trials.thisRepN,trials.thisTrialN,trials.thisN,trials.thisIndex,key_resp_3.keys,key_resp_3.rt,key_resp_2.keys,key_resp_2.corr,key_resp_2.rt,date,frameRate,expName,session,participant,
logos/2.jpg,properties2.xlsx,frogs/ab2.jpg,0,0,400,l,0,0,0,1,0,0,0,1,space,9.49687025511,['l'],0,[0.43361032556822465],2018_Jul_09_1421,60.3004023893,go-nogo,001,38,
logos/2.jpg,properties2.xlsx,frogs/ab81.jpg,0,0,400,l,0,0,0,1,0,1,1,79,,,['l'],0,[0.26714817463289364],2018_Jul_09_1421,60.3004023893,go-nogo,001,38,
logos/2.jpg,properties2.xlsx,logos/2.jpg,0,0,400,a,0,0,0,1,0,2,2,89,,,['a'],0,[0.15032958606025204],2018_Jul_09_1421,60.3004023893,go-nogo,001,38,
logos/2.jpg,properties2.xlsx,frogs/ab18.jpg,0,0,400,l,0,0,0,1,0,3,3,17,,,['l'],0,[1.1162764370001241],2018_Jul_09_1421,60.3004023893,go-nogo,001,38,
logos/2.jpg,properties2.xlsx,frogs/ab38.jpg,0,0,400,l,0,0,0,1,0,4,4,37,,,['l'],0,[0.6001316410020081],2018_Jul_09_1421,60.3004023893,go-nogo,001,38,
logos/2.jpg,properties2.xlsx,frogs/ab66.jpg,0,0,400,l,0,0,0,1,0,5,5,64,,,['l'],0,[0.13366112739095115],2018_Jul_09_1421,60.3004023893,go-nogo,001,38,
logos/2.jpg,properties2.xlsx,frogs/ab39.jpg,0,0,400,l,0,0,0,1,0,6,6,38,,,['l'],0,[0.31699141716489976],2018_Jul_09_1421,60.3004023893,go-nogo,001,38,
logos/2.jpg,properties2.xlsx,frogs/ab74.jpg,0,0,400,l,0,0,0,1,0,7,7,72,,,['l'],0,[0.06721484846639214],2018_Jul_09_1421,60.3004023893,go-nogo,001,38,
logos/2.jpg,properties2.xlsx,frogs/ab25.jpg,0,0,400,l,0,0,0,1,0,8,8,24,,,['l'],0,[0.4499528106262005],2018_Jul_09_1421,60.3004023893,go-nogo,001,38,
logos/2.jpg,properties2.xlsx,frogs/ab68.jpg,0,0,400,l,0,0,0,1,0,9,9,66,,,['l'],0,[0.08375132480068714],2018_Jul_09_1421,60.3004023893,go-nogo,001,38,
logos/2.jpg,properties2.xlsx,frogs/ab57.jpg,0,0,400,l,0,0,0,1,0,10,10,56,,,['l'],0,[0.5005720182671212],2018_Jul_09_1421,60.3004023893,go-nogo,001,38,
logos/2.jpg,properties2.xlsx,frogs/ab10.jpg,0,0,400,l,0,0,0,1,0,11,11,9,,,['l'],0,[0.266686805351128],2018_Jul_09_1421,60.3004023893,go-nogo,001,38,
logos/2.jpg,properties2.xlsx,frogs/ab64.jpg,0,0,400,l,0,0,0,1,0,12,12,62,,,['l'],0,[0.6668288001383189],2018_Jul_09_1421,60.3004023893,go-nogo,001,38,
logos/2.jpg,properties2.xlsx,frogs/ab12.jpg,0,0,400,l,0,0,0,1,0,13,13,11,,,['l'],0,[0.3670468554355466],2018_Jul_09_1421,60.3004023893,go-nogo,001,38,
logos/2.jpg,properties2.xlsx,frogs/ab50.jpg,0,0,400,l,0,0,0,1,0,14,14,49,,,['l'],0,[0.4168195556849241],2018_Jul_09_1421,60.3004023893,go-nogo,001,38,
logos/2.jpg,properties2.xlsx,frogs/ab4.jpg,0,0,400,l,0,0,0,1,0,15,15,3,,,['l'],0,[0.4003769460996409],2018_Jul_09_1421,60.3004023893,go-nogo,001,38,
logos/2.jpg,properties2.xlsx,frogs/ab42.jpg,0,0,400,l,0,0,0,1,0,16,16,41,,,['l'],0,[0.6168569886085606],2018_Jul_09_1421,60.3004023893,go-nogo,001,38,
logos/2.jpg,properties2.xlsx,frogs/ab40.jpg,0,0,400,l,0,0,0,1,0,17,17,39,,,['l'],0,[0.3336564624969469],2018_Jul_09_1421,60.3004023893,go-nogo,001,38,
logos/2.jpg,properties2.xlsx,frogs/ab33.jpg,0,0,400,l,0,0,0,1,0,18,18,32,,,['l'],0,[0.4336017922305473],2018_Jul_09_1421,60.3004023893,go-nogo,001,38,
logos/2.jpg,properties2.xlsx,frogs/ab29.jpg,0,0,400,l,0,0,0,1,0,19,19,28,,,['l'],0,[0.7334138880687533],2018_Jul_09_1421,60.3004023893,go-nogo,001,38,
logos/2.jpg,properties2.xlsx,frogs/ab30.jpg,0,0,400,l,0,0,0,1,0,20,20,29,,,['l'],0,[0.21711264749137626],2018_Jul_09_1421,60.3004023893,go-nogo,001,38,
logos/2.jpg,properties2.xlsx,frogs/ab63.jpg,0,0,400,l,0,0,0,1,0,21,21,61,,,['l'],0,[0.3835861762163404],2018_Jul_09_1421,60.3004023893,go-nogo,001,38,
logos/2.jpg,properties2.xlsx,frogs/ab36.jpg,0,0,400,l,0,0,0,1,0,22,22,35,,,['l'],0,[0.30046404306267505],2018_Jul_09_1421,60.3004023893,go-nogo,001,38,
logos/2.jpg,properties2.xlsx,frogs/ab48.jpg,0,0,400,l,0,0,0,1,0,23,23,47,,,['l'],0,[0.41680590234136616],2018_Jul_09_1421,60.3004023893,go-nogo,001,38,
logos/2.jpg,properties2.xlsx,logos/2.jpg,0,0,400,a,0,0,0,1,0,24,24,86,,,['a'],0,[0.13375385635845305],2018_Jul_09_1421,60.3004023893,go-nogo,001,38,
logos/2.jpg,properties2.xlsx,frogs/ab24.jpg,0,0,400,l,0,0,0,1,0,25,25,23,,,['l'],0,[0.3166449635373283],2018_Jul_09_1421,60.3004023893,go-nogo,001,38,
logos/2.jpg,properties2.xlsx,frogs/ab53.jpg,0,0,400,l,0,0,0,1,0,26,26,52,,,['l'],0,[0.2837620199206867],2018_Jul_09_1421,60.3004023893,go-nogo,001,38,
logos/2.jpg,properties2.xlsx,logos/2.jpg,0,0,400,a,0,0,0,1,0,27,27,81,,,['a'],0,[0.08380081817813334],2018_Jul_09_1421,60.3004023893,go-nogo,001,38,
logos/2.jpg,properties2.xlsx,frogs/ab5.jpg,0,0,400,l,0,0,0,1,0,28,28,4,,,['l'],0,[0.1506003774011333],2018_Jul_09_1421,60.3004023893,go-nogo,001,38,
logos/2.jpg,properties2.xlsx,frogs/ab79.jpg,0,0,400,l,0,0,0,1,0,29,29,77,,,['l'],0,[0.6500414435904531],2018_Jul_09_1421,60.3004023893,go-nogo,001,38,
logos/2.jpg,properties2.xlsx,logos/2.jpg,0,0,400,a,0,0,0,1,0,30,30,84,,,['a'],0,[0.2004345177047071],2018_Jul_09_1421,60.3004023893,go-nogo,001,38,
logos/2.jpg,properties2.xlsx,frogs/ab1.jpg,0,0,400,l,0,0,0,1,0,31,31,0,,,['l'],0,[0.4502241708578367],2018_Jul_09_1421,60.3004023893,go-nogo,001,38,
logos/2.jpg,properties2.xlsx,logos/2.jpg,0,0,400,a,0,0,0,1,0,32,32,85,,,['a'],0,[0.08380821373975778],2018_Jul_09_1421,60.3004023893,go-nogo,001,38,
logos/2.jpg,properties2.xlsx,frogs/ab26.jpg,0,0,400,l,0,0,0,1,0,33,33,25,,,['l'],0,[0.7668748232881626],2018_Jul_09_1421,60.3004023893,go-nogo,001,38,
logos/2.jpg,properties2.xlsx,frogs/ab31.jpg,0,0,400,l,0,0,0,1,0,34,34,30,,,['l'],0,[0.3170363594254013],2018_Jul_09_1421,60.3004023893,go-nogo,001,38,
logos/2.jpg,properties2.xlsx,frogs/ab51.jpg,0,0,400,l,0,0,0,1,0,35,35,50,,,['l'],0,[0.39995767463005905],2018_Jul_09_1421,60.3004023893,go-nogo,001,38,
logos/2.jpg,properties2.xlsx,frogs/ab71.jpg,0,0,400,l,0,0,0,1,0,36,36,69,,,['l'],0,[0.6334617316661024],2018_Jul_09_1421,60.3004023893,go-nogo,001,38,
logos/2.jpg,properties2.xlsx,frogs/ab7.jpg,0,0,400,l,0,0,0,1,0,37,37,6,,,['l'],0,[0.3172297818146035],2018_Jul_09_1421,60.3004023893,go-nogo,001,38,
logos/2.jpg,properties2.xlsx,logos/2.jpg,0,0,400,a,0,0,0,1,0,38,38,82,,,['a'],0,[0.5835974402252759],2018_Jul_09_1421,60.3004023893,go-nogo,001,38,
logos/2.jpg,properties2.xlsx,frogs/ab37.jpg,0,0,400,l,0,0,0,1,0,39,39,36,,,['l'],0,[0.283771122150938],2018_Jul_09_1421,60.3004023893,go-nogo,001,38,
logos/2.jpg,properties2.xlsx,frogs/ab47.jpg,0,0,400,l,0,0,0,1,0,40,40,46,,,['l'],0,[0.40029957714614284],2018_Jul_09_1421,60.3004023893,go-nogo,001,38,
logos/2.jpg,properties2.xlsx,frogs/ab52.jpg,0,0,400,l,0,0,0,1,0,41,41,51,,,['l'],0,[0.18402774814785516],2018_Jul_09_1421,60.3004023893,go-nogo,001,38,
logos/2.jpg,properties2.xlsx,frogs/ab61.jpg,0,0,400,l,0,0,0,1,0,42,42,59,,,['l'],0,[0.3002268161926622],2018_Jul_09_1421,60.3004023893,go-nogo,001,38,
logos/2.jpg,properties2.xlsx,frogs/ab20.jpg,0,0,400,l,0,0,0,1,0,43,43,19,,,['l'],0,[0.2837045620944991],2018_Jul_09_1421,60.3004023893,go-nogo,001,38,
logos/2.jpg,properties2.xlsx,frogs/ab28.jpg,0,0,400,l,0,0,0,1,0,44,44,27,,,['l'],0,[0.30041056746085815],2018_Jul_09_1421,60.3004023893,go-nogo,001,38,
logos/2.jpg,properties2.xlsx,frogs/ab76.jpg,0,0,400,l,0,0,0,1,0,45,45,74,,,['l'],0,[0.41691569799149875],2018_Jul_09_1421,60.3004023893,go-nogo,001,38,
logos/2.jpg,properties2.xlsx,frogs/ab44.jpg,0,0,400,l,0,0,0,1,0,46,46,43,,,['l'],0,[0.4003991327845142],2018_Jul_09_1421,60.3004023893,go-nogo,001,38,
logos/2.jpg,properties2.xlsx,frogs/ab73.jpg,0,0,400,l,0,0,0,1,0,47,47,71,,,['l'],0,[0.250346026961779],2018_Jul_09_1421,60.3004023893,go-nogo,001,38,
logos/2.jpg,properties2.xlsx,frogs/ab62.jpg,0,0,400,l,0,0,0,1,0,48,48,60,,,['l'],0,[0.28377453548819176],2018_Jul_09_1421,60.3004023893,go-nogo,001,38,
logos/2.jpg,properties2.xlsx,frogs/ab32.jpg,0,0,400,l,0,0,0,1,0,49,49,31,,,['l'],0,[0.16701852474579937],2018_Jul_09_1421,60.3004023893,go-nogo,001,38,
logos/2.jpg,properties2.xlsx,frogs/ab45.jpg,0,0,400,l,0,0,0,1,0,50,50,44,,,['l'],0,[0.333563733529445],2018_Jul_09_1421,60.3004023893,go-nogo,001,38,
logos/2.jpg,properties2.xlsx,frogs/ab16.jpg,0,0,400,l,0,0,0,1,0,51,51,15,,,['l'],0,[0.2504290848100936],2018_Jul_09_1421,60.3004023893,go-nogo,001,38,
logos/2.jpg,properties2.xlsx,frogs/ab35.jpg,0,0,400,l,0,0,0,1,0,52,52,34,,,['l'],0,[0.7167750116477691],2018_Jul_09_1421,60.3004023893,go-nogo,001,38,
logos/2.jpg,properties2.xlsx,frogs/ab23.jpg,0,0,400,l,0,0,0,1,0,53,53,22,,,['l'],0,[0.20044305104420346],2018_Jul_09_1421,60.3004023893,go-nogo,001,38,
logos/2.jpg,properties2.xlsx,frogs/ab58.jpg,0,0,400,l,0,0,0,1,0,54,54,57,,,['l'],0,[0.8832428514779167],2018_Jul_09_1421,60.3004023893,go-nogo,001,38,
logos/2.jpg,properties2.xlsx,logos/2.jpg,0,0,400,a,0,0,0,1,0,55,55,88,,,['a'],0,[0.08343047119524272],2018_Jul_09_1421,60.3004023893,go-nogo,001,38,
logos/2.jpg,properties2.xlsx,frogs/ab69.jpg,0,0,400,l,0,0,0,1,0,56,56,67,,,['l'],0,[1.0832364799171046],2018_Jul_09_1421,60.3004023893,go-nogo,001,38,
logos/2.jpg,properties2.xlsx,frogs/ab41.jpg,0,0,400,l,0,0,0,1,0,57,57,40,,,['l'],0,[0.000562631590582896],2018_Jul_09_1421,60.3004023893,go-nogo,001,38,
logos/2.jpg,properties2.xlsx,frogs/ab54.jpg,0,0,400,l,0,0,0,1,0,58,58,53,,,['l'],0,[1.4495534502857481],2018_Jul_09_1421,60.3004023893,go-nogo,001,38,
logos/2.jpg,properties2.xlsx,frogs/ab46.jpg,0,0,400,l,0,0,0,1,0,59,59,45,,,['l'],0,[0.35037100120644027],2018_Jul_09_1421,60.3004023893,go-nogo,001,38,
logos/2.jpg,properties2.xlsx,frogs/ab14.jpg,0,0,400,l,0,0,0,1,0,60,60,13,,,['l'],0,[0.31703863498478313],2018_Jul_09_1421,60.3004023893,go-nogo,001,38,
logos/2.jpg,properties2.xlsx,frogs/ab11.jpg,0,0,400,l,0,0,0,1,0,61,61,10,,,['l'],0,[0.33361265801613627],2018_Jul_09_1421,60.3004023893,go-nogo,001,38,
logos/2.jpg,properties2.xlsx,frogs/ab49.jpg,0,0,400,l,0,0,0,1,0,62,62,48,,,['l'],0,[0.8668690775066352],2018_Jul_09_1421,60.3004023893,go-nogo,001,38,
logos/2.jpg,properties2.xlsx,frogs/ab34.jpg,0,0,400,l,0,0,0,1,0,63,63,33,,,['l'],0,[0.31686227927821164],2018_Jul_09_1421,60.3004023893,go-nogo,001,38,
logos/2.jpg,properties2.xlsx,frogs/ab21.jpg,0,0,400,l,0,0,0,1,0,64,64,20,,,['l'],0,[0.31697321270621615],2018_Jul_09_1421,60.3004023893,go-nogo,001,38,
logos/2.jpg,properties2.xlsx,frogs/ab15.jpg,0,0,400,l,0,0,0,1,0,65,65,14,,,['l'],0,[0.6002425744300126],2018_Jul_09_1421,60.3004023893,go-nogo,001,38,
logos/2.jpg,properties2.xlsx,frogs/ab75.jpg,0,0,400,l,0,0,0,1,0,66,66,73,,,['l'],0,[0.7335259592746297],2018_Jul_09_1421,60.3004023893,go-nogo,001,38,
logos/2.jpg,properties2.xlsx,frogs/ab65.jpg,0,0,400,l,0,0,0,1,0,67,67,63,,,['l'],0,[2.8657204898590862],2018_Jul_09_1421,60.3004023893,go-nogo,001,38,
logos/2.jpg,properties2.xlsx,logos/2.jpg,0,0,400,a,0,0,0,1,0,68,68,87,,,['a'],0,[0.05054582090997428],2018_Jul_09_1421,60.3004023893,go-nogo,001,38,
logos/2.jpg,properties2.xlsx,frogs/ab9.jpg,0,0,400,l,0,0,0,1,0,69,69,8,,,['l'],0,[1.3997045188589254],2018_Jul_09_1421,60.3004023893,go-nogo,001,38,
logos/2.jpg,properties2.xlsx,frogs/ab67.jpg,0,0,400,l,0,0,0,1,0,70,70,65,,,['l'],0,[1.3828841667273082],2018_Jul_09_1421,60.3004023893,go-nogo,001,38,
logos/2.jpg,properties2.xlsx,frogs/ab77.jpg,0,0,400,l,0,0,0,1,0,71,71,75,,,['l'],0,[0.18364147226202476],2018_Jul_09_1421,60.3004023893,go-nogo,001,38,
logos/2.jpg,properties2.xlsx,frogs/ab13.jpg,0,0,400,l,0,0,0,1,0,72,72,12,,,['l'],0,[0.33381006262970914],2018_Jul_09_1421,60.3004023893,go-nogo,001,38,
logos/2.jpg,properties2.xlsx,frogs/ab17.jpg,0,0,400,l,0,0,0,1,0,73,73,16,,,['l'],0,[0.6167426418414834],2018_Jul_09_1421,60.3004023893,go-nogo,001,38,
logos/2.jpg,properties2.xlsx,frogs/ab70.jpg,0,0,400,l,0,0,0,1,0,74,74,68,,,['l'],0,[0.3337742225976399],2018_Jul_09_1421,60.3004023893,go-nogo,001,38,
logos/2.jpg,properties2.xlsx,frogs/ab19.jpg,0,0,400,l,0,0,0,1,0,75,75,18,,,['l'],0,[0.40017783481926017],2018_Jul_09_1421,60.3004023893,go-nogo,001,38,
logos/2.jpg,properties2.xlsx,frogs/ab60.jpg,0,0,400,l,0,0,0,1,0,76,76,58,,,['l'],0,[0.31695102601952385],2018_Jul_09_1421,60.3004023893,go-nogo,001,38,
logos/2.jpg,properties2.xlsx,frogs/ab3.jpg,0,0,400,l,0,0,0,1,0,77,77,2,,,['l'],0,[0.3003684696468554],2018_Jul_09_1421,60.3004023893,go-nogo,001,38,
logos/2.jpg,properties2.xlsx,frogs/ab43.jpg,0,0,400,l,0,0,0,1,0,78,78,42,,,['l'],0,[0.26720563245908124],2018_Jul_09_1421,60.3004023893,go-nogo,001,38,
logos/2.jpg,properties2.xlsx,frogs/ab56.jpg,0,0,400,l,0,0,0,1,0,79,79,55,,,['l'],0,[0.23367415495886235],2018_Jul_09_1421,60.3004023893,go-nogo,001,38,
logos/2.jpg,properties2.xlsx,frogs/ab78.jpg,0,0,400,l,0,0,0,1,0,80,80,76,,,['l'],0,[0.16720853379592882],2018_Jul_09_1421,60.3004023893,go-nogo,001,38,
logos/2.jpg,properties2.xlsx,logos/2.jpg,0,0,400,a,0,0,0,1,0,81,81,80,,,['a'],0,[0.15045189727607067],2018_Jul_09_1421,60.3004023893,go-nogo,001,38,
logos/2.jpg,properties2.xlsx,frogs/ab27.jpg,0,0,400,l,0,0,0,1,0,82,82,26,,,['l'],0,[0.15031763938168297],2018_Jul_09_1421,60.3004023893,go-nogo,001,38,
logos/2.jpg,properties2.xlsx,logos/2.jpg,0,0,400,a,0,0,0,1,0,83,83,83,,,['a'],0,[0.5669972482810408],2018_Jul_09_1421,60.3004023893,go-nogo,001,38,
logos/2.jpg,properties2.xlsx,frogs/ab6.jpg,0,0,400,l,0,0,0,1,0,84,84,5,,,['l'],0,[1.5493303887615184],2018_Jul_09_1421,60.3004023893,go-nogo,001,38,
logos/2.jpg,properties2.xlsx,frogs/ab80.jpg,0,0,400,l,0,0,0,1,0,85,85,78,,,['l'],0,[0.033947335636185016],2018_Jul_09_1421,60.3004023893,go-nogo,001,38,
logos/2.jpg,properties2.xlsx,frogs/ab22.jpg,0,0,400,l,0,0,0,1,0,86,86,21,,,['l'],0,[0.3168429370398371],2018_Jul_09_1421,60.3004023893,go-nogo,001,38,
logos/2.jpg,properties2.xlsx,frogs/ab55.jpg,0,0,400,l,0,0,0,1,0,87,87,54,,,['l'],0,[0.25041315590897284],2018_Jul_09_1421,60.3004023893,go-nogo,001,38,
logos/2.jpg,properties2.xlsx,frogs/ab8.jpg,0,0,400,l,0,0,0,1,0,88,88,7,,,['l'],0,[0.2504541159432847],2018_Jul_09_1421,60.3004023893,go-nogo,001,38,
logos/2.jpg,properties2.xlsx,frogs/ab72.jpg,0,0,400,l,0,0,0,1,0,89,89,70,,,['l'],0,[0.33345905788519303],2018_Jul_09_1421,60.3004023893,go-nogo,001,38,
logos/2.jpg,properties2.xlsx,,,,,,0,0,0,1,,,,,,,,,,2018_Jul_09_1421,60.3004023893,go-nogo,001,38,
logos/4.jpg,properties4.xlsx,frogs/ab39.jpg,0,0,400,l,0,1,1,3,0,0,0,38,space,2.59720754962,['l'],0,[0.033905237820363254],2018_Jul_09_1421,60.3004023893,go-nogo,001,38,
logos/4.jpg,properties4.xlsx,frogs/ab73.jpg,0,0,400,l,0,1,1,3,0,1,1,71,,,['l'],0,[0.9999704177535023],2018_Jul_09_1421,60.3004023893,go-nogo,001,38,
logos/4.jpg,properties4.xlsx,frogs/ab54.jpg,0,0,400,l,0,1,1,3,0,2,2,53,,,['l'],0,[0.2502515913256502],2018_Jul_09_1421,60.3004023893,go-nogo,001,38,
logos/4.jpg,properties4.xlsx,frogs/ab37.jpg,0,0,400,l,0,1,1,3,0,3,3,36,,,['l'],0,[0.283771691041693],2018_Jul_09_1421,60.3004023893,go-nogo,001,38,
logos/4.jpg,properties4.xlsx,frogs/ab27.jpg,0,0,400,l,0,1,1,3,0,4,4,26,,,['l'],0,[0.3503198011603672],2018_Jul_09_1421,60.3004023893,go-nogo,001,38,
logos/4.jpg,properties4.xlsx,frogs/ab79.jpg,0,0,400,l,0,1,1,3,0,5,5,77,,,['l'],0,[0.30032068293985503],2018_Jul_09_1421,60.3004023893,go-nogo,001,38,
logos/4.jpg,properties4.xlsx,frogs/ab45.jpg,0,0,400,l,0,1,1,3,0,6,6,44,,,['l'],0,[0.33376284481164475],2018_Jul_09_1421,60.3004023893,go-nogo,001,38,
logos/4.jpg,properties4.xlsx,frogs/ab75.jpg,0,0,400,l,0,1,1,3,0,7,7,73,,,['l'],0,[0.3336581691655738],2018_Jul_09_1421,60.3004023893,go-nogo,001,38,
logos/4.jpg,properties4.xlsx,logos/4.jpg,0,0,400,a,0,1,1,3,0,8,8,84,,,['a'],0,[0.4005493195800227],2018_Jul_09_1421,60.3004023893,go-nogo,001,38,
logos/4.jpg,properties4.xlsx,frogs/ab70.jpg,0,0,400,l,0,1,1,3,0,9,9,68,,,['l'],0,[0.26701733007757866],2018_Jul_09_1421,60.3004023893,go-nogo,001,38,
logos/4.jpg,properties4.xlsx,frogs/ab60.jpg,0,0,400,l,0,1,1,3,0,10,10,58,,,['l'],0,[0.30033206072766916],2018_Jul_09_1421,60.3004023893,go-nogo,001,38,
logos/4.jpg,properties4.xlsx,frogs/ab44.jpg,0,0,400,l,0,1,1,3,0,11,11,43,,,['l'],0,[0.35039375678024953],2018_Jul_09_1421,60.3004023893,go-nogo,001,38,
logos/4.jpg,properties4.xlsx,frogs/ab17.jpg,0,0,400,l,0,1,1,3,0,12,12,16,,,['l'],0,[0.3503055789278733],2018_Jul_09_1421,60.3004023893,go-nogo,001,38,
logos/4.jpg,properties4.xlsx,frogs/ab47.jpg,0,0,400,l,0,1,1,3,0,13,13,46,,,['l'],0,[0.31705285721909604],2018_Jul_09_1421,60.3004023893,go-nogo,001,38,
logos/4.jpg,properties4.xlsx,frogs/ab35.jpg,0,0,400,l,0,1,1,3,0,14,14,34,,,['l'],0,[1.0330666948848375],2018_Jul_09_1421,60.3004023893,go-nogo,001,38,
logos/4.jpg,properties4.xlsx,frogs/ab80.jpg,0,0,400,l,0,1,1,3,0,15,15,78,,,['l'],0,[0.2500103822312667],2018_Jul_09_1421,60.3004023893,go-nogo,001,38,
logos/4.jpg,properties4.xlsx,frogs/ab56.jpg,0,0,400,l,0,1,1,3,0,16,16,55,,,['l'],0,[0.3338350937610812],2018_Jul_09_1421,60.3004023893,go-nogo,001,38,
logos/4.jpg,properties4.xlsx,frogs/ab57.jpg,0,0,400,l,0,1,1,3,0,17,17,56,,,['l'],0,[0.31700734606783953],2018_Jul_09_1421,60.3004023893,go-nogo,001,38,
logos/4.jpg,properties4.xlsx,frogs/ab26.jpg,0,0,400,l,0,1,1,3,0,18,18,25,,,['l'],0,[1.0665418523367407],2018_Jul_09_1421,60.3004023893,go-nogo,001,38,
logos/4.jpg,properties4.xlsx,frogs/ab48.jpg,0,0,400,l,0,1,1,3,0,19,19,47,,,['l'],0,[0.38369369630891015],2018_Jul_09_1421,60.3004023893,go-nogo,001,38,
logos/4.jpg,properties4.xlsx,frogs/ab4.jpg,0,0,400,l,0,1,1,3,0,20,20,3,,,['l'],0,[0.28375007324393664],2018_Jul_09_1421,60.3004023893,go-nogo,001,38,
logos/4.jpg,properties4.xlsx,frogs/ab13.jpg,0,0,400,l,0,1,1,3,0,21,21,12,,,['l'],0,[0.18363805892659002],2018_Jul_09_1421,60.3004023893,go-nogo,001,38,
logos/4.jpg,properties4.xlsx,frogs/ab50.jpg,0,0,400,l,0,1,1,3,0,22,22,49,,,['l'],0,[0.266934841116381],2018_Jul_09_1421,60.3004023893,go-nogo,001,38,
logos/4.jpg,properties4.xlsx,frogs/ab15.jpg,0,0,400,l,0,1,1,3,0,23,23,14,,,['l'],0,[0.25036878253740724],2018_Jul_09_1421,60.3004023893,go-nogo,001,38,
logos/4.jpg,properties4.xlsx,frogs/ab71.jpg,0,0,400,l,0,1,1,3,0,24,24,69,,,['l'],0,[0.2837182154380571],2018_Jul_09_1421,60.3004023893,go-nogo,001,38,
logos/4.jpg,properties4.xlsx,frogs/ab77.jpg,0,0,400,l,0,1,1,3,0,25,25,75,,,['l'],0,[0.23335159468297206],2018_Jul_09_1421,60.3004023893,go-nogo,001,38,
logos/4.jpg,properties4.xlsx,frogs/ab33.jpg,0,0,400,l,0,1,1,3,0,26,26,32,,,['l'],0,[0.21699943850580894],2018_Jul_09_1421,60.3004023893,go-nogo,001,38,
logos/4.jpg,properties4.xlsx,frogs/ab81.jpg,0,0,400,l,0,1,1,3,0,27,27,79,,,['l'],0,[0.3338288359773287],2018_Jul_09_1421,60.3004023893,go-nogo,001,38,
logos/4.jpg,properties4.xlsx,frogs/ab22.jpg,0,0,400,l,0,1,1,3,0,28,28,21,,,['l'],0,[0.3005249142261164],2018_Jul_09_1421,60.3004023893,go-nogo,001,38,
logos/4.jpg,properties4.xlsx,frogs/ab42.jpg,0,0,400,l,0,1,1,3,0,29,29,41,,,['l'],0,[0.8500510009325808],2018_Jul_09_1421,60.3004023893,go-nogo,001,38,
logos/4.jpg,properties4.xlsx,frogs/ab49.jpg,0,0,400,l,0,1,1,3,0,30,30,48,,,['l'],0,[0.30034798962878995],2018_Jul_09_1421,60.3004023893,go-nogo,001,38,
logos/4.jpg,properties4.xlsx,frogs/ab9.jpg,0,0,400,l,0,1,1,3,0,31,31,8,,,['l'],0,[0.4169765691531211],2018_Jul_09_1421,60.3004023893,go-nogo,001,38,
logos/4.jpg,properties4.xlsx,frogs/ab65.jpg,0,0,400,l,0,1,1,3,0,32,32,63,,,['l'],0,[0.5668965548611595],2018_Jul_09_1421,60.3004023893,go-nogo,001,38,
logos/4.jpg,properties4.xlsx,frogs/ab6.jpg,0,0,400,l,0,1,1,3,0,33,33,5,,,['l'],0,[0.23374355946180003],2018_Jul_09_1421,60.3004023893,go-nogo,001,38,
logos/4.jpg,properties4.xlsx,logos/4.jpg,0,0,400,a,0,1,1,3,0,34,34,89,,,['a'],0,[0.1338784431318345],2018_Jul_09_1421,60.3004023893,go-nogo,001,38,
logos/4.jpg,properties4.xlsx,frogs/ab67.jpg,0,0,400,l,0,1,1,3,0,35,35,65,,,['l'],0,[0.5003871292192343],2018_Jul_09_1421,60.3004023893,go-nogo,001,38,
logos/4.jpg,properties4.xlsx,frogs/ab7.jpg,0,0,400,l,0,1,1,3,0,36,36,6,,,['l'],0,[0.23371113276698452],2018_Jul_09_1421,60.3004023893,go-nogo,001,38,
logos/4.jpg,properties4.xlsx,frogs/ab2.jpg,0,0,400,l,0,1,1,3,0,37,37,1,,,['l'],0,[0.2837045620944991],2018_Jul_09_1421,60.3004023893,go-nogo,001,38,
logos/4.jpg,properties4.xlsx,logos/4.jpg,0,0,400,a,0,1,1,3,0,38,38,87,,,['a'],0,[0.15064304410407203],2018_Jul_09_1421,60.3004023893,go-nogo,001,38,
logos/4.jpg,properties4.xlsx,frogs/ab62.jpg,0,0,400,l,0,1,1,3,0,39,39,60,,,['l'],0,[0.1336696607304475],2018_Jul_09_1421,60.3004023893,go-nogo,001,38,
logos/4.jpg,properties4.xlsx,frogs/ab53.jpg,0,0,400,l,0,1,1,3,0,40,40,52,,,['l'],0,[0.48360773712192895],2018_Jul_09_1421,60.3004023893,go-nogo,001,38,
logos/4.jpg,properties4.xlsx,frogs/ab36.jpg,0,0,400,l,0,1,1,3,0,41,41,35,,,['l'],0,[0.26706853012183274],2018_Jul_09_1421,60.3004023893,go-nogo,001,38,
logos/4.jpg,properties4.xlsx,frogs/ab64.jpg,0,0,400,l,0,1,1,3,0,42,42,62,,,['l'],0,[0.550196807278553],2018_Jul_09_1421,60.3004023893,go-nogo,001,38,
logos/4.jpg,properties4.xlsx,frogs/ab14.jpg,0,0,400,l,0,1,1,3,0,43,43,13,,,['l'],0,[0.41732814278657315],2018_Jul_09_1421,60.3004023893,go-nogo,001,38,
logos/4.jpg,properties4.xlsx,frogs/ab66.jpg,0,0,400,l,0,1,1,3,0,44,44,64,,,['l'],0,[0.45017183303571073],2018_Jul_09_1421,60.3004023893,go-nogo,001,38,
logos/4.jpg,properties4.xlsx,logos/4.jpg,0,0,400,a,0,1,1,3,0,45,45,85,,,['a'],0,[0.31983927737383056],2018_Jul_09_1421,60.3004023893,go-nogo,001,38,
logos/4.jpg,properties4.xlsx,frogs/ab30.jpg,0,0,400,l,0,1,1,3,0,46,46,29,,,['l'],0,[0.2173419099090097],2018_Jul_09_1421,60.3004023893,go-nogo,001,38,
logos/4.jpg,properties4.xlsx,logos/4.jpg,0,0,400,a,0,1,1,3,0,47,47,88,,,['a'],0,[1.216762211637615],2018_Jul_09_1421,60.3004023893,go-nogo,001,38,
logos/4.jpg,properties4.xlsx,frogs/ab69.jpg,0,0,400,l,0,1,1,3,0,48,48,67,,,['l'],0,[0.5668584392751654],2018_Jul_09_1421,60.3004023893,go-nogo,001,38,
logos/4.jpg,properties4.xlsx,frogs/ab29.jpg,0,0,400,l,0,1,1,3,0,49,49,28,,,['l'],0,[0.5502423184279905],2018_Jul_09_1421,60.3004023893,go-nogo,001,38,
logos/4.jpg,properties4.xlsx,frogs/ab24.jpg,0,0,400,l,0,1,1,3,0,50,50,23,,,['l'],0,[1.1161780191396247],2018_Jul_09_1421,60.3004023893,go-nogo,001,38,
logos/4.jpg,properties4.xlsx,frogs/ab46.jpg,0,0,400,l,0,1,1,3,0,51,51,45,,,['l'],0,[0.28338200181860884],2018_Jul_09_1421,60.3004023893,go-nogo,001,38,
logos/4.jpg,properties4.xlsx,logos/4.jpg,0,0,400,a,0,1,1,3,0,52,52,82,,,['a'],0,[0.3337036803168303],2018_Jul_09_1421,60.3004023893,go-nogo,001,38,
logos/4.jpg,properties4.xlsx,frogs/ab43.jpg,0,0,400,l,0,1,1,3,0,53,53,42,,,['l'],0,[0.23364115937329188],2018_Jul_09_1421,60.3004023893,go-nogo,001,38,
logos/4.jpg,properties4.xlsx,frogs/ab28.jpg,0,0,400,l,0,1,1,3,0,54,54,27,,,['l'],0,[0.3002802917944791],2018_Jul_09_1421,60.3004023893,go-nogo,001,38,
logos/4.jpg,properties4.xlsx,frogs/ab78.jpg,0,0,400,l,0,1,1,3,0,55,55,76,,,['l'],0,[0.26709299236426887],2018_Jul_09_1421,60.3004023893,go-nogo,001,38,
logos/4.jpg,properties4.xlsx,frogs/ab31.jpg,0,0,400,l,0,1,1,3,0,56,56,30,,,['l'],0,[0.3004464074929274],2018_Jul_09_1421,60.3004023893,go-nogo,001,38,
logos/4.jpg,properties4.xlsx,frogs/ab52.jpg,0,0,400,l,0,1,1,3,0,57,57,51,,,['l'],0,[0.31707106167777965],2018_Jul_09_1421,60.3004023893,go-nogo,001,38,
logos/4.jpg,properties4.xlsx,frogs/ab8.jpg,0,0,400,l,0,1,1,3,0,58,58,7,,,['l'],0,[0.30020178506129014],2018_Jul_09_1421,60.3004023893,go-nogo,001,38,
logos/4.jpg,properties4.xlsx,logos/4.jpg,0,0,400,a,0,1,1,3,0,59,59,81,,,['a'],0,[0.05053614979078702],2018_Jul_09_1421,60.3004023893,go-nogo,001,38,
logos/4.jpg,properties4.xlsx,frogs/ab3.jpg,0,0,400,l,0,1,1,3,0,60,60,2,,,['l'],0,[1.499659519709894],2018_Jul_09_1421,60.3004023893,go-nogo,001,38,
logos/4.jpg,properties4.xlsx,frogs/ab74.jpg,0,0,400,l,0,1,1,3,0,61,61,72,,,['l'],0,[0.25043648037171806],2018_Jul_09_1421,60.3004023893,go-nogo,001,38,
logos/4.jpg,properties4.xlsx,frogs/ab63.jpg,0,0,400,l,0,1,1,3,0,62,62,61,,,['l'],0,[1.283156721627165],2018_Jul_09_1421,60.3004023893,go-nogo,001,38,
logos/4.jpg,properties4.xlsx,frogs/ab76.jpg,0,0,400,l,0,1,1,3,0,63,63,74,,,['l'],0,[0.6002590722200694],2018_Jul_09_1421,60.3004023893,go-nogo,001,38,
logos/4.jpg,properties4.xlsx,frogs/ab12.jpg,0,0,400,l,0,1,1,3,0,64,64,11,,,['l'],0,[0.44993915728082357],2018_Jul_09_1421,60.3004023893,go-nogo,001,38,
logos/4.jpg,properties4.xlsx,frogs/ab41.jpg,0,0,400,l,0,1,1,3,0,65,65,40,,,['l'],0,[0.4169088713169913],2018_Jul_09_1421,60.3004023893,go-nogo,001,38,
logos/4.jpg,properties4.xlsx,frogs/ab1.jpg,0,0,400,l,0,1,1,3,0,66,66,0,,,['l'],0,[0.6005531880273338],2018_Jul_09_1421,60.3004023893,go-nogo,001,38,
logos/4.jpg,properties4.xlsx,frogs/ab34.jpg,0,0,400,l,0,1,1,3,0,67,67,33,,,['l'],0,[0.6168029441159888],2018_Jul_09_1421,60.3004023893,go-nogo,001,38,
logos/4.jpg,properties4.xlsx,frogs/ab10.jpg,0,0,400,l,0,1,1,3,0,68,68,9,,,['l'],0,[0.5501831539331761],2018_Jul_09_1421,60.3004023893,go-nogo,001,38,
logos/4.jpg,properties4.xlsx,frogs/ab51.jpg,0,0,400,l,0,1,1,3,0,69,69,50,,,['l'],0,[1.0332970950803428],2018_Jul_09_1421,60.3004023893,go-nogo,001,38,
logos/4.jpg,properties4.xlsx,logos/4.jpg,0,0,400,a,0,1,1,3,0,70,70,80,,,['a'],0,[0.3836641140605934],2018_Jul_09_1421,60.3004023893,go-nogo,001,38,
logos/4.jpg,properties4.xlsx,frogs/ab18.jpg,0,0,400,l,0,1,1,3,0,71,71,17,,,['l'],0,[0.7001167929884105],2018_Jul_09_1421,60.3004023893,go-nogo,001,38,
logos/4.jpg,properties4.xlsx,frogs/ab55.jpg,0,0,400,l,0,1,1,3,0,72,72,54,,,['l'],0,[0.3170249816394062],2018_Jul_09_1421,60.3004023893,go-nogo,001,38,
logos/4.jpg,properties4.xlsx,frogs/ab5.jpg,0,0,400,l,0,1,1,3,0,73,73,4,,,['l'],0,[0.31687251928633486],2018_Jul_09_1421,60.3004023893,go-nogo,001,38,
logos/4.jpg,properties4.xlsx,frogs/ab21.jpg,0,0,400,l,0,1,1,3,0,74,74,20,,,['l'],0,[0.916716302264831],2018_Jul_09_1421,60.3004023893,go-nogo,001,38,
logos/4.jpg,properties4.xlsx,frogs/ab32.jpg,0,0,400,l,0,1,1,3,0,75,75,31,,,['l'],0,[0.5167865032144618],2018_Jul_09_1421,60.3004023893,go-nogo,001,38,
logos/4.jpg,properties4.xlsx,frogs/ab19.jpg,0,0,400,l,0,1,1,3,0,76,76,18,,,['l'],0,[0.28375121102362755],2018_Jul_09_1421,60.3004023893,go-nogo,001,38,
logos/4.jpg,properties4.xlsx,frogs/ab68.jpg,0,0,400,l,0,1,1,3,0,77,77,66,,,['l'],0,[0.5835872002171527],2018_Jul_09_1421,60.3004023893,go-nogo,001,38,
logos/4.jpg,properties4.xlsx,frogs/ab23.jpg,0,0,400,l,0,1,1,3,0,78,78,22,,,['l'],0,[0.4002546348838223],2018_Jul_09_1421,60.3004023893,go-nogo,001,38,
logos/4.jpg,properties4.xlsx,logos/4.jpg,0,0,400,a,0,1,1,3,0,79,79,83,,,['a'],0,[0.7001065529784682],2018_Jul_09_1421,60.3004023893,go-nogo,001,38,
logos/4.jpg,properties4.xlsx,frogs/ab38.jpg,0,0,400,l,0,1,1,3,0,80,80,37,,,['l'],0,[0.5659960029825015],2018_Jul_09_1421,60.3004023893,go-nogo,001,38,
logos/4.jpg,properties4.xlsx,frogs/ab72.jpg,0,0,400,l,0,1,1,3,0,81,81,70,,,['l'],0,[0.3334243556346337],2018_Jul_09_1421,60.3004023893,go-nogo,001,38,
logos/4.jpg,properties4.xlsx,frogs/ab16.jpg,0,0,400,l,0,1,1,3,0,82,82,15,,,['l'],0,[0.35057750804844545],2018_Jul_09_1421,60.3004023893,go-nogo,001,38,
logos/4.jpg,properties4.xlsx,frogs/ab40.jpg,0,0,400,l,0,1,1,3,0,83,83,39,,,['l'],0,[0.38339616716439195],2018_Jul_09_1421,60.3004023893,go-nogo,001,38,
logos/4.jpg,properties4.xlsx,logos/4.jpg,0,0,400,a,0,1,1,3,0,84,84,86,,,['a'],0,[0.33380096039945784],2018_Jul_09_1421,60.3004023893,go-nogo,001,38,
logos/4.jpg,properties4.xlsx,frogs/ab61.jpg,0,0,400,l,0,1,1,3,0,85,85,59,,,['l'],0,[0.36700817095879756],2018_Jul_09_1421,60.3004023893,go-nogo,001,38,
logos/4.jpg,properties4.xlsx,frogs/ab25.jpg,0,0,400,l,0,1,1,3,0,86,86,24,,,['l'],0,[0.3670457176558557],2018_Jul_09_1421,60.3004023893,go-nogo,001,38,
logos/4.jpg,properties4.xlsx,frogs/ab20.jpg,0,0,400,l,0,1,1,3,0,87,87,19,,,['l'],0,[0.18385196133203863],2018_Jul_09_1421,60.3004023893,go-nogo,001,38,
logos/4.jpg,properties4.xlsx,frogs/ab11.jpg,0,0,400,l,0,1,1,3,0,88,88,10,,,['l'],0,[0.38360494956577895],2018_Jul_09_1421,60.3004023893,go-nogo,001,38,
logos/4.jpg,properties4.xlsx,frogs/ab58.jpg,0,0,400,l,0,1,1,3,0,89,89,57,,,['l'],0,[0.3002677762269741],2018_Jul_09_1421,60.3004023893,go-nogo,001,38,
logos/4.jpg,properties4.xlsx,,,,,,0,1,1,3,,,,,,,,,,2018_Jul_09_1421,60.3004023893,go-nogo,001,38,
logos/3.jpg,properties3.xlsx,frogs/ab66.jpg,0,0,400,l,0,2,2,2,0,0,0,64,space,1.49720589984,['l'],0,[0.8668093441210658],2018_Jul_09_1421,60.3004023893,go-nogo,001,38,
logos/3.jpg,properties3.xlsx,frogs/ab27.jpg,0,0,400,l,0,2,2,2,0,1,1,26,,,['l'],0,[0.18394412141060457],2018_Jul_09_1421,60.3004023893,go-nogo,001,38,
logos/3.jpg,properties3.xlsx,frogs/ab25.jpg,0,0,400,l,0,2,2,2,0,2,2,24,,,['l'],0,[0.9832877368498885],2018_Jul_09_1421,60.3004023893,go-nogo,001,38,
logos/3.jpg,properties3.xlsx,frogs/ab20.jpg,0,0,400,l,0,2,2,2,0,3,3,19,,,['l'],0,[0.26707365012589435],2018_Jul_09_1421,60.3004023893,go-nogo,001,38,
logos/3.jpg,properties3.xlsx,frogs/ab14.jpg,0,0,400,l,0,2,2,2,0,4,4,13,,,['l'],0,[0.3503539345238096],2018_Jul_09_1421,60.3004023893,go-nogo,001,38,
logos/3.jpg,properties3.xlsx,frogs/ab65.jpg,0,0,400,l,0,2,2,2,0,5,5,63,,,['l'],0,[0.2836106953473063],2018_Jul_09_1421,60.3004023893,go-nogo,001,38,
logos/3.jpg,properties3.xlsx,frogs/ab41.jpg,0,0,400,l,0,2,2,2,0,6,6,40,,,['l'],0,[0.33376056925226294],2018_Jul_09_1421,60.3004023893,go-nogo,001,38,
logos/3.jpg,properties3.xlsx,frogs/ab30.jpg,0,0,400,l,0,2,2,2,0,7,7,29,,,['l'],0,[0.2837085443206888],2018_Jul_09_1421,60.3004023893,go-nogo,001,38,
logos/3.jpg,properties3.xlsx,frogs/ab7.jpg,0,0,400,l,0,2,2,2,0,8,8,6,,,['l'],0,[0.3336502047150134],2018_Jul_09_1421,60.3004023893,go-nogo,001,38,
logos/3.jpg,properties3.xlsx,frogs/ab3.jpg,0,0,400,l,0,2,2,2,0,9,9,2,,,['l'],0,[0.41670577781042084],2018_Jul_09_1421,60.3004023893,go-nogo,001,38,
logos/3.jpg,properties3.xlsx,logos/3.jpg,0,0,400,a,0,2,2,2,0,10,10,80,,,['a'],0,[0.3337764981570217],2018_Jul_09_1421,60.3004023893,go-nogo,001,38,
logos/3.jpg,properties3.xlsx,logos/3.jpg,0,0,400,a,0,2,2,2,0,11,11,82,,,['a'],0,[0.05057540315829101],2018_Jul_09_1421,60.3004023893,go-nogo,001,38,
logos/3.jpg,properties3.xlsx,logos/3.jpg,0,0,400,a,0,2,2,2,0,12,12,84,,,['a'],0,[0.11720315779166413],2018_Jul_09_1421,60.3004023893,go-nogo,001,38,
logos/3.jpg,properties3.xlsx,frogs/ab55.jpg,0,0,400,l,0,2,2,2,0,13,13,54,,,['l'],0,[0.5835229157182766],2018_Jul_09_1421,60.3004023893,go-nogo,001,38,
logos/3.jpg,properties3.xlsx,logos/3.jpg,0,0,400,a,0,2,2,2,0,14,14,85,,,['a'],0,[0.8332477154835942],2018_Jul_09_1421,60.3004023893,go-nogo,001,38,
logos/3.jpg,properties3.xlsx,frogs/ab61.jpg,0,0,400,l,0,2,2,2,0,15,15,59,,,['l'],0,[1.0670322349778871],2018_Jul_09_1421,60.3004023893,go-nogo,001,38,
logos/3.jpg,properties3.xlsx,frogs/ab58.jpg,0,0,400,l,0,2,2,2,0,16,16,57,,,['l'],0,[0.8001633850271901],2018_Jul_09_1421,60.3004023893,go-nogo,001,38,
logos/3.jpg,properties3.xlsx,frogs/ab77.jpg,0,0,400,l,0,2,2,2,0,17,17,75,,,['l'],0,[0.8498251518503821],2018_Jul_09_1421,60.3004023893,go-nogo,001,38,
logos/3.jpg,properties3.xlsx,frogs/ab64.jpg,0,0,400,l,0,2,2,2,0,18,18,62,,,['l'],0,[0.4665757581442449],2018_Jul_09_1421,60.3004023893,go-nogo,001,38,
logos/3.jpg,properties3.xlsx,frogs/ab26.jpg,0,0,400,l,0,2,2,2,0,19,19,25,,,['l'],0,[1.2665633563556185],2018_Jul_09_1421,60.3004023893,go-nogo,001,38,
logos/3.jpg,properties3.xlsx,frogs/ab13.jpg,0,0,400,l,0,2,2,2,0,20,20,12,,,['l'],0,[2.7656608133638656],2018_Jul_09_1421,60.3004023893,go-nogo,001,38,
logos/3.jpg,properties3.xlsx,frogs/ab68.jpg,0,0,400,l,0,2,2,2,0,21,21,66,,,['l'],0,[1.0332601172704017],2018_Jul_09_1421,60.3004023893,go-nogo,001,38,
logos/3.jpg,properties3.xlsx,frogs/ab40.jpg,0,0,400,l,0,2,2,2,0,22,22,39,,,['l'],0,[0.8167419591754879],2018_Jul_09_1421,60.3004023893,go-nogo,001,38,
logos/3.jpg,properties3.xlsx,frogs/ab73.jpg,0,0,400,l,0,2,2,2,0,23,23,71,,,['l'],0,[0.3003548163032974],2018_Jul_09_1421,60.3004023893,go-nogo,001,38,
logos/3.jpg,properties3.xlsx,frogs/ab75.jpg,0,0,400,l,0,2,2,2,0,24,24,73,,,['l'],0,[0.500182329045856],2018_Jul_09_1421,60.3004023893,go-nogo,001,38,
logos/3.jpg,properties3.xlsx,frogs/ab38.jpg,0,0,400,l,0,2,2,2,0,25,25,37,,,['l'],0,[0.4503208820515283],2018_Jul_09_1421,60.3004023893,go-nogo,001,38,
logos/3.jpg,properties3.xlsx,frogs/ab23.jpg,0,0,400,l,0,2,2,2,0,26,26,22,,,['l'],0,[1.0166593564390496],2018_Jul_09_1421,60.3004023893,go-nogo,001,38,
logos/3.jpg,properties3.xlsx,frogs/ab47.jpg,0,0,400,l,0,2,2,2,0,27,27,46,,,['l'],0,[1.4496353703561908],2018_Jul_09_1421,60.3004023893,go-nogo,001,38,
logos/3.jpg,properties3.xlsx,frogs/ab31.jpg,0,0,400,l,0,2,2,2,0,28,28,30,,,['l'],0,[1.2665508407917514],2018_Jul_09_1421,60.3004023893,go-nogo,001,38,
logos/3.jpg,properties3.xlsx,frogs/ab45.jpg,0,0,400,l,0,2,2,2,0,29,29,44,,,['l'],0,[0.8499685119732021],2018_Jul_09_1421,60.3004023893,go-nogo,001,38,
logos/3.jpg,properties3.xlsx,frogs/ab70.jpg,0,0,400,l,0,2,2,2,0,30,30,68,,,['l'],0,[0.6832486541497929],2018_Jul_09_1421,60.3004023893,go-nogo,001,38,
logos/3.jpg,properties3.xlsx,frogs/ab63.jpg,0,0,400,l,0,2,2,2,0,31,31,61,,,['l'],0,[0.6334822116823489],2018_Jul_09_1421,60.3004023893,go-nogo,001,38,
logos/3.jpg,properties3.xlsx,frogs/ab29.jpg,0,0,400,l,0,2,2,2,0,32,32,28,,,['l'],0,[0.6001612232485058],2018_Jul_09_1421,60.3004023893,go-nogo,001,38,
logos/3.jpg,properties3.xlsx,frogs/ab72.jpg,0,0,400,l,0,2,2,2,0,33,33,70,,,['l'],0,[0.31686341705608356],2018_Jul_09_1421,60.3004023893,go-nogo,001,38,
logos/3.jpg,properties3.xlsx,frogs/ab52.jpg,0,0,400,l,0,2,2,2,0,34,34,51,,,['l'],0,[0.4003263149461418],2018_Jul_09_1421,60.3004023893,go-nogo,001,38,
logos/3.jpg,properties3.xlsx,frogs/ab4.jpg,0,0,400,l,0,2,2,2,0,35,35,3,,,['l'],0,[0.3670127220739232],2018_Jul_09_1421,60.3004023893,go-nogo,001,38,
logos/3.jpg,properties3.xlsx,logos/3.jpg,0,0,400,a,0,2,2,2,0,36,36,89,,,['a'],0,[0.2836254864705552],2018_Jul_09_1421,60.3004023893,go-nogo,001,38,
logos/3.jpg,properties3.xlsx,frogs/ab8.jpg,0,0,400,l,0,2,2,2,0,37,37,7,,,['l'],0,[0.13376409636657627],2018_Jul_09_1421,60.3004023893,go-nogo,001,38,
logos/3.jpg,properties3.xlsx,frogs/ab12.jpg,0,0,400,l,0,2,2,2,0,38,38,11,,,['l'],0,[0.38363510070121265],2018_Jul_09_1421,60.3004023893,go-nogo,001,38,
logos/3.jpg,properties3.xlsx,frogs/ab17.jpg,0,0,400,l,0,2,2,2,0,39,39,16,,,['l'],0,[0.2503409069577174],2018_Jul_09_1421,60.3004023893,go-nogo,001,38,
logos/3.jpg,properties3.xlsx,logos/3.jpg,0,0,400,a,0,2,2,2,0,40,40,81,,,['a'],0,[0.45025261532646255],2018_Jul_09_1421,60.3004023893,go-nogo,001,38,
logos/3.jpg,properties3.xlsx,frogs/ab37.jpg,0,0,400,l,0,2,2,2,0,41,41,36,,,['l'],0,[0.9666488604289043],2018_Jul_09_1421,60.3004023893,go-nogo,001,38,
logos/3.jpg,properties3.xlsx,frogs/ab39.jpg,0,0,400,l,0,2,2,2,0,42,42,38,,,['l'],0,[0.2837244732236286],2018_Jul_09_1421,60.3004023893,go-nogo,001,38,
logos/3.jpg,properties3.xlsx,frogs/ab79.jpg,0,0,400,l,0,2,2,2,0,43,43,77,,,['l'],0,[0.5501501583494246],2018_Jul_09_1421,60.3004023893,go-nogo,001,38,
logos/3.jpg,properties3.xlsx,frogs/ab50.jpg,0,0,400,l,0,2,2,2,0,44,44,49,,,['l'],0,[0.7331749545319326],2018_Jul_09_1421,60.3004023893,go-nogo,001,38,
logos/3.jpg,properties3.xlsx,logos/3.jpg,0,0,400,a,0,2,2,2,0,45,45,88,,,['a'],0,[0.3670707487890468],2018_Jul_09_1421,60.3004023893,go-nogo,001,38,
logos/3.jpg,properties3.xlsx,frogs/ab24.jpg,0,0,400,l,0,2,2,2,0,46,46,23,,,['l'],0,[0.45026569978290354],2018_Jul_09_1421,60.3004023893,go-nogo,001,38,
logos/3.jpg,properties3.xlsx,frogs/ab76.jpg,0,0,400,l,0,2,2,2,0,47,47,74,,,['l'],0,[0.5169395344546501],2018_Jul_09_1421,60.3004023893,go-nogo,001,38,
logos/3.jpg,properties3.xlsx,logos/3.jpg,0,0,400,a,0,2,2,2,0,48,48,86,,,['a'],0,[0.4002739771221968],2018_Jul_09_1421,60.3004023893,go-nogo,001,38,
logos/3.jpg,properties3.xlsx,frogs/ab10.jpg,0,0,400,l,0,2,2,2,0,49,49,9,,,['l'],0,[0.5001772090399754],2018_Jul_09_1421,60.3004023893,go-nogo,001,38,
logos/3.jpg,properties3.xlsx,frogs/ab21.jpg,0,0,400,l,0,2,2,2,0,50,50,20,,,['l'],0,[0.48366747050749836],2018_Jul_09_1421,60.3004023893,go-nogo,001,38,
logos/3.jpg,properties3.xlsx,frogs/ab48.jpg,0,0,400,l,0,2,2,2,0,51,51,47,,,['l'],0,[0.3836527362727793],2018_Jul_09_1421,60.3004023893,go-nogo,001,38,
logos/3.jpg,properties3.xlsx,frogs/ab6.jpg,0,0,400,l,0,2,2,2,0,52,52,5,,,['l'],0,[0.3836538740506512],2018_Jul_09_1421,60.3004023893,go-nogo,001,38,
logos/3.jpg,properties3.xlsx,frogs/ab43.jpg,0,0,400,l,0,2,2,2,0,53,53,42,,,['l'],0,[0.3169948305021535],2018_Jul_09_1421,60.3004023893,go-nogo,001,38,
logos/3.jpg,properties3.xlsx,frogs/ab67.jpg,0,0,400,l,0,2,2,2,0,54,54,65,,,['l'],0,[0.28357485531705606],2018_Jul_09_1421,60.3004023893,go-nogo,001,38,
logos/3.jpg,properties3.xlsx,frogs/ab60.jpg,0,0,400,l,0,2,2,2,0,55,55,58,,,['l'],0,[0.6498707767786982],2018_Jul_09_1421,60.3004023893,go-nogo,001,38,
logos/3.jpg,properties3.xlsx,frogs/ab19.jpg,0,0,400,l,0,2,2,2,0,56,56,18,,,['l'],0,[0.9167475911799556],2018_Jul_09_1421,60.3004023893,go-nogo,001,38,
logos/3.jpg,properties3.xlsx,frogs/ab36.jpg,0,0,400,l,0,2,2,2,0,57,57,35,,,['l'],0,[0.26710380126132804],2018_Jul_09_1421,60.3004023893,go-nogo,001,38,
logos/3.jpg,properties3.xlsx,logos/3.jpg,0,0,400,a,0,2,2,2,0,58,58,87,,,['a'],0,[0.16720170712324034],2018_Jul_09_1421,60.3004023893,go-nogo,001,38,
logos/3.jpg,properties3.xlsx,frogs/ab28.jpg,0,0,400,l,0,2,2,2,0,59,59,27,,,['l'],0,[0.5835872002171527],2018_Jul_09_1421,60.3004023893,go-nogo,001,38,
logos/3.jpg,properties3.xlsx,frogs/ab57.jpg,0,0,400,l,0,2,2,2,0,60,60,56,,,['l'],0,[0.6502456748767145],2018_Jul_09_1421,60.3004023893,go-nogo,001,38,
logos/3.jpg,properties3.xlsx,frogs/ab16.jpg,0,0,400,l,0,2,2,2,0,61,61,15,,,['l'],0,[0.4835610881946195],2018_Jul_09_1421,60.3004023893,go-nogo,001,38,
logos/3.jpg,properties3.xlsx,frogs/ab15.jpg,0,0,400,l,0,2,2,2,0,62,62,14,,,['l'],0,[0.4169839647165645],2018_Jul_09_1421,60.3004023893,go-nogo,001,38,
logos/3.jpg,properties3.xlsx,frogs/ab81.jpg,0,0,400,l,0,2,2,2,0,63,63,79,,,['l'],0,[0.3002387628694123],2018_Jul_09_1421,60.3004023893,go-nogo,001,38,
logos/3.jpg,properties3.xlsx,frogs/ab49.jpg,0,0,400,l,0,2,2,2,0,64,64,48,,,['l'],0,[0.36697858871048084],2018_Jul_09_1421,60.3004023893,go-nogo,001,38,
logos/3.jpg,properties3.xlsx,frogs/ab32.jpg,0,0,400,l,0,2,2,2,0,65,65,31,,,['l'],0,[0.4002125370698195],2018_Jul_09_1421,60.3004023893,go-nogo,001,38,
logos/3.jpg,properties3.xlsx,frogs/ab62.jpg,0,0,400,l,0,2,2,2,0,66,66,60,,,['l'],0,[0.5502844162419933],2018_Jul_09_1421,60.3004023893,go-nogo,001,38,
logos/3.jpg,properties3.xlsx,frogs/ab33.jpg,0,0,400,l,0,2,2,2,0,67,67,32,,,['l'],0,[0.866780330763504],2018_Jul_09_1421,60.3004023893,go-nogo,001,38,
logos/3.jpg,properties3.xlsx,frogs/ab2.jpg,0,0,400,l,0,2,2,2,0,68,68,1,,,['l'],0,[1.0500719360625226],2018_Jul_09_1421,60.3004023893,go-nogo,001,38,
logos/3.jpg,properties3.xlsx,frogs/ab53.jpg,0,0,400,l,0,2,2,2,0,69,69,52,,,['l'],0,[0.31677751476127014],2018_Jul_09_1421,60.3004023893,go-nogo,001,38,
logos/3.jpg,properties3.xlsx,frogs/ab56.jpg,0,0,400,l,0,2,2,2,0,70,70,55,,,['l'],0,[0.6334423894259089],2018_Jul_09_1421,60.3004023893,go-nogo,001,38,
logos/3.jpg,properties3.xlsx,frogs/ab71.jpg,0,0,400,l,0,2,2,2,0,71,71,69,,,['l'],0,[0.6002715877857554],2018_Jul_09_1421,60.3004023893,go-nogo,001,38,
logos/3.jpg,properties3.xlsx,frogs/ab34.jpg,0,0,400,l,0,2,2,2,0,72,72,33,,,['l'],0,[0.4166056532812945],2018_Jul_09_1421,60.3004023893,go-nogo,001,38,
logos/3.jpg,properties3.xlsx,frogs/ab11.jpg,0,0,400,l,0,2,2,2,0,73,73,10,,,['l'],0,[0.35029533891975007],2018_Jul_09_1421,60.3004023893,go-nogo,001,38,
logos/3.jpg,properties3.xlsx,frogs/ab46.jpg,0,0,400,l,0,2,2,2,0,74,74,45,,,['l'],0,[0.6168558508288697],2018_Jul_09_1421,60.3004023893,go-nogo,001,38,
logos/3.jpg,properties3.xlsx,frogs/ab9.jpg,0,0,400,l,0,2,2,2,0,75,75,8,,,['l'],0,[0.36693137089241645],2018_Jul_09_1421,60.3004023893,go-nogo,001,38,
logos/3.jpg,properties3.xlsx,frogs/ab51.jpg,0,0,400,l,0,2,2,2,0,76,76,50,,,['l'],0,[0.6001390365636325],2018_Jul_09_1421,60.3004023893,go-nogo,001,38,
logos/3.jpg,properties3.xlsx,frogs/ab35.jpg,0,0,400,l,0,2,2,2,0,77,77,34,,,['l'],0,[0.5170032500645902],2018_Jul_09_1421,60.3004023893,go-nogo,001,38,
logos/3.jpg,properties3.xlsx,logos/3.jpg,0,0,400,a,0,2,2,2,0,78,78,83,,,['a'],0,[0.7668264676904073],2018_Jul_09_1421,60.3004023893,go-nogo,001,38,
logos/3.jpg,properties3.xlsx,frogs/ab42.jpg,0,0,400,l,0,2,2,2,0,79,79,41,,,['l'],0,[0.15037395942999865],2018_Jul_09_1421,60.3004023893,go-nogo,001,38,
logos/3.jpg,properties3.xlsx,frogs/ab78.jpg,0,0,400,l,0,2,2,2,0,80,80,76,,,['l'],0,[0.5668464925984154],2018_Jul_09_1421,60.3004023893,go-nogo,001,38,
logos/3.jpg,properties3.xlsx,frogs/ab22.jpg,0,0,400,l,0,2,2,2,0,81,81,21,,,['l'],0,[0.31695728380327637],2018_Jul_09_1421,60.3004023893,go-nogo,001,38,
logos/3.jpg,properties3.xlsx,frogs/ab74.jpg,0,0,400,l,0,2,2,2,0,82,82,72,,,['l'],0,[1.1499086079220433],2018_Jul_09_1421,60.3004023893,go-nogo,001,38,
logos/3.jpg,properties3.xlsx,frogs/ab5.jpg,0,0,400,l,0,2,2,2,0,83,83,4,,,['l'],0,[1.1001296498870943],2018_Jul_09_1421,60.3004023893,go-nogo,001,38,
logos/3.jpg,properties3.xlsx,frogs/ab54.jpg,0,0,400,l,0,2,2,2,0,84,84,53,,,['l'],0,[0.8168375325894885],2018_Jul_09_1421,60.3004023893,go-nogo,001,38,
logos/3.jpg,properties3.xlsx,frogs/ab44.jpg,0,0,400,l,0,2,2,2,0,85,85,43,,,['l'],0,[0.6168734863986174],2018_Jul_09_1421,60.3004023893,go-nogo,001,38,
logos/3.jpg,properties3.xlsx,frogs/ab1.jpg,0,0,400,l,0,2,2,2,0,86,86,0,,,['l'],0,[0.4670166474097641],2018_Jul_09_1421,60.3004023893,go-nogo,001,38,
logos/3.jpg,properties3.xlsx,frogs/ab69.jpg,0,0,400,l,0,2,2,2,0,87,87,67,,,['l'],0,[0.5168143787923327],2018_Jul_09_1421,60.3004023893,go-nogo,001,38,
logos/3.jpg,properties3.xlsx,frogs/ab80.jpg,0,0,400,l,0,2,2,2,0,88,88,78,,,['l'],0,[0.4501826419345889],2018_Jul_09_1421,60.3004023893,go-nogo,001,38,
logos/3.jpg,properties3.xlsx,frogs/ab18.jpg,0,0,400,l,0,2,2,2,0,89,89,17,,,['l'],0,[0.7666375964199688],2018_Jul_09_1421,60.3004023893,go-nogo,001,38,
logos/3.jpg,properties3.xlsx,,,,,,0,2,2,2,,,,,,,,,,2018_Jul_09_1421,60.3004023893,go-nogo,001,38,
logos/1.jpg,properties1.xlsx,logos/1.jpg,0,0,400,a,0,3,3,0,0,0,0,82,space,1.33497173473,['a'],0,[0.20037705987670051],2018_Jul_09_1421,60.3004023893,go-nogo,001,38,
logos/1.jpg,properties1.xlsx,frogs/ab27.jpg,0,0,400,l,0,3,3,0,0,1,1,26,,,['l'],0,[0.3170995061464055],2018_Jul_09_1421,60.3004023893,go-nogo,001,38,
logos/1.jpg,properties1.xlsx,frogs/ab43.jpg,0,0,400,l,0,3,3,0,0,2,2,42,,,['l'],0,[1.1673211738907412],2018_Jul_09_1421,60.3004023893,go-nogo,001,38,
logos/1.jpg,properties1.xlsx,frogs/ab53.jpg,0,0,400,l,0,3,3,0,0,3,3,52,,,['l'],0,[0.2833393351156701],2018_Jul_09_1421,60.3004023893,go-nogo,001,38,
logos/1.jpg,properties1.xlsx,frogs/ab7.jpg,0,0,400,l,0,3,3,0,0,4,4,6,,,['l'],0,[0.33361834690913383],2018_Jul_09_1421,60.3004023893,go-nogo,001,38,
logos/1.jpg,properties1.xlsx,frogs/ab65.jpg,0,0,400,l,0,3,3,0,0,5,5,63,,,['l'],0,[0.3669922420558578],2018_Jul_09_1421,60.3004023893,go-nogo,001,38,
logos/1.jpg,properties1.xlsx,frogs/ab13.jpg,0,0,400,l,0,3,3,0,0,6,6,12,,,['l'],0,[0.2836055753432447],2018_Jul_09_1421,60.3004023893,go-nogo,001,38,
logos/1.jpg,properties1.xlsx,frogs/ab35.jpg,0,0,400,l,0,3,3,0,0,7,7,34,,,['l'],0,[0.3003627807538578],2018_Jul_09_1421,60.3004023893,go-nogo,001,38,
logos/1.jpg,properties1.xlsx,frogs/ab67.jpg,0,0,400,l,0,3,3,0,0,8,8,65,,,['l'],0,[0.4503026775910257],2018_Jul_09_1421,60.3004023893,go-nogo,001,38,
logos/1.jpg,properties1.xlsx,logos/1.jpg,0,0,400,a,0,3,3,0,0,9,9,87,,,['a'],0,[0.3502521033260564],2018_Jul_09_1421,60.3004023893,go-nogo,001,38,
logos/1.jpg,properties1.xlsx,frogs/ab16.jpg,0,0,400,l,0,3,3,0,0,10,10,15,,,['l'],0,[0.23351884815929225],2018_Jul_09_1421,60.3004023893,go-nogo,001,38,
logos/1.jpg,properties1.xlsx,frogs/ab23.jpg,0,0,400,l,0,3,3,0,0,11,11,22,,,['l'],0,[0.8834095360653009],2018_Jul_09_1421,60.3004023893,go-nogo,001,38,
logos/1.jpg,properties1.xlsx,frogs/ab36.jpg,0,0,400,l,0,3,3,0,0,12,12,35,,,['l'],0,[0.8168915770802414],2018_Jul_09_1421,60.3004023893,go-nogo,001,38,
logos/1.jpg,properties1.xlsx,frogs/ab38.jpg,0,0,400,l,0,3,3,0,0,13,13,37,,,['l'],0,[0.9331902007670578],2018_Jul_09_1421,60.3004023893,go-nogo,001,38,
logos/1.jpg,properties1.xlsx,frogs/ab18.jpg,0,0,400,l,0,3,3,0,0,14,14,17,,,['l'],0,[0.5503464251851256],2018_Jul_09_1421,60.3004023893,go-nogo,001,38,
logos/1.jpg,properties1.xlsx,frogs/ab47.jpg,0,0,400,l,0,3,3,0,0,15,15,46,,,['l'],0,[0.5003456002959865],2018_Jul_09_1421,60.3004023893,go-nogo,001,38,
logos/1.jpg,properties1.xlsx,frogs/ab78.jpg,0,0,400,l,0,3,3,0,0,16,16,76,,,['l'],0,[0.6003347345085785],2018_Jul_09_1421,60.3004023893,go-nogo,001,38,
logos/1.jpg,properties1.xlsx,logos/1.jpg,0,0,400,a,0,3,3,0,0,17,17,89,,,['a'],0,[0.3333731555885606],2018_Jul_09_1421,60.3004023893,go-nogo,001,38,
logos/1.jpg,properties1.xlsx,frogs/ab28.jpg,0,0,400,l,0,3,3,0,0,18,18,27,,,['l'],0,[0.3172178351360344],2018_Jul_09_1421,60.3004023893,go-nogo,001,38,
logos/1.jpg,properties1.xlsx,logos/1.jpg,0,0,400,a,0,3,3,0,0,19,19,84,,,['l'],0,[0.46694041623231897],2018_Jul_09_1421,60.3004023893,go-nogo,001,38,
logos/1.jpg,properties1.xlsx,frogs/ab51.jpg,0,0,400,l,0,3,3,0,0,20,20,50,,,['l'],0,[0.5832891021855175],2018_Jul_09_1421,60.3004023893,go-nogo,001,38,
logos/1.jpg,properties1.xlsx,frogs/ab40.jpg,0,0,400,l,0,3,3,0,0,21,21,39,,,['l'],0,[0.7000166684574651],2018_Jul_09_1421,60.3004023893,go-nogo,001,38,
logos/1.jpg,properties1.xlsx,frogs/ab10.jpg,0,0,400,l,0,3,3,0,0,22,22,9,,,['l'],0,[0.8501022009768349],2018_Jul_09_1421,60.3004023893,go-nogo,001,38,
logos/1.jpg,properties1.xlsx,frogs/ab8.jpg,0,0,400,l,0,3,3,0,0,23,23,7,,,['l'],0,[0.8335583290809154],2018_Jul_09_1421,60.3004023893,go-nogo,001,38,
logos/1.jpg,properties1.xlsx,frogs/ab77.jpg,0,0,400,l,0,3,3,0,0,24,24,75,,,['l'],0,[0.5335755664291355],2018_Jul_09_1421,60.3004023893,go-nogo,001,38,
logos/1.jpg,properties1.xlsx,frogs/ab39.jpg,0,0,400,l,0,3,3,0,0,25,25,38,,,['l'],0,[0.6335203272701619],2018_Jul_09_1421,60.3004023893,go-nogo,001,38,
logos/1.jpg,properties1.xlsx,frogs/ab4.jpg,0,0,400,l,0,3,3,0,0,26,26,3,,,['l'],0,[0.3501121565404901],2018_Jul_09_1421,60.3004023893,go-nogo,001,38,
logos/1.jpg,properties1.xlsx,frogs/ab5.jpg,0,0,400,l,0,3,3,0,0,27,27,4,,,['l'],0,[0.4337548234707356],2018_Jul_09_1421,60.3004023893,go-nogo,001,38,
logos/1.jpg,properties1.xlsx,logos/1.jpg,0,0,400,a,0,3,3,0,0,28,28,85,,,['a'],0,[0.516745543178331],2018_Jul_09_1421,60.3004023893,go-nogo,001,38,
logos/1.jpg,properties1.xlsx,frogs/ab73.jpg,0,0,400,l,0,3,3,0,0,29,29,71,,,['l'],0,[0.5669335326729197],2018_Jul_09_1421,60.3004023893,go-nogo,001,38,
logos/1.jpg,properties1.xlsx,frogs/ab22.jpg,0,0,400,l,0,3,3,0,0,30,30,21,,,['l'],0,[0.5002796091266646],2018_Jul_09_1421,60.3004023893,go-nogo,001,38,
logos/1.jpg,properties1.xlsx,frogs/ab54.jpg,0,0,400,l,0,3,3,0,0,31,31,53,,,['l'],0,[0.5502451628763083],2018_Jul_09_1421,60.3004023893,go-nogo,001,38,
logos/1.jpg,properties1.xlsx,frogs/ab45.jpg,0,0,400,l,0,3,3,0,0,32,32,44,,,['l'],0,[0.5003370669528522],2018_Jul_09_1421,60.3004023893,go-nogo,001,38,
logos/1.jpg,properties1.xlsx,frogs/ab31.jpg,0,0,400,l,0,3,3,0,0,33,33,30,,,['l'],0,[0.4670297318643861],2018_Jul_09_1421,60.3004023893,go-nogo,001,38,
logos/1.jpg,properties1.xlsx,frogs/ab55.jpg,0,0,400,l,0,3,3,0,0,34,34,54,,,['l'],0,[0.6335811984354223],2018_Jul_09_1421,60.3004023893,go-nogo,001,38,
logos/1.jpg,properties1.xlsx,frogs/ab69.jpg,0,0,400,l,0,3,3,0,0,35,35,67,,,['l'],0,[0.5835121068193985],2018_Jul_09_1421,60.3004023893,go-nogo,001,38,
logos/1.jpg,properties1.xlsx,frogs/ab2.jpg,0,0,400,l,0,3,3,0,0,36,36,1,,,['l'],0,[0.5167745565358928],2018_Jul_09_1421,60.3004023893,go-nogo,001,38,
logos/1.jpg,properties1.xlsx,frogs/ab76.jpg,0,0,400,l,0,3,3,0,0,37,37,74,,,['l'],0,[0.5670103327374818],2018_Jul_09_1421,60.3004023893,go-nogo,001,38,
logos/1.jpg,properties1.xlsx,frogs/ab37.jpg,0,0,400,l,0,3,3,0,0,38,38,36,,,['l'],0,[0.5169685478122119],2018_Jul_09_1421,60.3004023893,go-nogo,001,38,
logos/1.jpg,properties1.xlsx,frogs/ab20.jpg,0,0,400,l,0,3,3,0,0,39,39,19,,,['l'],0,[0.5170533123291534],2018_Jul_09_1421,60.3004023893,go-nogo,001,38,
logos/1.jpg,properties1.xlsx,frogs/ab60.jpg,0,0,400,l,0,3,3,0,0,40,40,58,,,['l'],0,[0.5669147593234811],2018_Jul_09_1421,60.3004023893,go-nogo,001,38,
logos/1.jpg,properties1.xlsx,frogs/ab71.jpg,0,0,400,l,0,3,3,0,0,41,41,69,,,['l'],0,[0.533673415402518],2018_Jul_09_1421,60.3004023893,go-nogo,001,38,
logos/1.jpg,properties1.xlsx,frogs/ab26.jpg,0,0,400,l,0,3,3,0,0,42,42,25,,,['l'],0,[0.46689604286257236],2018_Jul_09_1421,60.3004023893,go-nogo,001,38,
logos/1.jpg,properties1.xlsx,frogs/ab61.jpg,0,0,400,l,0,3,3,0,0,43,43,59,,,['l'],0,[0.6824197823316354],2018_Jul_09_1421,60.3004023893,go-nogo,001,38,
logos/1.jpg,properties1.xlsx,frogs/ab21.jpg,0,0,400,l,0,3,3,0,0,44,44,20,,,['l'],0,[0.5835598935263988],2018_Jul_09_1421,60.3004023893,go-nogo,001,38,
logos/1.jpg,properties1.xlsx,frogs/ab72.jpg,0,0,400,l,0,3,3,0,0,45,45,70,,,['l'],0,[0.5502434562076814],2018_Jul_09_1421,60.3004023893,go-nogo,001,38,
logos/1.jpg,properties1.xlsx,frogs/ab11.jpg,0,0,400,l,0,3,3,0,0,46,46,10,,,['l'],0,[0.7001600285802851],2018_Jul_09_1421,60.3004023893,go-nogo,001,38,
logos/1.jpg,properties1.xlsx,frogs/ab79.jpg,0,0,400,l,0,3,3,0,0,47,47,77,,,['l'],0,[0.5829352529926837],2018_Jul_09_1421,60.3004023893,go-nogo,001,38,
logos/1.jpg,properties1.xlsx,frogs/ab74.jpg,0,0,400,l,0,3,3,0,0,48,48,72,,,['l'],0,[0.5668237370246061],2018_Jul_09_1421,60.3004023893,go-nogo,001,38,
logos/1.jpg,properties1.xlsx,frogs/ab3.jpg,0,0,400,l,0,3,3,0,0,49,49,2,,,['l'],0,[0.550223545078552],2018_Jul_09_1421,60.3004023893,go-nogo,001,38,
logos/1.jpg,properties1.xlsx,frogs/ab68.jpg,0,0,400,l,0,3,3,0,0,50,50,66,,,['l'],0,[0.41690659576124744],2018_Jul_09_1421,60.3004023893,go-nogo,001,38,
logos/1.jpg,properties1.xlsx,frogs/ab56.jpg,0,0,400,l,0,3,3,0,0,51,51,55,,,['l'],0,[0.36709179769604816],2018_Jul_09_1421,60.3004023893,go-nogo,001,38,
logos/1.jpg,properties1.xlsx,frogs/ab14.jpg,0,0,400,l,0,3,3,0,0,52,52,13,,,['l'],0,[0.25055822269860073],2018_Jul_09_1421,60.3004023893,go-nogo,001,38,
logos/1.jpg,properties1.xlsx,frogs/ab9.jpg,0,0,400,l,0,3,3,0,0,53,53,8,,,['l'],0,[0.3670650598960492],2018_Jul_09_1421,60.3004023893,go-nogo,001,38,
logos/1.jpg,properties1.xlsx,frogs/ab17.jpg,0,0,400,l,0,3,3,0,0,54,54,16,,,['l'],0,[0.733470208117069],2018_Jul_09_1421,60.3004023893,go-nogo,001,38,
logos/1.jpg,properties1.xlsx,frogs/ab58.jpg,0,0,400,l,0,3,3,0,0,55,55,57,,,['l'],0,[0.7334662258908793],2018_Jul_09_1421,60.3004023893,go-nogo,001,38,
logos/1.jpg,properties1.xlsx,frogs/ab80.jpg,0,0,400,l,0,3,3,0,0,56,56,78,,,['l'],0,[0.3502623433359986],2018_Jul_09_1421,60.3004023893,go-nogo,001,38,
logos/1.jpg,properties1.xlsx,frogs/ab81.jpg,0,0,400,l,0,3,3,0,0,57,57,79,,,['l'],0,[0.46716740309420857],2018_Jul_09_1421,60.3004023893,go-nogo,001,38,
logos/1.jpg,properties1.xlsx,frogs/ab41.jpg,0,0,400,l,0,3,3,0,0,58,58,40,,,['l'],0,[0.4337150012142956],2018_Jul_09_1421,60.3004023893,go-nogo,001,38,
logos/1.jpg,properties1.xlsx,logos/1.jpg,0,0,400,a,0,3,3,0,0,59,59,81,,,['a'],0,[0.3832664603869489],2018_Jul_09_1421,60.3004023893,go-nogo,001,38,
logos/1.jpg,properties1.xlsx,logos/1.jpg,0,0,400,a,0,3,3,0,0,60,60,80,,,['a'],0,[0.08382300486300664],2018_Jul_09_1421,60.3004023893,go-nogo,001,38,
logos/1.jpg,properties1.xlsx,frogs/ab63.jpg,0,0,400,l,0,3,3,0,0,61,61,61,,,['l'],0,[0.5668311325862305],2018_Jul_09_1421,60.3004023893,go-nogo,001,38,
logos/1.jpg,properties1.xlsx,frogs/ab64.jpg,0,0,400,l,0,3,3,0,0,62,62,62,,,['l'],0,[0.3167991325572075],2018_Jul_09_1421,60.3004023893,go-nogo,001,38,
logos/1.jpg,properties1.xlsx,frogs/ab66.jpg,0,0,400,l,0,3,3,0,0,63,63,64,,,['l'],0,[0.4339892058924306],2018_Jul_09_1421,60.3004023893,go-nogo,001,38,
logos/1.jpg,properties1.xlsx,frogs/ab15.jpg,0,0,400,l,0,3,3,0,0,64,64,14,,,['l'],0,[0.25045354705252976],2018_Jul_09_1421,60.3004023893,go-nogo,001,38,
logos/1.jpg,properties1.xlsx,frogs/ab6.jpg,0,0,400,l,0,3,3,0,0,65,65,5,,,['l'],0,[0.20037478432095668],2018_Jul_09_1421,60.3004023893,go-nogo,001,38,
logos/1.jpg,properties1.xlsx,frogs/ab44.jpg,0,0,400,l,0,3,3,0,0,66,66,43,,,['l'],0,[0.26692744555657555],2018_Jul_09_1421,60.3004023893,go-nogo,001,38,
logos/1.jpg,properties1.xlsx,logos/1.jpg,0,0,400,a,0,3,3,0,0,67,67,88,,,['a'],0,[0.26716637909339624],2018_Jul_09_1421,60.3004023893,go-nogo,001,38,
logos/1.jpg,properties1.xlsx,frogs/ab49.jpg,0,0,400,l,0,3,3,0,0,68,68,48,,,['l'],0,[0.18301683173012862],2018_Jul_09_1421,60.3004023893,go-nogo,001,38,
logos/1.jpg,properties1.xlsx,frogs/ab62.jpg,0,0,400,l,0,3,3,0,0,69,69,60,,,['l'],0,[0.2336593638337945],2018_Jul_09_1421,60.3004023893,go-nogo,001,38,
logos/1.jpg,properties1.xlsx,frogs/ab1.jpg,0,0,400,l,0,3,3,0,0,70,70,0,,,['l'],0,[0.2674604948988417],2018_Jul_09_1421,60.3004023893,go-nogo,001,38,
logos/1.jpg,properties1.xlsx,frogs/ab29.jpg,0,0,400,l,0,3,3,0,0,71,71,28,,,['l'],0,[0.33361152023826435],2018_Jul_09_1421,60.3004023893,go-nogo,001,38,
logos/1.jpg,properties1.xlsx,frogs/ab32.jpg,0,0,400,l,0,3,3,0,0,72,72,31,,,['l'],0,[0.31717687510172254],2018_Jul_09_1421,60.3004023893,go-nogo,001,38,
logos/1.jpg,properties1.xlsx,frogs/ab42.jpg,0,0,400,l,0,3,3,0,0,73,73,41,,,['l'],0,[0.38349287835808354],2018_Jul_09_1421,60.3004023893,go-nogo,001,38,
logos/1.jpg,properties1.xlsx,frogs/ab24.jpg,0,0,400,l,0,3,3,0,0,74,74,23,,,['l'],0,[0.36709464214436593],2018_Jul_09_1421,60.3004023893,go-nogo,001,38,
logos/1.jpg,properties1.xlsx,frogs/ab46.jpg,0,0,400,l,0,3,3,0,0,75,75,45,,,['l'],0,[0.3335825068788836],2018_Jul_09_1421,60.3004023893,go-nogo,001,38,
logos/1.jpg,properties1.xlsx,frogs/ab12.jpg,0,0,400,l,0,3,3,0,0,76,76,11,,,['l'],0,[0.3170483061021514],2018_Jul_09_1421,60.3004023893,go-nogo,001,38,
logos/1.jpg,properties1.xlsx,logos/1.jpg,0,0,400,a,0,3,3,0,0,77,77,83,,,['a'],0,[0.3004173941335466],2018_Jul_09_1421,60.3004023893,go-nogo,001,38,
logos/1.jpg,properties1.xlsx,logos/1.jpg,0,0,400,a,0,3,3,0,0,78,78,86,,,['a'],0,[0.30036448742248467],2018_Jul_09_1421,60.3004023893,go-nogo,001,38,
logos/1.jpg,properties1.xlsx,frogs/ab75.jpg,0,0,400,l,0,3,3,0,0,79,79,73,,,['l'],0,[0.5668686792832887],2018_Jul_09_1421,60.3004023893,go-nogo,001,38,
logos/1.jpg,properties1.xlsx,frogs/ab50.jpg,0,0,400,l,0,3,3,0,0,80,80,49,,,['l'],0,[0.31688332818521303],2018_Jul_09_1421,60.3004023893,go-nogo,001,38,
logos/1.jpg,properties1.xlsx,frogs/ab30.jpg,0,0,400,l,0,3,3,0,0,81,81,29,,,['l'],0,[0.6001708943676931],2018_Jul_09_1421,60.3004023893,go-nogo,001,38,
logos/1.jpg,properties1.xlsx,frogs/ab34.jpg,0,0,400,l,0,3,3,0,0,82,82,33,,,['l'],0,[1.2665366185556195],2018_Jul_09_1421,60.3004023893,go-nogo,001,38,
logos/1.jpg,properties1.xlsx,frogs/ab19.jpg,0,0,400,l,0,3,3,0,0,83,83,18,,,['l'],0,[0.3002347806450416],2018_Jul_09_1421,60.3004023893,go-nogo,001,38,
logos/1.jpg,properties1.xlsx,frogs/ab25.jpg,0,0,400,l,0,3,3,0,0,84,84,24,,,['l'],0,[0.23377996838098625],2018_Jul_09_1421,60.3004023893,go-nogo,001,38,
logos/1.jpg,properties1.xlsx,frogs/ab48.jpg,0,0,400,l,0,3,3,0,0,85,85,47,,,['l'],0,[0.28371480210262234],2018_Jul_09_1421,60.3004023893,go-nogo,001,38,
logos/1.jpg,properties1.xlsx,frogs/ab52.jpg,0,0,400,l,0,3,3,0,0,86,86,51,,,['l'],0,[0.3673523490288062],2018_Jul_09_1421,60.3004023893,go-nogo,001,38,
logos/1.jpg,properties1.xlsx,frogs/ab33.jpg,0,0,400,l,0,3,3,0,0,87,87,32,,,['l'],0,[0.2838211844173202],2018_Jul_09_1421,60.3004023893,go-nogo,001,38,
logos/1.jpg,properties1.xlsx,frogs/ab70.jpg,0,0,400,l,0,3,3,0,0,88,88,68,,,['l'],0,[0.3669740375953552],2018_Jul_09_1421,60.3004023893,go-nogo,001,38,
logos/1.jpg,properties1.xlsx,frogs/ab57.jpg,0,0,400,l,0,3,3,0,0,89,89,56,,,['l'],0,[0.46686077172125806],2018_Jul_09_1421,60.3004023893,go-nogo,001,38,
logos/1.jpg,properties1.xlsx,,,,,,0,3,3,0,,,,,,,,,,2018_Jul_09_1421,60.3004023893,go-nogo,001,38,
