pix,source,image1,x,y,size,answer,trials_2.thisRepN,trials_2.thisTrialN,trials_2.thisN,trials_2.thisIndex,trials.thisRepN,trials.thisTrialN,trials.thisN,trials.thisIndex,key_resp_3.keys,key_resp_3.rt,key_resp_2.keys,key_resp_2.corr,key_resp_2.rt,date,frameRate,expName,session,participant,
logos/4.jpg,properties4.xlsx,frogs/ab72.jpg,0,0,400,l,0,0,0,3,0,0,0,70,space,2.32444927384,['l'],0,[1.0007264921950991],2018_Jul_09_0744,60.032334717,go-nogo,001,39,
logos/4.jpg,properties4.xlsx,frogs/ab64.jpg,0,0,400,l,0,0,0,3,0,1,1,62,,,['l'],0,[0.48415930171177024],2018_Jul_09_0744,60.032334717,go-nogo,001,39,
logos/4.jpg,properties4.xlsx,frogs/ab8.jpg,0,0,400,l,0,0,0,3,0,2,2,7,,,['l'],0,[0.40094470760959666],2018_Jul_09_0744,60.032334717,go-nogo,001,39,
logos/4.jpg,properties4.xlsx,frogs/ab6.jpg,0,0,400,l,0,0,0,3,0,3,3,5,,,['l'],0,[0.6174826688293251],2018_Jul_09_0744,60.032334717,go-nogo,001,39,
logos/4.jpg,properties4.xlsx,frogs/ab29.jpg,0,0,400,l,0,0,0,3,0,4,4,28,,,['l'],0,[0.33430779082118534],2018_Jul_09_0744,60.032334717,go-nogo,001,39,
logos/4.jpg,properties4.xlsx,frogs/ab66.jpg,0,0,400,l,0,0,0,3,0,5,5,64,,,['l'],0,[0.3181312907108804],2018_Jul_09_0744,60.032334717,go-nogo,001,39,
logos/4.jpg,properties4.xlsx,frogs/ab75.jpg,0,0,400,l,0,0,0,3,0,6,6,73,,,['l'],0,[0.017723196651786566],2018_Jul_09_0744,60.032334717,go-nogo,001,39,
logos/4.jpg,properties4.xlsx,frogs/ab65.jpg,0,0,400,l,0,0,0,3,0,7,7,63,,,['l'],0,[0.0177504177991068],2018_Jul_09_0744,60.032334717,go-nogo,001,39,
logos/4.jpg,properties4.xlsx,frogs/ab76.jpg,0,0,400,l,0,0,0,3,0,8,8,74,,,['l'],0,[1.20064482876478],2018_Jul_09_0744,60.032334717,go-nogo,001,39,
logos/4.jpg,properties4.xlsx,frogs/ab13.jpg,0,0,400,l,0,0,0,3,0,9,9,12,,,['l'],0,[0.0010277097899233922],2018_Jul_09_0744,60.032334717,go-nogo,001,39,
logos/4.jpg,properties4.xlsx,logos/4.jpg,0,0,400,a,0,0,0,3,0,10,10,83,,,['a'],0,[0.20103484975697938],2018_Jul_09_0744,60.032334717,go-nogo,001,39,
logos/4.jpg,properties4.xlsx,frogs/ab70.jpg,0,0,400,l,0,0,0,3,0,11,11,68,,,['l'],0,[0.25096869344997685],2018_Jul_09_0744,60.032334717,go-nogo,001,39,
logos/4.jpg,properties4.xlsx,frogs/ab10.jpg,0,0,400,l,0,0,0,3,0,12,12,9,,,['l'],0,[0.2842423038891866],2018_Jul_09_0744,60.032334717,go-nogo,001,39,
logos/4.jpg,properties4.xlsx,frogs/ab77.jpg,0,0,400,l,0,0,0,3,0,13,13,75,,,['l'],0,[0.2842079427719],2018_Jul_09_0744,60.032334717,go-nogo,001,39,
logos/4.jpg,properties4.xlsx,frogs/ab63.jpg,0,0,400,l,0,0,0,3,0,14,14,61,,,['l'],0,[0.2676115230206051],2018_Jul_09_0744,60.032334717,go-nogo,001,39,
logos/4.jpg,properties4.xlsx,frogs/ab56.jpg,0,0,400,l,0,0,0,3,0,15,15,55,,,['l'],0,[0.33431537704746006],2018_Jul_09_0744,60.032334717,go-nogo,001,39,
logos/4.jpg,properties4.xlsx,frogs/ab44.jpg,0,0,400,l,0,0,0,3,0,16,16,43,,,['l'],0,[0.3004759237883263],2018_Jul_09_0744,60.032334717,go-nogo,001,39,
logos/4.jpg,properties4.xlsx,frogs/ab53.jpg,0,0,400,l,0,0,0,3,0,17,17,52,,,['l'],0,[0.2677154988705297],2018_Jul_09_0744,60.032334717,go-nogo,001,39,
logos/4.jpg,properties4.xlsx,frogs/ab37.jpg,0,0,400,l,0,0,0,3,0,18,18,36,,,['l'],0,[0.21749382503912784],2018_Jul_09_0744,60.032334717,go-nogo,001,39,
logos/4.jpg,properties4.xlsx,frogs/ab17.jpg,0,0,400,l,0,0,0,3,0,19,19,16,,,['l'],0,[0.25101510327658616],2018_Jul_09_0744,60.032334717,go-nogo,001,39,
logos/4.jpg,properties4.xlsx,frogs/ab40.jpg,0,0,400,l,0,0,0,3,0,20,20,39,,,['l'],0,[0.2510851642509806],2018_Jul_09_0744,60.032334717,go-nogo,001,39,
logos/4.jpg,properties4.xlsx,frogs/ab48.jpg,0,0,400,l,0,0,0,3,0,21,21,47,,,['l'],0,[0.23426160412782338],2018_Jul_09_0744,60.032334717,go-nogo,001,39,
logos/4.jpg,properties4.xlsx,frogs/ab57.jpg,0,0,400,l,0,0,0,3,0,22,22,56,,,['l'],0,[0.23462975896109128],2018_Jul_09_0744,60.032334717,go-nogo,001,39,
logos/4.jpg,properties4.xlsx,frogs/ab78.jpg,0,0,400,l,0,0,0,3,0,23,23,76,,,['l'],0,[0.2512052050369675],2018_Jul_09_0744,60.032334717,go-nogo,001,39,
logos/4.jpg,properties4.xlsx,frogs/ab45.jpg,0,0,400,l,0,0,0,3,0,24,24,44,,,['l'],0,[0.23440886605385458],2018_Jul_09_0744,60.032334717,go-nogo,001,39,
logos/4.jpg,properties4.xlsx,logos/4.jpg,0,0,400,a,0,0,0,3,0,25,25,84,,,['a'],0,[0.26815103719127364],2018_Jul_09_0744,60.032334717,go-nogo,001,39,
logos/4.jpg,properties4.xlsx,frogs/ab32.jpg,0,0,400,l,0,0,0,3,0,26,26,31,,,['l'],0,[0.28456360265408875],2018_Jul_09_0744,60.032334717,go-nogo,001,39,
logos/4.jpg,properties4.xlsx,frogs/ab35.jpg,0,0,400,l,0,0,0,3,0,27,27,34,,,['l'],0,[0.25117129017598927],2018_Jul_09_0744,60.032334717,go-nogo,001,39,
logos/4.jpg,properties4.xlsx,frogs/ab47.jpg,0,0,400,l,0,0,0,3,0,28,28,46,,,['l'],0,[0.3842572532084887],2018_Jul_09_0744,60.032334717,go-nogo,001,39,
logos/4.jpg,properties4.xlsx,frogs/ab16.jpg,0,0,400,l,0,0,0,3,0,29,29,15,,,['l'],0,[0.26736653271655086],2018_Jul_09_0744,60.032334717,go-nogo,001,39,
logos/4.jpg,properties4.xlsx,frogs/ab38.jpg,0,0,400,l,0,0,0,3,0,30,30,37,,,['l'],0,[0.23411612718336983],2018_Jul_09_0744,60.032334717,go-nogo,001,39,
logos/4.jpg,properties4.xlsx,logos/4.jpg,0,0,400,a,0,0,0,3,0,31,31,88,,,['a'],0,[0.06765347035980085],2018_Jul_09_0744,60.032334717,go-nogo,001,39,
logos/4.jpg,properties4.xlsx,frogs/ab20.jpg,0,0,400,l,0,0,0,3,0,32,32,19,,,['l'],0,[0.20097059000545414],2018_Jul_09_0744,60.032334717,go-nogo,001,39,
logos/4.jpg,properties4.xlsx,frogs/ab12.jpg,0,0,400,l,0,0,0,3,0,33,33,11,,,['l'],0,[0.18429786180058727],2018_Jul_09_0744,60.032334717,go-nogo,001,39,
logos/4.jpg,properties4.xlsx,logos/4.jpg,0,0,400,a,0,0,0,3,0,34,34,85,,,['l'],0,[0.8333816025187843],2018_Jul_09_0744,60.032334717,go-nogo,001,39,
logos/4.jpg,properties4.xlsx,frogs/ab33.jpg,0,0,400,l,0,0,0,3,0,35,35,32,,,['l'],0,[0.800866167905042],2018_Jul_09_0744,60.032334717,go-nogo,001,39,
logos/4.jpg,properties4.xlsx,frogs/ab41.jpg,0,0,400,l,0,0,0,3,0,36,36,40,,,['l'],0,[0.3009177095882478],2018_Jul_09_0744,60.032334717,go-nogo,001,39,
logos/4.jpg,properties4.xlsx,frogs/ab71.jpg,0,0,400,l,0,0,0,3,0,37,37,69,,,['l'],0,[0.2843614521843847],2018_Jul_09_0744,60.032334717,go-nogo,001,39,
logos/4.jpg,properties4.xlsx,frogs/ab14.jpg,0,0,400,l,0,0,0,3,0,38,38,13,,,['l'],0,[0.21767634058051044],2018_Jul_09_0744,60.032334717,go-nogo,001,39,
logos/4.jpg,properties4.xlsx,frogs/ab3.jpg,0,0,400,l,0,0,0,3,0,39,39,2,,,['l'],0,[0.23436825747194234],2018_Jul_09_0744,60.032334717,go-nogo,001,39,
logos/4.jpg,properties4.xlsx,frogs/ab7.jpg,0,0,400,l,0,0,0,3,0,40,40,6,,,['l'],0,[0.2009594338014722],2018_Jul_09_0744,60.032334717,go-nogo,001,39,
logos/4.jpg,properties4.xlsx,logos/4.jpg,0,0,400,a,0,0,0,3,0,41,41,80,,,['a'],0,[0.2844636430381797],2018_Jul_09_0744,60.032334717,go-nogo,001,39,
logos/4.jpg,properties4.xlsx,frogs/ab21.jpg,0,0,400,l,0,0,0,3,0,42,42,20,,,['l'],0,[0.1842144133770489],2018_Jul_09_0744,60.032334717,go-nogo,001,39,
logos/4.jpg,properties4.xlsx,frogs/ab39.jpg,0,0,400,l,0,0,0,3,0,43,43,38,,,['l'],0,[0.2674388249433832],2018_Jul_09_0744,60.032334717,go-nogo,001,39,
logos/4.jpg,properties4.xlsx,frogs/ab55.jpg,0,0,400,l,0,0,0,3,0,44,44,54,,,['l'],0,[0.4842405188974226],2018_Jul_09_0744,60.032334717,go-nogo,001,39,
logos/4.jpg,properties4.xlsx,frogs/ab9.jpg,0,0,400,l,0,0,0,3,0,45,45,8,,,['l'],0,[0.317893886618549],2018_Jul_09_0744,60.032334717,go-nogo,001,39,
logos/4.jpg,properties4.xlsx,frogs/ab60.jpg,0,0,400,l,0,0,0,3,0,46,46,58,,,['l'],0,[0.2513185521020205],2018_Jul_09_0744,60.032334717,go-nogo,001,39,
logos/4.jpg,properties4.xlsx,frogs/ab50.jpg,0,0,400,l,0,0,0,3,0,47,47,49,,,['l'],0,[0.268090793673764],2018_Jul_09_0744,60.032334717,go-nogo,001,39,
logos/4.jpg,properties4.xlsx,frogs/ab26.jpg,0,0,400,l,0,0,0,3,0,48,48,25,,,['l'],0,[0.2845096066084807],2018_Jul_09_0744,60.032334717,go-nogo,001,39,
logos/4.jpg,properties4.xlsx,frogs/ab74.jpg,0,0,400,l,0,0,0,3,0,49,49,72,,,['l'],0,[0.20114061060303356],2018_Jul_09_0744,60.032334717,go-nogo,001,39,
logos/4.jpg,properties4.xlsx,frogs/ab19.jpg,0,0,400,l,0,0,0,3,0,50,50,18,,,['l'],0,[0.23454854177543893],2018_Jul_09_0744,60.032334717,go-nogo,001,39,
logos/4.jpg,properties4.xlsx,frogs/ab42.jpg,0,0,400,l,0,0,0,3,0,51,51,41,,,['l'],0,[0.20109286203660304],2018_Jul_09_0744,60.032334717,go-nogo,001,39,
logos/4.jpg,properties4.xlsx,frogs/ab49.jpg,0,0,400,l,0,0,0,3,0,52,52,48,,,['l'],0,[0.25119137134606717],2018_Jul_09_0744,60.032334717,go-nogo,001,39,
logos/4.jpg,properties4.xlsx,frogs/ab62.jpg,0,0,400,l,0,0,0,3,0,53,53,60,,,['l'],0,[0.36784691899083555],2018_Jul_09_0744,60.032334717,go-nogo,001,39,
logos/4.jpg,properties4.xlsx,frogs/ab51.jpg,0,0,400,l,0,0,0,3,0,54,54,50,,,['l'],0,[0.26732190788607113],2018_Jul_09_0744,60.032334717,go-nogo,001,39,
logos/4.jpg,properties4.xlsx,frogs/ab36.jpg,0,0,400,l,0,0,0,3,0,55,55,35,,,['l'],0,[0.23452979934518225],2018_Jul_09_0744,60.032334717,go-nogo,001,39,
logos/4.jpg,properties4.xlsx,logos/4.jpg,0,0,400,a,0,0,0,3,0,56,56,86,,,['a'],0,[0.23449499197886325],2018_Jul_09_0744,60.032334717,go-nogo,001,39,
logos/4.jpg,properties4.xlsx,frogs/ab31.jpg,0,0,400,l,0,0,0,3,0,57,57,30,,,['l'],0,[0.2176937442709459],2018_Jul_09_0744,60.032334717,go-nogo,001,39,
logos/4.jpg,properties4.xlsx,frogs/ab69.jpg,0,0,400,l,0,0,0,3,0,58,58,67,,,['l'],0,[0.28433066105208127],2018_Jul_09_0744,60.032334717,go-nogo,001,39,
logos/4.jpg,properties4.xlsx,frogs/ab61.jpg,0,0,400,l,0,0,0,3,0,59,59,59,,,['l'],0,[0.2844498093400034],2018_Jul_09_0744,60.032334717,go-nogo,001,39,
logos/4.jpg,properties4.xlsx,frogs/ab22.jpg,0,0,400,l,0,0,0,3,0,60,60,21,,,['l'],0,[0.5178720204567071],2018_Jul_09_0744,60.032334717,go-nogo,001,39,
logos/4.jpg,properties4.xlsx,frogs/ab54.jpg,0,0,400,l,0,0,0,3,0,61,61,53,,,['l'],0,[0.21779102639266057],2018_Jul_09_0744,60.032334717,go-nogo,001,39,
logos/4.jpg,properties4.xlsx,frogs/ab30.jpg,0,0,400,l,0,0,0,3,0,62,62,29,,,['l'],0,[0.2844850629553548],2018_Jul_09_0744,60.032334717,go-nogo,001,39,
logos/4.jpg,properties4.xlsx,frogs/ab11.jpg,0,0,400,l,0,0,0,3,0,63,63,10,,,['l'],0,[0.2514260979369283],2018_Jul_09_0744,60.032334717,go-nogo,001,39,
logos/4.jpg,properties4.xlsx,frogs/ab46.jpg,0,0,400,l,0,0,0,3,0,64,64,45,,,['l'],0,[0.2678239372035023],2018_Jul_09_0744,60.032334717,go-nogo,001,39,
logos/4.jpg,properties4.xlsx,frogs/ab68.jpg,0,0,400,l,0,0,0,3,0,65,65,66,,,['l'],0,[0.30103998161212076],2018_Jul_09_0744,60.032334717,go-nogo,001,39,
logos/4.jpg,properties4.xlsx,frogs/ab67.jpg,0,0,400,l,0,0,0,3,0,66,66,65,,,['l'],0,[0.35108984986436553],2018_Jul_09_0744,60.032334717,go-nogo,001,39,
logos/4.jpg,properties4.xlsx,frogs/ab28.jpg,0,0,400,l,0,0,0,3,0,67,67,27,,,['l'],0,[0.25126767979963915],2018_Jul_09_0744,60.032334717,go-nogo,001,39,
logos/4.jpg,properties4.xlsx,frogs/ab24.jpg,0,0,400,l,0,0,0,3,0,68,68,23,,,['l'],0,[0.23450793317897478],2018_Jul_09_0744,60.032334717,go-nogo,001,39,
logos/4.jpg,properties4.xlsx,frogs/ab58.jpg,0,0,400,l,0,0,0,3,0,69,69,57,,,['l'],0,[0.26788061073602876],2018_Jul_09_0744,60.032334717,go-nogo,001,39,
logos/4.jpg,properties4.xlsx,frogs/ab27.jpg,0,0,400,l,0,0,0,3,0,70,70,26,,,['l'],0,[0.2511378215494915],2018_Jul_09_0744,60.032334717,go-nogo,001,39,
logos/4.jpg,properties4.xlsx,frogs/ab25.jpg,0,0,400,l,0,0,0,3,0,71,71,24,,,['l'],0,[0.3345385011853068],2018_Jul_09_0744,60.032334717,go-nogo,001,39,
logos/4.jpg,properties4.xlsx,frogs/ab5.jpg,0,0,400,l,0,0,0,3,0,72,72,4,,,['l'],0,[0.4676780140143819],2018_Jul_09_0744,60.032334717,go-nogo,001,39,
logos/4.jpg,properties4.xlsx,frogs/ab23.jpg,0,0,400,l,0,0,0,3,0,73,73,22,,,['l'],0,[0.2844573955590022],2018_Jul_09_0744,60.032334717,go-nogo,001,39,
logos/4.jpg,properties4.xlsx,frogs/ab79.jpg,0,0,400,l,0,0,0,3,0,74,74,77,,,['l'],0,[0.28447613798925886],2018_Jul_09_0744,60.032334717,go-nogo,001,39,
logos/4.jpg,properties4.xlsx,frogs/ab4.jpg,0,0,400,l,0,0,0,3,0,75,75,3,,,['l'],0,[0.23401839881989872],2018_Jul_09_0744,60.032334717,go-nogo,001,39,
logos/4.jpg,properties4.xlsx,frogs/ab2.jpg,0,0,400,l,0,0,0,3,0,76,76,1,,,['l'],0,[0.35095240538794314],2018_Jul_09_0744,60.032334717,go-nogo,001,39,
logos/4.jpg,properties4.xlsx,logos/4.jpg,0,0,400,a,0,0,0,3,0,77,77,89,,,['a'],0,[0.3845361583880731],2018_Jul_09_0744,60.032334717,go-nogo,001,39,
logos/4.jpg,properties4.xlsx,frogs/ab18.jpg,0,0,400,l,0,0,0,3,0,78,78,17,,,['l'],0,[0.3014723961969139],2018_Jul_09_0744,60.032334717,go-nogo,001,39,
logos/4.jpg,properties4.xlsx,frogs/ab34.jpg,0,0,400,l,0,0,0,3,0,79,79,33,,,['l'],0,[0.3845441908488283],2018_Jul_09_0744,60.032334717,go-nogo,001,39,
logos/4.jpg,properties4.xlsx,frogs/ab81.jpg,0,0,400,l,0,0,0,3,0,80,80,79,,,['l'],0,[0.3018164536188124],2018_Jul_09_0744,60.032334717,go-nogo,001,39,
logos/4.jpg,properties4.xlsx,frogs/ab73.jpg,0,0,400,l,0,0,0,3,0,81,81,71,,,['l'],0,[0.3678830651042517],2018_Jul_09_0744,60.032334717,go-nogo,001,39,
logos/4.jpg,properties4.xlsx,frogs/ab52.jpg,0,0,400,l,0,0,0,3,0,82,82,51,,,['l'],0,[0.35117776077095186],2018_Jul_09_0744,60.032334717,go-nogo,001,39,
logos/4.jpg,properties4.xlsx,frogs/ab1.jpg,0,0,400,l,0,0,0,3,0,83,83,0,,,['l'],0,[0.351231756809284],2018_Jul_09_0744,60.032334717,go-nogo,001,39,
logos/4.jpg,properties4.xlsx,logos/4.jpg,0,0,400,a,0,0,0,3,0,84,84,82,,,['a'],0,[0.36768983959336765],2018_Jul_09_0744,60.032334717,go-nogo,001,39,
logos/4.jpg,properties4.xlsx,frogs/ab43.jpg,0,0,400,l,0,0,0,3,0,85,85,42,,,['l'],0,[1.5007637539310963],2018_Jul_09_0744,60.032334717,go-nogo,001,39,
logos/4.jpg,properties4.xlsx,logos/4.jpg,0,0,400,a,0,0,0,3,0,86,86,87,,,['a'],0,[0.40098174621380167],2018_Jul_09_0744,60.032334717,go-nogo,001,39,
logos/4.jpg,properties4.xlsx,logos/4.jpg,0,0,400,a,0,0,0,3,0,87,87,81,,,['a'],0,[0.4346507326263236],2018_Jul_09_0744,60.032334717,go-nogo,001,39,
logos/4.jpg,properties4.xlsx,frogs/ab15.jpg,0,0,400,l,0,0,0,3,0,88,88,14,,,['l'],0,[0.3345202050040825],2018_Jul_09_0744,60.032334717,go-nogo,001,39,
logos/4.jpg,properties4.xlsx,frogs/ab80.jpg,0,0,400,l,0,0,0,3,0,89,89,78,,,['l'],0,[0.3178117769421078],2018_Jul_09_0744,60.032334717,go-nogo,001,39,
logos/4.jpg,properties4.xlsx,,,,,,0,0,0,3,,,,,,,,,,2018_Jul_09_0744,60.032334717,go-nogo,001,39,
logos/2.jpg,properties2.xlsx,frogs/ab3.jpg,0,0,400,l,0,1,1,1,0,0,0,2,space,1.67283932162,['l'],0,[0.38398459550808184],2018_Jul_09_0744,60.032334717,go-nogo,001,39,
logos/2.jpg,properties2.xlsx,frogs/ab8.jpg,0,0,400,l,0,1,1,1,0,1,1,7,,,['l'],0,[0.2510490181448404],2018_Jul_09_0744,60.032334717,go-nogo,001,39,
logos/2.jpg,properties2.xlsx,frogs/ab74.jpg,0,0,400,l,0,1,1,1,0,2,2,72,,,['l'],0,[0.266950183075096],2018_Jul_09_0744,60.032334717,go-nogo,001,39,
logos/2.jpg,properties2.xlsx,frogs/ab70.jpg,0,0,400,l,0,1,1,1,0,3,3,68,,,['l'],0,[0.2509544135100441],2018_Jul_09_0744,60.032334717,go-nogo,001,39,
logos/2.jpg,properties2.xlsx,frogs/ab57.jpg,0,0,400,l,0,1,1,1,0,4,4,56,,,['l'],0,[0.15143703101784922],2018_Jul_09_0744,60.032334717,go-nogo,001,39,
logos/2.jpg,properties2.xlsx,frogs/ab35.jpg,0,0,400,l,0,1,1,1,0,5,5,34,,,['l'],0,[0.15168068258208223],2018_Jul_09_0744,60.032334717,go-nogo,001,39,
logos/2.jpg,properties2.xlsx,frogs/ab40.jpg,0,0,400,l,0,1,1,1,0,6,6,39,,,['l'],0,[0.15048741468490334],2018_Jul_09_0744,60.032334717,go-nogo,001,39,
logos/2.jpg,properties2.xlsx,logos/2.jpg,0,0,400,a,0,1,1,1,0,7,7,88,,,['a'],0,[0.2682286843919428],2018_Jul_09_0744,60.032334717,go-nogo,001,39,
logos/2.jpg,properties2.xlsx,logos/2.jpg,0,0,400,a,0,1,1,1,0,8,8,82,,,['a'],0,[0.25123019494640175],2018_Jul_09_0744,60.032334717,go-nogo,001,39,
logos/2.jpg,properties2.xlsx,frogs/ab1.jpg,0,0,400,l,0,1,1,1,0,9,9,0,,,['l'],0,[0.051304718406754546],2018_Jul_09_0744,60.032334717,go-nogo,001,39,
logos/2.jpg,properties2.xlsx,frogs/ab64.jpg,0,0,400,l,0,1,1,1,0,10,10,62,,,['l'],0,[0.08464437358634314],2018_Jul_09_0744,60.032334717,go-nogo,001,39,
logos/2.jpg,properties2.xlsx,frogs/ab52.jpg,0,0,400,l,0,1,1,1,0,11,11,51,,,['l'],0,[0.03450793317460921],2018_Jul_09_0744,60.032334717,go-nogo,001,39,
logos/2.jpg,properties2.xlsx,frogs/ab24.jpg,0,0,400,l,0,1,1,1,0,12,12,23,,,['l'],0,[0.001032172265695408],2018_Jul_09_0744,60.032334717,go-nogo,001,39,
logos/2.jpg,properties2.xlsx,frogs/ab7.jpg,0,0,400,l,0,1,1,1,0,13,13,6,,,['l'],0,[1.317859079259506],2018_Jul_09_0744,60.032334717,go-nogo,001,39,
logos/2.jpg,properties2.xlsx,frogs/ab22.jpg,0,0,400,l,0,1,1,1,0,14,14,21,,,['l'],0,[0.6176401944758254],2018_Jul_09_0744,60.032334717,go-nogo,001,39,
logos/2.jpg,properties2.xlsx,frogs/ab81.jpg,0,0,400,l,0,1,1,1,0,15,15,79,,,['l'],0,[9.130684254800144],2018_Jul_09_0744,60.032334717,go-nogo,001,39,
logos/2.jpg,properties2.xlsx,frogs/ab68.jpg,0,0,400,l,0,1,1,1,0,16,16,66,,,['l'],0,[0.13447334893862717],2018_Jul_09_0744,60.032334717,go-nogo,001,39,
logos/2.jpg,properties2.xlsx,frogs/ab37.jpg,0,0,400,l,0,1,1,1,0,17,17,36,,,['l'],0,[0.2843453872410464],2018_Jul_09_0744,60.032334717,go-nogo,001,39,
logos/2.jpg,properties2.xlsx,frogs/ab30.jpg,0,0,400,l,0,1,1,1,0,18,18,29,,,['l'],0,[0.1676911783433752],2018_Jul_09_0744,60.032334717,go-nogo,001,39,
logos/2.jpg,properties2.xlsx,frogs/ab38.jpg,0,0,400,l,0,1,1,1,0,19,19,37,,,['l'],0,[0.167798724178283],2018_Jul_09_0744,60.032334717,go-nogo,001,39,
logos/2.jpg,properties2.xlsx,frogs/ab67.jpg,0,0,400,l,0,1,1,1,0,20,20,65,,,['l'],0,[0.26762000173766864],2018_Jul_09_0744,60.032334717,go-nogo,001,39,
logos/2.jpg,properties2.xlsx,frogs/ab25.jpg,0,0,400,l,0,1,1,1,0,21,21,24,,,['l'],0,[0.23377430100663332],2018_Jul_09_0744,60.032334717,go-nogo,001,39,
logos/2.jpg,properties2.xlsx,frogs/ab26.jpg,0,0,400,l,0,1,1,1,0,22,22,25,,,['l'],0,[0.18449108731147135],2018_Jul_09_0744,60.032334717,go-nogo,001,39,
logos/2.jpg,properties2.xlsx,frogs/ab46.jpg,0,0,400,l,0,1,1,1,0,23,23,45,,,['l'],0,[0.16767332841118332],2018_Jul_09_0744,60.032334717,go-nogo,001,39,
logos/2.jpg,properties2.xlsx,frogs/ab27.jpg,0,0,400,l,0,1,1,1,0,24,24,26,,,['l'],0,[0.2508187540297513],2018_Jul_09_0744,60.032334717,go-nogo,001,39,
logos/2.jpg,properties2.xlsx,frogs/ab43.jpg,0,0,400,l,0,1,1,1,0,25,25,42,,,['l'],0,[0.26698677543754457],2018_Jul_09_0744,60.032334717,go-nogo,001,39,
logos/2.jpg,properties2.xlsx,frogs/ab49.jpg,0,0,400,l,0,1,1,1,0,26,26,48,,,['l'],0,[0.08367110609833617],2018_Jul_09_0744,60.032334717,go-nogo,001,39,
logos/2.jpg,properties2.xlsx,frogs/ab9.jpg,0,0,400,l,0,1,1,1,0,27,27,8,,,['l'],0,[0.2954895455186488],2018_Jul_09_0744,60.032334717,go-nogo,001,39,
logos/2.jpg,properties2.xlsx,frogs/ab14.jpg,0,0,400,l,0,1,1,1,0,28,28,13,,,['l'],0,[0.13449476885580225],2018_Jul_09_0744,60.032334717,go-nogo,001,39,
logos/2.jpg,properties2.xlsx,frogs/ab62.jpg,0,0,400,l,0,1,1,1,0,29,29,60,,,['l'],0,[0.13457687853951938],2018_Jul_09_0744,60.032334717,go-nogo,001,39,
logos/2.jpg,properties2.xlsx,frogs/ab61.jpg,0,0,400,l,0,1,1,1,0,30,30,59,,,['l'],0,[0.3506038854829967],2018_Jul_09_0744,60.032334717,go-nogo,001,39,
logos/2.jpg,properties2.xlsx,frogs/ab10.jpg,0,0,400,l,0,1,1,1,0,31,31,9,,,['l'],0,[0.23484975936298724],2018_Jul_09_0744,60.032334717,go-nogo,001,39,
logos/2.jpg,properties2.xlsx,frogs/ab17.jpg,0,0,400,l,0,1,1,1,0,32,32,16,,,['l'],0,[0.43431917015550425],2018_Jul_09_0744,60.032334717,go-nogo,001,39,
logos/2.jpg,properties2.xlsx,frogs/ab2.jpg,0,0,400,l,0,1,1,1,0,33,33,1,,,['l'],0,[0.5343037745915353],2018_Jul_09_0744,60.032334717,go-nogo,001,39,
logos/2.jpg,properties2.xlsx,frogs/ab51.jpg,0,0,400,l,0,1,1,1,0,34,34,50,,,['l'],0,[0.4178137850612984],2018_Jul_09_0744,60.032334717,go-nogo,001,39,
logos/2.jpg,properties2.xlsx,frogs/ab33.jpg,0,0,400,l,0,1,1,1,0,35,35,32,,,['l'],0,[0.3010645252725226],2018_Jul_09_0744,60.032334717,go-nogo,001,39,
logos/2.jpg,properties2.xlsx,logos/2.jpg,0,0,400,a,0,1,1,1,0,36,36,87,,,['a'],0,[0.2677797586293309],2018_Jul_09_0744,60.032334717,go-nogo,001,39,
logos/2.jpg,properties2.xlsx,frogs/ab28.jpg,0,0,400,l,0,1,1,1,0,37,37,27,,,['l'],0,[0.15107423117297003],2018_Jul_09_0744,60.032334717,go-nogo,001,39,
logos/2.jpg,properties2.xlsx,frogs/ab79.jpg,0,0,400,l,0,1,1,1,0,38,38,77,,,['l'],0,[0.26708807378599886],2018_Jul_09_0744,60.032334717,go-nogo,001,39,
logos/2.jpg,properties2.xlsx,frogs/ab66.jpg,0,0,400,l,0,1,1,1,0,39,39,64,,,['l'],0,[0.1684783603050164],2018_Jul_09_0744,60.032334717,go-nogo,001,39,
logos/2.jpg,properties2.xlsx,frogs/ab21.jpg,0,0,400,l,0,1,1,1,0,40,40,20,,,['l'],0,[0.26781545848643873],2018_Jul_09_0744,60.032334717,go-nogo,001,39,
logos/2.jpg,properties2.xlsx,logos/2.jpg,0,0,400,a,0,1,1,1,0,41,41,85,,,['a'],0,[0.25112532659841236],2018_Jul_09_0744,60.032334717,go-nogo,001,39,
logos/2.jpg,properties2.xlsx,frogs/ab12.jpg,0,0,400,l,0,1,1,1,0,42,42,11,,,['l'],0,[0.18446922113798792],2018_Jul_09_0744,60.032334717,go-nogo,001,39,
logos/2.jpg,properties2.xlsx,frogs/ab29.jpg,0,0,400,l,0,1,1,1,0,43,43,28,,,['l'],0,[0.2176098495910992],2018_Jul_09_0744,60.032334717,go-nogo,001,39,
logos/2.jpg,properties2.xlsx,frogs/ab77.jpg,0,0,400,l,0,1,1,1,0,44,44,75,,,['l'],0,[0.27502459943207214],2018_Jul_09_0744,60.032334717,go-nogo,001,39,
logos/2.jpg,properties2.xlsx,frogs/ab72.jpg,0,0,400,l,0,1,1,1,0,45,45,70,,,['l'],0,[0.2129403075959999],2018_Jul_09_0744,60.032334717,go-nogo,001,39,
logos/2.jpg,properties2.xlsx,frogs/ab54.jpg,0,0,400,l,0,1,1,1,0,46,46,53,,,['l'],0,[0.3049156479173689],2018_Jul_09_0744,60.032334717,go-nogo,001,39,
logos/2.jpg,properties2.xlsx,logos/2.jpg,0,0,400,a,0,1,1,1,0,47,47,83,,,['a'],0,[0.24357569821586367],2018_Jul_09_0744,60.032334717,go-nogo,001,39,
logos/2.jpg,properties2.xlsx,frogs/ab6.jpg,0,0,400,l,0,1,1,1,0,48,48,5,,,['l'],0,[0.2137770231202012],2018_Jul_09_0744,60.032334717,go-nogo,001,39,
logos/2.jpg,properties2.xlsx,frogs/ab75.jpg,0,0,400,l,0,1,1,1,0,49,49,73,,,['l'],0,[0.27399108841927955],2018_Jul_09_0744,60.032334717,go-nogo,001,39,
logos/2.jpg,properties2.xlsx,logos/2.jpg,0,0,400,a,0,1,1,1,0,50,50,84,,,['a'],0,[0.18221031234861584],2018_Jul_09_0744,60.032334717,go-nogo,001,39,
logos/2.jpg,properties2.xlsx,logos/2.jpg,0,0,400,a,0,1,1,1,0,51,51,86,,,['a'],0,[0.2707165185493068],2018_Jul_09_0744,60.032334717,go-nogo,001,39,
logos/2.jpg,properties2.xlsx,logos/2.jpg,0,0,400,a,0,1,1,1,0,52,52,89,,,['a'],0,[0.18002771201281575],2018_Jul_09_0744,60.032334717,go-nogo,001,39,
logos/2.jpg,properties2.xlsx,frogs/ab39.jpg,0,0,400,l,0,1,1,1,0,53,53,38,,,['l'],0,[0.21198221253871452],2018_Jul_09_0744,60.032334717,go-nogo,001,39,
logos/2.jpg,properties2.xlsx,frogs/ab45.jpg,0,0,400,l,0,1,1,1,0,54,54,44,,,['l'],0,[0.15234916250483366],2018_Jul_09_0744,60.032334717,go-nogo,001,39,
logos/2.jpg,properties2.xlsx,frogs/ab80.jpg,0,0,400,l,0,1,1,1,0,55,55,78,,,['l'],0,[0.24115614003676455],2018_Jul_09_0744,60.032334717,go-nogo,001,39,
logos/2.jpg,properties2.xlsx,logos/2.jpg,0,0,400,a,0,1,1,1,0,56,56,81,,,['a'],0,[0.15131966772605665],2018_Jul_09_0744,60.032334717,go-nogo,001,39,
logos/2.jpg,properties2.xlsx,frogs/ab5.jpg,0,0,400,l,0,1,1,1,0,57,57,4,,,['l'],0,[0.2420093667533365],2018_Jul_09_0744,60.032334717,go-nogo,001,39,
logos/2.jpg,properties2.xlsx,frogs/ab63.jpg,0,0,400,l,0,1,1,1,0,58,58,61,,,['l'],0,[0.1521983305865433],2018_Jul_09_0744,60.032334717,go-nogo,001,39,
logos/2.jpg,properties2.xlsx,frogs/ab47.jpg,0,0,400,l,0,1,1,1,0,59,59,46,,,['l'],0,[0.33360762727534166],2018_Jul_09_0744,60.032334717,go-nogo,001,39,
logos/2.jpg,properties2.xlsx,frogs/ab11.jpg,0,0,400,l,0,1,1,1,0,60,60,10,,,['l'],0,[0.4844850629524444],2018_Jul_09_0744,60.032334717,go-nogo,001,39,
logos/2.jpg,properties2.xlsx,frogs/ab53.jpg,0,0,400,l,0,1,1,1,0,61,61,52,,,['l'],0,[0.24182461995951599],2018_Jul_09_0744,60.032334717,go-nogo,001,39,
logos/2.jpg,properties2.xlsx,frogs/ab50.jpg,0,0,400,l,0,1,1,1,0,62,62,49,,,['l'],0,[0.2732320201030234],2018_Jul_09_0744,60.032334717,go-nogo,001,39,
logos/2.jpg,properties2.xlsx,frogs/ab65.jpg,0,0,400,l,0,1,1,1,0,63,63,63,,,['l'],0,[0.21307328958209837],2018_Jul_09_0744,60.032334717,go-nogo,001,39,
logos/2.jpg,properties2.xlsx,frogs/ab71.jpg,0,0,400,l,0,1,1,1,0,64,64,69,,,['l'],0,[0.18337992909073364],2018_Jul_09_0744,60.032334717,go-nogo,001,39,
logos/2.jpg,properties2.xlsx,frogs/ab73.jpg,0,0,400,l,0,1,1,1,0,65,65,71,,,['l'],0,[0.2117367759856279],2018_Jul_09_0744,60.032334717,go-nogo,001,39,
logos/2.jpg,properties2.xlsx,frogs/ab69.jpg,0,0,400,l,0,1,1,1,0,66,66,67,,,['l'],0,[0.24406166258995654],2018_Jul_09_0744,60.032334717,go-nogo,001,39,
logos/2.jpg,properties2.xlsx,frogs/ab4.jpg,0,0,400,l,0,1,1,1,0,67,67,3,,,['l'],0,[0.21433795720804483],2018_Jul_09_0744,60.032334717,go-nogo,001,39,
logos/2.jpg,properties2.xlsx,frogs/ab56.jpg,0,0,400,l,0,1,1,1,0,68,68,55,,,['l'],0,[1.0900435315197683],2018_Jul_09_0744,60.032334717,go-nogo,001,39,
logos/2.jpg,properties2.xlsx,frogs/ab16.jpg,0,0,400,l,0,1,1,1,0,69,69,15,,,['l'],0,[0.33321626753604505],2018_Jul_09_0744,60.032334717,go-nogo,001,39,
logos/2.jpg,properties2.xlsx,frogs/ab55.jpg,0,0,400,l,0,1,1,1,0,70,70,54,,,['l'],0,[0.3642564053370734],2018_Jul_09_0744,60.032334717,go-nogo,001,39,
logos/2.jpg,properties2.xlsx,frogs/ab32.jpg,0,0,400,l,0,1,1,1,0,71,71,31,,,['l'],0,[0.061879017630417366],2018_Jul_09_0744,60.032334717,go-nogo,001,39,
logos/2.jpg,properties2.xlsx,frogs/ab13.jpg,0,0,400,l,0,1,1,1,0,72,72,12,,,['l'],0,[0.18316260618303204],2018_Jul_09_0744,60.032334717,go-nogo,001,39,
logos/2.jpg,properties2.xlsx,frogs/ab20.jpg,0,0,400,l,0,1,1,1,0,73,73,19,,,['l'],0,[0.1810612230328843],2018_Jul_09_0744,60.032334717,go-nogo,001,39,
logos/2.jpg,properties2.xlsx,frogs/ab36.jpg,0,0,400,l,0,1,1,1,0,74,74,35,,,['l'],0,[0.18341830644203583],2018_Jul_09_0744,60.032334717,go-nogo,001,39,
logos/2.jpg,properties2.xlsx,frogs/ab19.jpg,0,0,400,l,0,1,1,1,0,75,75,18,,,['l'],0,[0.15274007599509787],2018_Jul_09_0744,60.032334717,go-nogo,001,39,
logos/2.jpg,properties2.xlsx,frogs/ab60.jpg,0,0,400,l,0,1,1,1,0,76,76,58,,,['l'],0,[0.12189048621075926],2018_Jul_09_0744,60.032334717,go-nogo,001,39,
logos/2.jpg,properties2.xlsx,frogs/ab23.jpg,0,0,400,l,0,1,1,1,0,77,77,22,,,['l'],0,[0.12413779254711699],2018_Jul_09_0744,60.032334717,go-nogo,001,39,
logos/2.jpg,properties2.xlsx,frogs/ab44.jpg,0,0,400,l,0,1,1,1,0,78,78,43,,,['l'],0,[0.12200383327581221],2018_Jul_09_0744,60.032334717,go-nogo,001,39,
logos/2.jpg,properties2.xlsx,frogs/ab48.jpg,0,0,400,l,0,1,1,1,0,79,79,47,,,['l'],0,[0.1817395204125205],2018_Jul_09_0744,60.032334717,go-nogo,001,39,
logos/2.jpg,properties2.xlsx,frogs/ab78.jpg,0,0,400,l,0,1,1,1,0,80,80,76,,,['l'],0,[0.06013820309453877],2018_Jul_09_0744,60.032334717,go-nogo,001,39,
logos/2.jpg,properties2.xlsx,logos/2.jpg,0,0,400,a,0,1,1,1,0,81,81,80,,,['a'],0,[0.09103777269046986],2018_Jul_09_0744,60.032334717,go-nogo,001,39,
logos/2.jpg,properties2.xlsx,frogs/ab76.jpg,0,0,400,l,0,1,1,1,0,82,82,74,,,['l'],0,[0.06129220113507472],2018_Jul_09_0744,60.032334717,go-nogo,001,39,
logos/2.jpg,properties2.xlsx,frogs/ab58.jpg,0,0,400,l,0,1,1,1,0,83,83,57,,,['l'],0,[0.276106751516636],2018_Jul_09_0744,60.032334717,go-nogo,001,39,
logos/2.jpg,properties2.xlsx,frogs/ab42.jpg,0,0,400,l,0,1,1,1,0,84,84,41,,,['l'],0,[0.1513946374398074],2018_Jul_09_0744,60.032334717,go-nogo,001,39,
logos/2.jpg,properties2.xlsx,frogs/ab15.jpg,0,0,400,l,0,1,1,1,0,85,85,14,,,['l'],0,[0.12160354857041966],2018_Jul_09_0744,60.032334717,go-nogo,001,39,
logos/2.jpg,properties2.xlsx,frogs/ab34.jpg,0,0,400,l,0,1,1,1,0,86,86,33,,,['l'],0,[0.6498619977137423],2018_Jul_09_0744,60.032334717,go-nogo,001,39,
logos/2.jpg,properties2.xlsx,frogs/ab41.jpg,0,0,400,l,0,1,1,1,0,87,87,40,,,['l'],0,[0.26827598670934094],2018_Jul_09_0744,60.032334717,go-nogo,001,39,
logos/2.jpg,properties2.xlsx,frogs/ab18.jpg,0,0,400,l,0,1,1,1,0,88,88,17,,,['l'],0,[0.1846361179923406],2018_Jul_09_0744,60.032334717,go-nogo,001,39,
logos/2.jpg,properties2.xlsx,frogs/ab31.jpg,0,0,400,l,0,1,1,1,0,89,89,30,,,['l'],0,[0.1680664731466095],2018_Jul_09_0744,60.032334717,go-nogo,001,39,
logos/2.jpg,properties2.xlsx,,,,,,0,1,1,1,,,,,,,,,,2018_Jul_09_0744,60.032334717,go-nogo,001,39,
logos/3.jpg,properties3.xlsx,frogs/ab28.jpg,0,0,400,l,0,2,2,2,0,0,0,27,space,1.59951403562,['l'],0,[0.01795569200476166],2018_Jul_09_0744,60.032334717,go-nogo,001,39,
logos/3.jpg,properties3.xlsx,frogs/ab45.jpg,0,0,400,l,0,2,2,2,0,1,1,44,,,['l'],0,[0.13472726420877734],2018_Jul_09_0744,60.032334717,go-nogo,001,39,
logos/3.jpg,properties3.xlsx,frogs/ab64.jpg,0,0,400,l,0,2,2,2,0,2,2,62,,,['l'],0,[0.1179425276859547],2018_Jul_09_0744,60.032334717,go-nogo,001,39,
logos/3.jpg,properties3.xlsx,frogs/ab49.jpg,0,0,400,l,0,2,2,2,0,3,3,48,,,['l'],0,[0.03479977955430513],2018_Jul_09_0744,60.032334717,go-nogo,001,39,
logos/3.jpg,properties3.xlsx,logos/3.jpg,0,0,400,a,0,2,2,2,0,4,4,86,,,['a'],0,[0.06823627061385196],2018_Jul_09_0744,60.032334717,go-nogo,001,39,
logos/3.jpg,properties3.xlsx,frogs/ab74.jpg,0,0,400,l,0,2,2,2,0,5,5,72,,,['l'],0,[0.0010509146959520876],2018_Jul_09_0744,60.032334717,go-nogo,001,39,
logos/3.jpg,properties3.xlsx,frogs/ab46.jpg,0,0,400,l,0,2,2,2,0,6,6,45,,,['l'],0,[0.7347602865775116],2018_Jul_09_0744,60.032334717,go-nogo,001,39,
logos/3.jpg,properties3.xlsx,frogs/ab69.jpg,0,0,400,l,0,2,2,2,0,7,7,67,,,['l'],0,[0.40117809546063654],2018_Jul_09_0744,60.032334717,go-nogo,001,39,
logos/3.jpg,properties3.xlsx,frogs/ab2.jpg,0,0,400,l,0,2,2,2,0,8,8,1,,,['l'],0,[0.6866248234582599],2018_Jul_09_0744,60.032334717,go-nogo,001,39,
logos/3.jpg,properties3.xlsx,frogs/ab48.jpg,0,0,400,l,0,2,2,2,0,9,9,47,,,['l'],0,[0.11773368349531665],2018_Jul_09_0744,60.032334717,go-nogo,001,39,
logos/3.jpg,properties3.xlsx,frogs/ab68.jpg,0,0,400,l,0,2,2,2,0,10,10,66,,,['l'],0,[0.21778522516251542],2018_Jul_09_0744,60.032334717,go-nogo,001,39,
logos/3.jpg,properties3.xlsx,frogs/ab57.jpg,0,0,400,l,0,2,2,2,0,11,11,56,,,['l'],0,[0.2841932165756589],2018_Jul_09_0744,60.032334717,go-nogo,001,39,
logos/3.jpg,properties3.xlsx,frogs/ab9.jpg,0,0,400,l,0,2,2,2,0,12,12,8,,,['l'],0,[0.3017517476255307],2018_Jul_09_0744,60.032334717,go-nogo,001,39,
logos/3.jpg,properties3.xlsx,frogs/ab18.jpg,0,0,400,l,0,2,2,2,0,13,13,17,,,['l'],0,[0.5011939372707275],2018_Jul_09_0744,60.032334717,go-nogo,001,39,
logos/3.jpg,properties3.xlsx,frogs/ab32.jpg,0,0,400,l,0,2,2,2,0,14,14,31,,,['l'],0,[0.16786878515267745],2018_Jul_09_0744,60.032334717,go-nogo,001,39,
logos/3.jpg,properties3.xlsx,frogs/ab66.jpg,0,0,400,l,0,2,2,2,0,15,15,64,,,['l'],0,[0.2843904583132826],2018_Jul_09_0744,60.032334717,go-nogo,001,39,
logos/3.jpg,properties3.xlsx,frogs/ab43.jpg,0,0,400,l,0,2,2,2,0,16,16,42,,,['l'],0,[0.18372889524471248],2018_Jul_09_0744,60.032334717,go-nogo,001,39,
logos/3.jpg,properties3.xlsx,frogs/ab52.jpg,0,0,400,l,0,2,2,2,0,17,17,51,,,['l'],0,[0.23435130003053928],2018_Jul_09_0744,60.032334717,go-nogo,001,39,
logos/3.jpg,properties3.xlsx,frogs/ab3.jpg,0,0,400,l,0,2,2,2,0,18,18,2,,,['l'],0,[0.16767868339229608],2018_Jul_09_0744,60.032334717,go-nogo,001,39,
logos/3.jpg,properties3.xlsx,logos/3.jpg,0,0,400,a,0,2,2,2,0,19,19,83,,,['a'],0,[0.31758374406490475],2018_Jul_09_0744,60.032334717,go-nogo,001,39,
logos/3.jpg,properties3.xlsx,frogs/ab70.jpg,0,0,400,l,0,2,2,2,0,20,20,68,,,['l'],0,[0.13388385495636612],2018_Jul_09_0744,60.032334717,go-nogo,001,39,
logos/3.jpg,properties3.xlsx,logos/3.jpg,0,0,400,a,0,2,2,2,0,21,21,81,,,['a'],0,[0.2515041913866298],2018_Jul_09_0744,60.032334717,go-nogo,001,39,
logos/3.jpg,properties3.xlsx,frogs/ab38.jpg,0,0,400,l,0,2,2,2,0,22,22,37,,,['l'],0,[0.28456583389197476],2018_Jul_09_0744,60.032334717,go-nogo,001,39,
logos/3.jpg,properties3.xlsx,frogs/ab39.jpg,0,0,400,l,0,2,2,2,0,23,23,38,,,['l'],0,[0.15065029530524043],2018_Jul_09_0744,60.032334717,go-nogo,001,39,
logos/3.jpg,properties3.xlsx,frogs/ab30.jpg,0,0,400,l,0,2,2,2,0,24,24,29,,,['l'],0,[0.18396853056765394],2018_Jul_09_0744,60.032334717,go-nogo,001,39,
logos/3.jpg,properties3.xlsx,frogs/ab71.jpg,0,0,400,l,0,2,2,2,0,25,25,69,,,['l'],0,[0.21804806539876154],2018_Jul_09_0744,60.032334717,go-nogo,001,39,
logos/3.jpg,properties3.xlsx,frogs/ab1.jpg,0,0,400,l,0,2,2,2,0,26,26,0,,,['l'],0,[0.14801341422571568],2018_Jul_09_0744,60.032334717,go-nogo,001,39,
logos/3.jpg,properties3.xlsx,frogs/ab22.jpg,0,0,400,l,0,2,2,2,0,27,27,21,,,['l'],0,[0.07127834513812559],2018_Jul_09_0744,60.032334717,go-nogo,001,39,
logos/3.jpg,properties3.xlsx,frogs/ab73.jpg,0,0,400,l,0,2,2,2,0,28,28,71,,,['l'],0,[0.2656212556976243],2018_Jul_09_0744,60.032334717,go-nogo,001,39,
logos/3.jpg,properties3.xlsx,frogs/ab23.jpg,0,0,400,l,0,2,2,2,0,29,29,22,,,['l'],0,[0.055771217434084974],2018_Jul_09_0744,60.032334717,go-nogo,001,39,
logos/3.jpg,properties3.xlsx,frogs/ab60.jpg,0,0,400,l,0,2,2,2,0,30,30,58,,,['l'],0,[0.19956356918555684],2018_Jul_09_0744,60.032334717,go-nogo,001,39,
logos/3.jpg,properties3.xlsx,frogs/ab6.jpg,0,0,400,l,0,2,2,2,0,31,31,5,,,['l'],0,[0.150269199271861],2018_Jul_09_0744,60.032334717,go-nogo,001,39,
logos/3.jpg,properties3.xlsx,frogs/ab36.jpg,0,0,400,l,0,2,2,2,0,32,32,35,,,['l'],0,[0.22406036846950883],2018_Jul_09_0744,60.032334717,go-nogo,001,39,
logos/3.jpg,properties3.xlsx,frogs/ab24.jpg,0,0,400,l,0,2,2,2,0,33,33,23,,,['l'],0,[0.16243392736214446],2018_Jul_09_0744,60.032334717,go-nogo,001,39,
logos/3.jpg,properties3.xlsx,logos/3.jpg,0,0,400,a,0,2,2,2,0,34,34,80,,,['a'],0,[0.2284139666808187],2018_Jul_09_0744,60.032334717,go-nogo,001,39,
logos/3.jpg,properties3.xlsx,logos/3.jpg,0,0,400,a,0,2,2,2,0,35,35,84,,,['a'],0,[0.19344015030219452],2018_Jul_09_0744,60.032334717,go-nogo,001,39,
logos/3.jpg,properties3.xlsx,frogs/ab76.jpg,0,0,400,l,0,2,2,2,0,36,36,74,,,['l'],0,[0.0015881976287346333],2018_Jul_09_0744,60.032334717,go-nogo,001,39,
logos/3.jpg,properties3.xlsx,frogs/ab42.jpg,0,0,400,l,0,2,2,2,0,37,37,41,,,['l'],0,[0.06535529172833776],2018_Jul_09_0744,60.032334717,go-nogo,001,39,
logos/3.jpg,properties3.xlsx,frogs/ab72.jpg,0,0,400,l,0,2,2,2,0,38,38,70,,,['l'],0,[0.03510501337586902],2018_Jul_09_0744,60.032334717,go-nogo,001,39,
logos/3.jpg,properties3.xlsx,frogs/ab5.jpg,0,0,400,l,0,2,2,2,0,39,39,4,,,['l'],0,[0.06466271440149285],2018_Jul_09_0744,60.032334717,go-nogo,001,39,
logos/3.jpg,properties3.xlsx,frogs/ab15.jpg,0,0,400,l,0,2,2,2,0,40,40,14,,,['l'],0,[0.12589511826081434],2018_Jul_09_0744,60.032334717,go-nogo,001,39,
logos/3.jpg,properties3.xlsx,frogs/ab67.jpg,0,0,400,l,0,2,2,2,0,41,41,65,,,['l'],0,[0.12765512147598201],2018_Jul_09_0744,60.032334717,go-nogo,001,39,
logos/3.jpg,properties3.xlsx,frogs/ab17.jpg,0,0,400,l,0,2,2,2,0,42,42,16,,,['l'],0,[0.0015386640661745332],2018_Jul_09_0744,60.032334717,go-nogo,001,39,
logos/3.jpg,properties3.xlsx,frogs/ab78.jpg,0,0,400,l,0,2,2,2,0,43,43,76,,,['l'],0,[0.16100325537991012],2018_Jul_09_0744,60.032334717,go-nogo,001,39,
logos/3.jpg,properties3.xlsx,frogs/ab13.jpg,0,0,400,l,0,2,2,2,0,44,44,12,,,['l'],0,[0.0949228102035704],2018_Jul_09_0744,60.032334717,go-nogo,001,39,
logos/3.jpg,properties3.xlsx,frogs/ab33.jpg,0,0,400,l,0,2,2,2,0,45,45,32,,,['l'],0,[0.3781842603784753],2018_Jul_09_0744,60.032334717,go-nogo,001,39,
logos/3.jpg,properties3.xlsx,frogs/ab26.jpg,0,0,400,l,0,2,2,2,0,46,46,25,,,['l'],0,[0.31316186986805405],2018_Jul_09_0744,60.032334717,go-nogo,001,39,
logos/3.jpg,properties3.xlsx,frogs/ab61.jpg,0,0,400,l,0,2,2,2,0,47,47,59,,,['l'],0,[0.7221118253582972],2018_Jul_09_0744,60.032334717,go-nogo,001,39,
logos/3.jpg,properties3.xlsx,frogs/ab12.jpg,0,0,400,l,0,2,2,2,0,48,48,11,,,['l'],0,[0.31445643612823915],2018_Jul_09_0744,60.032334717,go-nogo,001,39,
logos/3.jpg,properties3.xlsx,frogs/ab41.jpg,0,0,400,l,0,2,2,2,0,49,49,40,,,['l'],0,[0.2492832137068035],2018_Jul_09_0744,60.032334717,go-nogo,001,39,
logos/3.jpg,properties3.xlsx,frogs/ab79.jpg,0,0,400,l,0,2,2,2,0,50,50,77,,,['l'],0,[0.21938100901024882],2018_Jul_09_0744,60.032334717,go-nogo,001,39,
logos/3.jpg,properties3.xlsx,frogs/ab63.jpg,0,0,400,l,0,2,2,2,0,51,51,61,,,['l'],0,[0.22074875998077914],2018_Jul_09_0744,60.032334717,go-nogo,001,39,
logos/3.jpg,properties3.xlsx,frogs/ab65.jpg,0,0,400,l,0,2,2,2,0,52,52,63,,,['l'],0,[0.19264359711814905],2018_Jul_09_0744,60.032334717,go-nogo,001,39,
logos/3.jpg,properties3.xlsx,frogs/ab27.jpg,0,0,400,l,0,2,2,2,0,53,53,26,,,['l'],0,[0.18827125648385845],2018_Jul_09_0744,60.032334717,go-nogo,001,39,
logos/3.jpg,properties3.xlsx,frogs/ab55.jpg,0,0,400,l,0,2,2,2,0,54,54,54,,,['l'],0,[0.4302252884444897],2018_Jul_09_0744,60.032334717,go-nogo,001,39,
logos/3.jpg,properties3.xlsx,logos/3.jpg,0,0,400,a,0,2,2,2,0,55,55,82,,,['a'],0,[0.21581236152269412],2018_Jul_09_0744,60.032334717,go-nogo,001,39,
logos/3.jpg,properties3.xlsx,frogs/ab11.jpg,0,0,400,l,0,2,2,2,0,56,56,10,,,['l'],0,[0.24596357275004266],2018_Jul_09_0744,60.032334717,go-nogo,001,39,
logos/3.jpg,properties3.xlsx,frogs/ab54.jpg,0,0,400,l,0,2,2,2,0,57,57,53,,,['l'],0,[0.24578596594074043],2018_Jul_09_0744,60.032334717,go-nogo,001,39,
logos/3.jpg,properties3.xlsx,frogs/ab19.jpg,0,0,400,l,0,2,2,2,0,58,58,18,,,['l'],0,[0.24974552691855934],2018_Jul_09_0744,60.032334717,go-nogo,001,39,
logos/3.jpg,properties3.xlsx,frogs/ab29.jpg,0,0,400,l,0,2,2,2,0,59,59,28,,,['l'],0,[0.24828763378900476],2018_Jul_09_0744,60.032334717,go-nogo,001,39,
logos/3.jpg,properties3.xlsx,frogs/ab14.jpg,0,0,400,l,0,2,2,2,0,60,60,13,,,['l'],0,[0.2159172298706835],2018_Jul_09_0744,60.032334717,go-nogo,001,39,
logos/3.jpg,properties3.xlsx,logos/3.jpg,0,0,400,a,0,2,2,2,0,61,61,87,,,['a'],0,[0.21352176910295384],2018_Jul_09_0744,60.032334717,go-nogo,001,39,
logos/3.jpg,properties3.xlsx,frogs/ab10.jpg,0,0,400,l,0,2,2,2,0,62,62,9,,,['l'],0,[0.21303312724194257],2018_Jul_09_0744,60.032334717,go-nogo,001,39,
logos/3.jpg,properties3.xlsx,frogs/ab7.jpg,0,0,400,l,0,2,2,2,0,63,63,6,,,['l'],0,[0.2187415352309472],2018_Jul_09_0744,60.032334717,go-nogo,001,39,
logos/3.jpg,properties3.xlsx,frogs/ab62.jpg,0,0,400,l,0,2,2,2,0,64,64,60,,,['l'],0,[0.2503194022065145],2018_Jul_09_0744,60.032334717,go-nogo,001,39,
logos/3.jpg,properties3.xlsx,frogs/ab8.jpg,0,0,400,l,0,2,2,2,0,65,65,7,,,['l'],0,[0.2738407027500216],2018_Jul_09_0744,60.032334717,go-nogo,001,39,
logos/3.jpg,properties3.xlsx,frogs/ab21.jpg,0,0,400,l,0,2,2,2,0,66,66,20,,,['l'],0,[0.21953362592466874],2018_Jul_09_0744,60.032334717,go-nogo,001,39,
logos/3.jpg,properties3.xlsx,frogs/ab25.jpg,0,0,400,l,0,2,2,2,0,67,67,24,,,['l'],0,[0.1924191342332051],2018_Jul_09_0744,60.032334717,go-nogo,001,39,
logos/3.jpg,properties3.xlsx,frogs/ab75.jpg,0,0,400,l,0,2,2,2,0,68,68,73,,,['l'],0,[0.25287328110425733],2018_Jul_09_0744,60.032334717,go-nogo,001,39,
logos/3.jpg,properties3.xlsx,frogs/ab81.jpg,0,0,400,l,0,2,2,2,0,69,69,79,,,['l'],0,[0.2946229313602089],2018_Jul_09_0744,60.032334717,go-nogo,001,39,
logos/3.jpg,properties3.xlsx,frogs/ab58.jpg,0,0,400,l,0,2,2,2,0,70,70,57,,,['l'],0,[1.0133240811192081],2018_Jul_09_0744,60.032334717,go-nogo,001,39,
logos/3.jpg,properties3.xlsx,logos/3.jpg,0,0,400,a,0,2,2,2,0,71,71,89,,,['a'],0,[0.3944116327984375],2018_Jul_09_0744,60.032334717,go-nogo,001,39,
logos/3.jpg,properties3.xlsx,frogs/ab51.jpg,0,0,400,l,0,2,2,2,0,72,72,50,,,['l'],0,[0.36912586655671475],2018_Jul_09_0744,60.032334717,go-nogo,001,39,
logos/3.jpg,properties3.xlsx,frogs/ab80.jpg,0,0,400,l,0,2,2,2,0,73,73,78,,,['l'],0,[1.6942431740753818],2018_Jul_09_0744,60.032334717,go-nogo,001,39,
logos/3.jpg,properties3.xlsx,frogs/ab47.jpg,0,0,400,l,0,2,2,2,0,74,74,46,,,['l'],0,[0.43533304624725133],2018_Jul_09_0744,60.032334717,go-nogo,001,39,
logos/3.jpg,properties3.xlsx,frogs/ab35.jpg,0,0,400,l,0,2,2,2,0,75,75,34,,,['l'],0,[0.33560414207022404],2018_Jul_09_0744,60.032334717,go-nogo,001,39,
logos/3.jpg,properties3.xlsx,frogs/ab16.jpg,0,0,400,l,0,2,2,2,0,76,76,15,,,['l'],0,[0.3016669604476192],2018_Jul_09_0744,60.032334717,go-nogo,001,39,
logos/3.jpg,properties3.xlsx,frogs/ab37.jpg,0,0,400,l,0,2,2,2,0,77,77,36,,,['l'],0,[0.3028258672275115],2018_Jul_09_0744,60.032334717,go-nogo,001,39,
logos/3.jpg,properties3.xlsx,frogs/ab44.jpg,0,0,400,l,0,2,2,2,0,78,78,43,,,['l'],0,[0.30138091529806843],2018_Jul_09_0744,60.032334717,go-nogo,001,39,
logos/3.jpg,properties3.xlsx,frogs/ab77.jpg,0,0,400,l,0,2,2,2,0,79,79,75,,,['l'],0,[0.2405389786727028],2018_Jul_09_0744,60.032334717,go-nogo,001,39,
logos/3.jpg,properties3.xlsx,frogs/ab50.jpg,0,0,400,l,0,2,2,2,0,80,80,49,,,['l'],0,[0.21228923136368394],2018_Jul_09_0744,60.032334717,go-nogo,001,39,
logos/3.jpg,properties3.xlsx,frogs/ab53.jpg,0,0,400,l,0,2,2,2,0,81,81,52,,,['l'],0,[0.2704875931813149],2018_Jul_09_0744,60.032334717,go-nogo,001,39,
logos/3.jpg,properties3.xlsx,frogs/ab4.jpg,0,0,400,l,0,2,2,2,0,82,82,3,,,['l'],0,[0.18328487820690498],2018_Jul_09_0744,60.032334717,go-nogo,001,39,
logos/3.jpg,properties3.xlsx,frogs/ab34.jpg,0,0,400,l,0,2,2,2,0,83,83,33,,,['l'],0,[0.24346725987561513],2018_Jul_09_0744,60.032334717,go-nogo,001,39,
logos/3.jpg,properties3.xlsx,frogs/ab40.jpg,0,0,400,l,0,2,2,2,0,84,84,39,,,['l'],0,[0.21075770726019982],2018_Jul_09_0744,60.032334717,go-nogo,001,39,
logos/3.jpg,properties3.xlsx,frogs/ab20.jpg,0,0,400,l,0,2,2,2,0,85,85,19,,,['l'],0,[0.24222579717024928],2018_Jul_09_0744,60.032334717,go-nogo,001,39,
logos/3.jpg,properties3.xlsx,logos/3.jpg,0,0,400,a,0,2,2,2,0,86,86,85,,,['a'],0,[0.3606324230568134],2018_Jul_09_0744,60.032334717,go-nogo,001,39,
logos/3.jpg,properties3.xlsx,frogs/ab31.jpg,0,0,400,l,0,2,2,2,0,87,87,30,,,['l'],0,[0.36037493780168006],2018_Jul_09_0744,60.032334717,go-nogo,001,39,
logos/3.jpg,properties3.xlsx,frogs/ab56.jpg,0,0,400,l,0,2,2,2,0,88,88,55,,,['l'],0,[0.03057693209120771],2018_Jul_09_0744,60.032334717,go-nogo,001,39,
logos/3.jpg,properties3.xlsx,logos/3.jpg,0,0,400,a,0,2,2,2,0,89,89,88,,,['a'],0,[0.30135369415802415],2018_Jul_09_0744,60.032334717,go-nogo,001,39,
logos/3.jpg,properties3.xlsx,,,,,,0,2,2,2,,,,,,,,,,2018_Jul_09_0744,60.032334717,go-nogo,001,39,
logos/1.jpg,properties1.xlsx,logos/1.jpg,0,0,400,a,0,3,3,0,0,0,0,87,space,0.87389782253,['a'],0,[1.1178804991723155],2018_Jul_09_0744,60.032334717,go-nogo,001,39,
logos/1.jpg,properties1.xlsx,frogs/ab26.jpg,0,0,400,l,0,3,3,0,0,1,1,25,,,['l'],0,[0.5344434503058437],2018_Jul_09_0744,60.032334717,go-nogo,001,39,
logos/1.jpg,properties1.xlsx,frogs/ab51.jpg,0,0,400,l,0,3,3,0,0,2,2,50,,,['l'],0,[0.30024253593728645],2018_Jul_09_0744,60.032334717,go-nogo,001,39,
logos/1.jpg,properties1.xlsx,frogs/ab67.jpg,0,0,400,l,0,3,3,0,0,3,3,65,,,['l'],0,[0.5343546469011926],2018_Jul_09_0744,60.032334717,go-nogo,001,39,
logos/1.jpg,properties1.xlsx,frogs/ab41.jpg,0,0,400,l,0,3,3,0,0,4,4,40,,,['l'],0,[0.9508578007516917],2018_Jul_09_0744,60.032334717,go-nogo,001,39,
logos/1.jpg,properties1.xlsx,frogs/ab23.jpg,0,0,400,l,0,3,3,0,0,5,5,22,,,['l'],0,[0.3015000635859906],2018_Jul_09_0744,60.032334717,go-nogo,001,39,
logos/1.jpg,properties1.xlsx,frogs/ab81.jpg,0,0,400,l,0,3,3,0,0,6,6,79,,,['l'],0,[0.3336513596077566],2018_Jul_09_0744,60.032334717,go-nogo,001,39,
logos/1.jpg,properties1.xlsx,frogs/ab80.jpg,0,0,400,l,0,3,3,0,0,7,7,78,,,['l'],0,[0.28359122764959466],2018_Jul_09_0744,60.032334717,go-nogo,001,39,
logos/1.jpg,properties1.xlsx,frogs/ab50.jpg,0,0,400,l,0,3,3,0,0,8,8,49,,,['l'],0,[0.2676298192018294],2018_Jul_09_0744,60.032334717,go-nogo,001,39,
logos/1.jpg,properties1.xlsx,frogs/ab40.jpg,0,0,400,l,0,3,3,0,0,9,9,39,,,['l'],0,[0.31768995115271537],2018_Jul_09_0744,60.032334717,go-nogo,001,39,
logos/1.jpg,properties1.xlsx,frogs/ab64.jpg,0,0,400,l,0,3,3,0,0,10,10,62,,,['l'],0,[0.2509892208763631],2018_Jul_09_0744,60.032334717,go-nogo,001,39,
logos/1.jpg,properties1.xlsx,frogs/ab43.jpg,0,0,400,l,0,3,3,0,0,11,11,42,,,['l'],0,[0.31750877435842995],2018_Jul_09_0744,60.032334717,go-nogo,001,39,
logos/1.jpg,properties1.xlsx,frogs/ab20.jpg,0,0,400,l,0,3,3,0,0,12,12,19,,,['l'],0,[0.2675294133441639],2018_Jul_09_0744,60.032334717,go-nogo,001,39,
logos/1.jpg,properties1.xlsx,frogs/ab56.jpg,0,0,400,l,0,3,3,0,0,13,13,55,,,['l'],0,[0.4029122162683052],2018_Jul_09_0744,60.032334717,go-nogo,001,39,
logos/1.jpg,properties1.xlsx,frogs/ab13.jpg,0,0,400,l,0,3,3,0,0,14,14,12,,,['l'],0,[0.30096858189062914],2018_Jul_09_0744,60.032334717,go-nogo,001,39,
logos/1.jpg,properties1.xlsx,logos/1.jpg,0,0,400,a,0,3,3,0,0,15,15,83,,,['a'],0,[0.36817223398247734],2018_Jul_09_0744,60.032334717,go-nogo,001,39,
logos/1.jpg,properties1.xlsx,frogs/ab27.jpg,0,0,400,l,0,3,3,0,0,16,16,26,,,['l'],0,[0.7679450936120702],2018_Jul_09_0744,60.032334717,go-nogo,001,39,
logos/1.jpg,properties1.xlsx,frogs/ab76.jpg,0,0,400,l,0,3,3,0,0,17,17,74,,,['l'],0,[0.051202081303927116],2018_Jul_09_0744,60.032334717,go-nogo,001,39,
logos/1.jpg,properties1.xlsx,frogs/ab21.jpg,0,0,400,l,0,3,3,0,0,18,18,20,,,['l'],0,[0.9842501132370671],2018_Jul_09_0744,60.032334717,go-nogo,001,39,
logos/1.jpg,properties1.xlsx,frogs/ab78.jpg,0,0,400,l,0,3,3,0,0,19,19,76,,,['l'],0,[0.0003503049010760151],2018_Jul_09_0744,60.032334717,go-nogo,001,39,
logos/1.jpg,properties1.xlsx,logos/1.jpg,0,0,400,a,0,3,3,0,0,20,20,84,,,['a'],0,[0.23456773044745205],2018_Jul_09_0744,60.032334717,go-nogo,001,39,
logos/1.jpg,properties1.xlsx,frogs/ab77.jpg,0,0,400,l,0,3,3,0,0,21,21,75,,,['l'],0,[0.034407973565976135],2018_Jul_09_0744,60.032334717,go-nogo,001,39,
logos/1.jpg,properties1.xlsx,frogs/ab75.jpg,0,0,400,l,0,3,3,0,0,22,22,73,,,['l'],0,[0.31764175633725245],2018_Jul_09_0744,60.032334717,go-nogo,001,39,
logos/1.jpg,properties1.xlsx,frogs/ab72.jpg,0,0,400,l,0,3,3,0,0,23,23,70,,,['l'],0,[0.30105515405739425],2018_Jul_09_0744,60.032334717,go-nogo,001,39,
logos/1.jpg,properties1.xlsx,logos/1.jpg,0,0,400,a,0,3,3,0,0,24,24,89,,,['a'],0,[0.36784602649277076],2018_Jul_09_0744,60.032334717,go-nogo,001,39,
logos/1.jpg,properties1.xlsx,frogs/ab2.jpg,0,0,400,l,0,3,3,0,0,25,25,1,,,['l'],0,[0.25156934363621986],2018_Jul_09_0744,60.032334717,go-nogo,001,39,
logos/1.jpg,properties1.xlsx,frogs/ab8.jpg,0,0,400,l,0,3,3,0,0,26,26,7,,,['l'],0,[0.0010379734958405606],2018_Jul_09_0744,60.032334717,go-nogo,001,39,
logos/1.jpg,properties1.xlsx,frogs/ab70.jpg,0,0,400,l,0,3,3,0,0,27,27,68,,,['l'],0,[0.18458212195400847],2018_Jul_09_0744,60.032334717,go-nogo,001,39,
logos/1.jpg,properties1.xlsx,frogs/ab22.jpg,0,0,400,l,0,3,3,0,0,28,28,21,,,['l'],0,[0.5838409035641234],2018_Jul_09_0744,60.032334717,go-nogo,001,39,
logos/1.jpg,properties1.xlsx,frogs/ab36.jpg,0,0,400,l,0,3,3,0,0,29,29,35,,,['l'],0,[0.25039838815428084],2018_Jul_09_0744,60.032334717,go-nogo,001,39,
logos/1.jpg,properties1.xlsx,frogs/ab10.jpg,0,0,400,l,0,3,3,0,0,30,30,9,,,['l'],0,[0.1848445159412222],2018_Jul_09_0744,60.032334717,go-nogo,001,39,
logos/1.jpg,properties1.xlsx,frogs/ab16.jpg,0,0,400,l,0,3,3,0,0,31,31,15,,,['l'],0,[0.28442749692476355],2018_Jul_09_0744,60.032334717,go-nogo,001,39,
logos/1.jpg,properties1.xlsx,frogs/ab12.jpg,0,0,400,l,0,3,3,0,0,32,32,11,,,['l'],0,[0.3010636327744578],2018_Jul_09_0744,60.032334717,go-nogo,001,39,
logos/1.jpg,properties1.xlsx,frogs/ab79.jpg,0,0,400,l,0,3,3,0,0,33,33,77,,,['l'],0,[2.18385205976665],2018_Jul_09_0744,60.032334717,go-nogo,001,39,
logos/1.jpg,properties1.xlsx,frogs/ab25.jpg,0,0,400,l,0,3,3,0,0,34,34,24,,,['l'],0,[0.2682871429133229],2018_Jul_09_0744,60.032334717,go-nogo,001,39,
logos/1.jpg,properties1.xlsx,frogs/ab34.jpg,0,0,400,l,0,3,3,0,0,35,35,33,,,['l'],0,[0.23375868231232744],2018_Jul_09_0744,60.032334717,go-nogo,001,39,
logos/1.jpg,properties1.xlsx,frogs/ab15.jpg,0,0,400,l,0,3,3,0,0,36,36,14,,,['l'],0,[0.2509918983632815],2018_Jul_09_0744,60.032334717,go-nogo,001,39,
logos/1.jpg,properties1.xlsx,frogs/ab68.jpg,0,0,400,l,0,3,3,0,0,37,37,66,,,['l'],0,[0.2504800515889656],2018_Jul_09_0744,60.032334717,go-nogo,001,39,
logos/1.jpg,properties1.xlsx,frogs/ab45.jpg,0,0,400,l,0,3,3,0,0,38,38,44,,,['l'],0,[0.20113927185593639],2018_Jul_09_0744,60.032334717,go-nogo,001,39,
logos/1.jpg,properties1.xlsx,frogs/ab19.jpg,0,0,400,l,0,3,3,0,0,39,39,18,,,['l'],0,[0.21798782188125188],2018_Jul_09_0744,60.032334717,go-nogo,001,39,
logos/1.jpg,properties1.xlsx,frogs/ab65.jpg,0,0,400,l,0,3,3,0,0,40,40,63,,,['l'],0,[0.18448171608906705],2018_Jul_09_0744,60.032334717,go-nogo,001,39,
logos/1.jpg,properties1.xlsx,frogs/ab74.jpg,0,0,400,l,0,3,3,0,0,41,41,72,,,['l'],0,[0.2675704681823845],2018_Jul_09_0744,60.032334717,go-nogo,001,39,
logos/1.jpg,properties1.xlsx,frogs/ab48.jpg,0,0,400,l,0,3,3,0,0,42,42,47,,,['l'],0,[0.18381859114742838],2018_Jul_09_0744,60.032334717,go-nogo,001,39,
logos/1.jpg,properties1.xlsx,frogs/ab37.jpg,0,0,400,l,0,3,3,0,0,43,43,36,,,['l'],0,[0.25079822660336504],2018_Jul_09_0744,60.032334717,go-nogo,001,39,
logos/1.jpg,properties1.xlsx,logos/1.jpg,0,0,400,a,0,3,3,0,0,44,44,80,,,['a'],0,[0.2858028341215686],2018_Jul_09_0744,60.032334717,go-nogo,001,39,
logos/1.jpg,properties1.xlsx,frogs/ab52.jpg,0,0,400,l,0,3,3,0,0,45,45,51,,,['l'],0,[0.15123086431412958],2018_Jul_09_0744,60.032334717,go-nogo,001,39,
logos/1.jpg,properties1.xlsx,frogs/ab28.jpg,0,0,400,l,0,3,3,0,0,46,46,27,,,['l'],0,[0.2511797688930528],2018_Jul_09_0744,60.032334717,go-nogo,001,39,
logos/1.jpg,properties1.xlsx,frogs/ab58.jpg,0,0,400,l,0,3,3,0,0,47,47,57,,,['l'],0,[0.28484741655847756],2018_Jul_09_0744,60.032334717,go-nogo,001,39,
logos/1.jpg,properties1.xlsx,frogs/ab62.jpg,0,0,400,l,0,3,3,0,0,48,48,60,,,['l'],0,[0.10121089470339939],2018_Jul_09_0744,60.032334717,go-nogo,001,39,
logos/1.jpg,properties1.xlsx,frogs/ab9.jpg,0,0,400,l,0,3,3,0,0,49,49,8,,,['l'],0,[0.3508328108509886],2018_Jul_09_0744,60.032334717,go-nogo,001,39,
logos/1.jpg,properties1.xlsx,frogs/ab69.jpg,0,0,400,l,0,3,3,0,0,50,50,67,,,['l'],0,[0.8180395866875187],2018_Jul_09_0744,60.032334717,go-nogo,001,39,
logos/1.jpg,properties1.xlsx,frogs/ab38.jpg,0,0,400,l,0,3,3,0,0,51,51,37,,,['l'],0,[0.31787871418055147],2018_Jul_09_0744,60.032334717,go-nogo,001,39,
logos/1.jpg,properties1.xlsx,frogs/ab24.jpg,0,0,400,l,0,3,3,0,0,52,52,23,,,['l'],0,[0.1346139171437244],2018_Jul_09_0744,60.032334717,go-nogo,001,39,
logos/1.jpg,properties1.xlsx,frogs/ab54.jpg,0,0,400,l,0,3,3,0,0,53,53,53,,,['l'],0,[0.2397808028399595],2018_Jul_09_0744,60.032334717,go-nogo,001,39,
logos/1.jpg,properties1.xlsx,frogs/ab44.jpg,0,0,400,l,0,3,3,0,0,54,54,43,,,['l'],0,[0.3032971054126392],2018_Jul_09_0744,60.032334717,go-nogo,001,39,
logos/1.jpg,properties1.xlsx,frogs/ab18.jpg,0,0,400,l,0,3,3,0,0,55,55,17,,,['l'],0,[0.18339465528697474],2018_Jul_09_0744,60.032334717,go-nogo,001,39,
logos/1.jpg,properties1.xlsx,frogs/ab5.jpg,0,0,400,l,0,3,3,0,0,56,56,4,,,['l'],0,[0.214696294577152],2018_Jul_09_0744,60.032334717,go-nogo,001,39,
logos/1.jpg,properties1.xlsx,logos/1.jpg,0,0,400,a,0,3,3,0,0,57,57,85,,,['a'],0,[0.4575106932243216],2018_Jul_09_0744,60.032334717,go-nogo,001,39,
logos/1.jpg,properties1.xlsx,frogs/ab60.jpg,0,0,400,l,0,3,3,0,0,58,58,58,,,['l'],0,[0.39316035262163496],2018_Jul_09_0744,60.032334717,go-nogo,001,39,
logos/1.jpg,properties1.xlsx,frogs/ab30.jpg,0,0,400,l,0,3,3,0,0,59,59,29,,,['l'],0,[0.6946421200336772],2018_Jul_09_0744,60.032334717,go-nogo,001,39,
logos/1.jpg,properties1.xlsx,frogs/ab57.jpg,0,0,400,l,0,3,3,0,0,60,60,56,,,['l'],0,[0.3035795805772068],2018_Jul_09_0744,60.032334717,go-nogo,001,39,
logos/1.jpg,properties1.xlsx,frogs/ab32.jpg,0,0,400,l,0,3,3,0,0,61,61,31,,,['l'],0,[0.3317150883231079],2018_Jul_09_0744,60.032334717,go-nogo,001,39,
logos/1.jpg,properties1.xlsx,frogs/ab17.jpg,0,0,400,l,0,3,3,0,0,62,62,16,,,['l'],0,[0.2744060993209132],2018_Jul_09_0744,60.032334717,go-nogo,001,39,
logos/1.jpg,properties1.xlsx,frogs/ab29.jpg,0,0,400,l,0,3,3,0,0,63,63,28,,,['l'],0,[0.20952516952092992],2018_Jul_09_0744,60.032334717,go-nogo,001,39,
logos/1.jpg,properties1.xlsx,frogs/ab73.jpg,0,0,400,l,0,3,3,0,0,64,64,71,,,['l'],0,[0.18292520209797658],2018_Jul_09_0744,60.032334717,go-nogo,001,39,
logos/1.jpg,properties1.xlsx,frogs/ab1.jpg,0,0,400,l,0,3,3,0,0,65,65,0,,,['l'],0,[0.2411913936593919],2018_Jul_09_0744,60.032334717,go-nogo,001,39,
logos/1.jpg,properties1.xlsx,frogs/ab61.jpg,0,0,400,l,0,3,3,0,0,66,66,59,,,['l'],0,[0.15199751885666046],2018_Jul_09_0744,60.032334717,go-nogo,001,39,
logos/1.jpg,properties1.xlsx,frogs/ab47.jpg,0,0,400,l,0,3,3,0,0,67,67,46,,,['l'],0,[1.7528400356095517],2018_Jul_09_0744,60.032334717,go-nogo,001,39,
logos/1.jpg,properties1.xlsx,frogs/ab71.jpg,0,0,400,l,0,3,3,0,0,68,68,69,,,['l'],0,[0.0908757845609216],2018_Jul_09_0744,60.032334717,go-nogo,001,39,
logos/1.jpg,properties1.xlsx,frogs/ab14.jpg,0,0,400,l,0,3,3,0,0,69,69,13,,,['l'],0,[0.18110807910125004],2018_Jul_09_0744,60.032334717,go-nogo,001,39,
logos/1.jpg,properties1.xlsx,frogs/ab4.jpg,0,0,400,l,0,3,3,0,0,70,70,3,,,['l'],0,[0.1844299512958969],2018_Jul_09_0744,60.032334717,go-nogo,001,39,
logos/1.jpg,properties1.xlsx,frogs/ab63.jpg,0,0,400,l,0,3,3,0,0,71,71,61,,,['l'],0,[0.21356639393343357],2018_Jul_09_0744,60.032334717,go-nogo,001,39,
logos/1.jpg,properties1.xlsx,frogs/ab39.jpg,0,0,400,l,0,3,3,0,0,72,72,38,,,['l'],0,[0.302841039672785],2018_Jul_09_0744,60.032334717,go-nogo,001,39,
logos/1.jpg,properties1.xlsx,logos/1.jpg,0,0,400,a,0,3,3,0,0,73,73,88,,,['a'],0,[0.45291612094297307],2018_Jul_09_0744,60.032334717,go-nogo,001,39,
logos/1.jpg,properties1.xlsx,frogs/ab49.jpg,0,0,400,l,0,3,3,0,0,74,74,48,,,['l'],0,[0.27310082310577855],2018_Jul_09_0744,60.032334717,go-nogo,001,39,
logos/1.jpg,properties1.xlsx,frogs/ab33.jpg,0,0,400,l,0,3,3,0,0,75,75,32,,,['l'],0,[0.15178867465874646],2018_Jul_09_0744,60.032334717,go-nogo,001,39,
logos/1.jpg,properties1.xlsx,frogs/ab7.jpg,0,0,400,l,0,3,3,0,0,76,76,6,,,['l'],0,[0.18143874908128055],2018_Jul_09_0744,60.032334717,go-nogo,001,39,
logos/1.jpg,properties1.xlsx,frogs/ab42.jpg,0,0,400,l,0,3,3,0,0,77,77,41,,,['l'],0,[1.4188722859689733],2018_Jul_09_0744,60.032334717,go-nogo,001,39,
logos/1.jpg,properties1.xlsx,frogs/ab31.jpg,0,0,400,l,0,3,3,0,0,78,78,30,,,['l'],0,[0.27238905709964456],2018_Jul_09_0744,60.032334717,go-nogo,001,39,
logos/1.jpg,properties1.xlsx,frogs/ab55.jpg,0,0,400,l,0,3,3,0,0,79,79,54,,,['l'],0,[0.21273592588113388],2018_Jul_09_0744,60.032334717,go-nogo,001,39,
logos/1.jpg,properties1.xlsx,frogs/ab3.jpg,0,0,400,l,0,3,3,0,0,80,80,2,,,['l'],0,[0.2738157128478633],2018_Jul_09_0744,60.032334717,go-nogo,001,39,
logos/1.jpg,properties1.xlsx,frogs/ab53.jpg,0,0,400,l,0,3,3,0,0,81,81,52,,,['l'],0,[0.3014933698650566],2018_Jul_09_0744,60.032334717,go-nogo,001,39,
logos/1.jpg,properties1.xlsx,logos/1.jpg,0,0,400,a,0,3,3,0,0,82,82,82,,,['a'],0,[0.870603617731831],2018_Jul_09_0744,60.032334717,go-nogo,001,39,
logos/1.jpg,properties1.xlsx,logos/1.jpg,0,0,400,a,0,3,3,0,0,83,83,81,,,['a'],0,[0.3956432780541945],2018_Jul_09_0744,60.032334717,go-nogo,001,39,
logos/1.jpg,properties1.xlsx,frogs/ab35.jpg,0,0,400,l,0,3,3,0,0,84,84,34,,,['l'],0,[0.2117662283781101],2018_Jul_09_0744,60.032334717,go-nogo,001,39,
logos/1.jpg,properties1.xlsx,frogs/ab6.jpg,0,0,400,l,0,3,3,0,0,85,85,5,,,['l'],0,[0.3631626508067711],2018_Jul_09_0744,60.032334717,go-nogo,001,39,
logos/1.jpg,properties1.xlsx,frogs/ab46.jpg,0,0,400,l,0,3,3,0,0,86,86,45,,,['l'],0,[0.27255327646707883],2018_Jul_09_0744,60.032334717,go-nogo,001,39,
logos/1.jpg,properties1.xlsx,logos/1.jpg,0,0,400,a,0,3,3,0,0,87,87,86,,,['a'],0,[0.4513886130807805],2018_Jul_09_0744,60.032334717,go-nogo,001,39,
logos/1.jpg,properties1.xlsx,frogs/ab11.jpg,0,0,400,l,0,3,3,0,0,88,88,10,,,['l'],0,[0.12240144049428636],2018_Jul_09_0744,60.032334717,go-nogo,001,39,
logos/1.jpg,properties1.xlsx,frogs/ab66.jpg,0,0,400,l,0,3,3,0,0,89,89,64,,,['l'],0,[0.2703251588100102],2018_Jul_09_0744,60.032334717,go-nogo,001,39,
logos/1.jpg,properties1.xlsx,,,,,,0,3,3,0,,,,,,,,,,2018_Jul_09_0744,60.032334717,go-nogo,001,39,
