pix,source,image1,x,y,size,answer,trials_2.thisRepN,trials_2.thisTrialN,trials_2.thisN,trials_2.thisIndex,trials.thisRepN,trials.thisTrialN,trials.thisN,trials.thisIndex,key_resp_3.keys,key_resp_3.rt,key_resp_2.keys,key_resp_2.corr,key_resp_2.rt,date,frameRate,expName,session,participant,
logos/1.jpg,properties1.xlsx,frogs/ab37.jpg,0,0,400,l,0,0,0,0,0,0,0,36,space,13.0613103457,['l'],0,[6.346900776022267],2018_Jul_09_1059,60.0476538588,go-nogo,001,3,
logos/1.jpg,properties1.xlsx,frogs/ab66.jpg,0,0,400,l,0,0,0,0,0,1,1,64,,,['l'],0,[15.40871743321668],2018_Jul_09_1059,60.0476538588,go-nogo,001,3,
logos/1.jpg,properties1.xlsx,frogs/ab56.jpg,0,0,400,l,0,0,0,0,0,2,2,55,,,['l'],0,[16.75771911769789],2018_Jul_09_1059,60.0476538588,go-nogo,001,3,
logos/1.jpg,properties1.xlsx,frogs/ab63.jpg,0,0,400,l,0,0,0,0,0,3,3,61,,,['l'],0,[0.18384684132706752],2018_Jul_09_1059,60.0476538588,go-nogo,001,3,
logos/1.jpg,properties1.xlsx,frogs/ab48.jpg,0,0,400,l,0,0,0,0,0,4,4,47,,,['l'],0,[0.11731238455104176],2018_Jul_09_1059,60.0476538588,go-nogo,001,3,
logos/1.jpg,properties1.xlsx,logos/1.jpg,0,0,400,a,0,0,0,0,0,5,5,83,,,['a'],0,[0.05057255871088273],2018_Jul_09_1059,60.0476538588,go-nogo,001,3,
logos/1.jpg,properties1.xlsx,frogs/ab73.jpg,0,0,400,l,0,0,0,0,0,6,6,71,,,['l'],0,[0.017364210373216338],2018_Jul_09_1059,60.0476538588,go-nogo,001,3,
logos/1.jpg,properties1.xlsx,frogs/ab41.jpg,0,0,400,l,0,0,0,0,0,7,7,40,,,['a'],0,[22.854497440282557],2018_Jul_09_1059,60.0476538588,go-nogo,001,3,
logos/1.jpg,properties1.xlsx,frogs/ab19.jpg,0,0,400,l,0,0,0,0,0,8,8,18,,,['l'],0,[0.1507499953063416],2018_Jul_09_1059,60.0476538588,go-nogo,001,3,
logos/1.jpg,properties1.xlsx,frogs/ab58.jpg,0,0,400,l,0,0,0,0,0,9,9,57,,,['l'],0,[0.0005671827061632939],2018_Jul_09_1059,60.0476538588,go-nogo,001,3,
logos/1.jpg,properties1.xlsx,frogs/ab49.jpg,0,0,400,l,0,0,0,0,0,10,10,48,,,['l'],0,[2.199328596760097],2018_Jul_09_1059,60.0476538588,go-nogo,001,3,
logos/1.jpg,properties1.xlsx,frogs/ab25.jpg,0,0,400,l,0,0,0,0,0,11,11,24,,,['a'],0,[0.750056177825627],2018_Jul_09_1059,60.0476538588,go-nogo,001,3,
logos/1.jpg,properties1.xlsx,frogs/ab16.jpg,0,0,400,l,0,0,0,0,0,12,12,15,,,['l'],0,[0.9333500586808441],2018_Jul_09_1059,60.0476538588,go-nogo,001,3,
logos/1.jpg,properties1.xlsx,frogs/ab68.jpg,0,0,400,l,0,0,0,0,0,13,13,66,,,['l'],0,[0.0005614938127109781],2018_Jul_09_1059,60.0476538588,go-nogo,001,3,
logos/1.jpg,properties1.xlsx,frogs/ab9.jpg,0,0,400,l,0,0,0,0,0,14,14,8,,,['l'],0,[0.1004613123936906],2018_Jul_09_1059,60.0476538588,go-nogo,001,3,
logos/1.jpg,properties1.xlsx,frogs/ab31.jpg,0,0,400,l,0,0,0,0,0,15,15,30,,,['l'],0,[1.8160803408331958],2018_Jul_09_1059,60.0476538588,go-nogo,001,3,
logos/1.jpg,properties1.xlsx,logos/1.jpg,0,0,400,a,0,0,0,0,0,16,16,85,,,['a'],0,[0.08394304052035295],2018_Jul_09_1059,60.0476538588,go-nogo,001,3,
logos/1.jpg,properties1.xlsx,frogs/ab6.jpg,0,0,400,l,0,0,0,0,0,17,17,5,,,['l'],0,[0.11712237550000282],2018_Jul_09_1059,60.0476538588,go-nogo,001,3,
logos/1.jpg,properties1.xlsx,logos/1.jpg,0,0,400,a,0,0,0,0,0,18,18,81,,,['a'],0,[0.13394670985690027],2018_Jul_09_1059,60.0476538588,go-nogo,001,3,
logos/1.jpg,properties1.xlsx,frogs/ab36.jpg,0,0,400,l,0,0,0,0,0,19,19,35,,,['l'],0,[0.10034355229299763],2018_Jul_09_1059,60.0476538588,go-nogo,001,3,
logos/1.jpg,properties1.xlsx,frogs/ab50.jpg,0,0,400,l,0,0,0,0,0,20,20,49,,,['l'],0,[0.0005649071486004686],2018_Jul_09_1059,60.0476538588,go-nogo,001,3,
logos/1.jpg,properties1.xlsx,frogs/ab80.jpg,0,0,400,l,0,0,0,0,0,21,21,78,,,['l'],0,[1.7328910787337009],2018_Jul_09_1059,60.0476538588,go-nogo,001,3,
logos/1.jpg,properties1.xlsx,frogs/ab47.jpg,0,0,400,l,0,0,0,0,0,22,22,46,,,['l'],0,[0.11733343345804315],2018_Jul_09_1059,60.0476538588,go-nogo,001,3,
logos/1.jpg,properties1.xlsx,frogs/ab11.jpg,0,0,400,l,0,0,0,0,0,23,23,10,,,['l'],0,[1.0166144141776385],2018_Jul_09_1059,60.0476538588,go-nogo,001,3,
logos/1.jpg,properties1.xlsx,frogs/ab32.jpg,0,0,400,l,0,0,0,0,0,24,24,31,,,['l'],0,[0.516853063270446],2018_Jul_09_1059,60.0476538588,go-nogo,001,3,
logos/1.jpg,properties1.xlsx,frogs/ab33.jpg,0,0,400,l,0,0,0,0,0,25,25,32,,,['l'],0,[0.6668390401473516],2018_Jul_09_1059,60.0476538588,go-nogo,001,3,
logos/1.jpg,properties1.xlsx,frogs/ab14.jpg,0,0,400,l,0,0,0,0,0,26,26,13,,,['l'],0,[0.21701650518753013],2018_Jul_09_1059,60.0476538588,go-nogo,001,3,
logos/1.jpg,properties1.xlsx,frogs/ab62.jpg,0,0,400,l,0,0,0,0,0,27,27,60,,,['l'],0,[0.56692955044673],2018_Jul_09_1059,60.0476538588,go-nogo,001,3,
logos/1.jpg,properties1.xlsx,frogs/ab69.jpg,0,0,400,l,0,0,0,0,0,28,28,67,,,['a'],0,[1.1499842702087335],2018_Jul_09_1059,60.0476538588,go-nogo,001,3,
logos/1.jpg,properties1.xlsx,frogs/ab71.jpg,0,0,400,l,0,0,0,0,0,29,29,69,,,['a'],0,[0.03507089214963344],2018_Jul_09_1059,60.0476538588,go-nogo,001,3,
logos/1.jpg,properties1.xlsx,frogs/ab42.jpg,0,0,400,l,0,0,0,0,0,30,30,41,,,['l'],0,[0.6664453686998968],2018_Jul_09_1059,60.0476538588,go-nogo,001,3,
logos/1.jpg,properties1.xlsx,frogs/ab77.jpg,0,0,400,l,0,0,0,0,0,31,31,75,,,['a'],0,[0.9999476621774193],2018_Jul_09_1059,60.0476538588,go-nogo,001,3,
logos/1.jpg,properties1.xlsx,frogs/ab60.jpg,0,0,400,l,0,0,0,0,0,32,32,58,,,['a'],0,[0.8499707875307649],2018_Jul_09_1059,60.0476538588,go-nogo,001,3,
logos/1.jpg,properties1.xlsx,frogs/ab51.jpg,0,0,400,l,0,0,0,0,0,33,33,50,,,['a'],0,[0.8668008107811147],2018_Jul_09_1059,60.0476538588,go-nogo,001,3,
logos/1.jpg,properties1.xlsx,frogs/ab70.jpg,0,0,400,l,0,0,0,0,0,34,34,68,,,['l'],0,[0.7002032641735241],2018_Jul_09_1059,60.0476538588,go-nogo,001,3,
logos/1.jpg,properties1.xlsx,frogs/ab75.jpg,0,0,400,l,0,0,0,0,0,35,35,73,,,['l'],0,[0.5835945957783224],2018_Jul_09_1059,60.0476538588,go-nogo,001,3,
logos/1.jpg,properties1.xlsx,frogs/ab65.jpg,0,0,400,l,0,0,0,0,0,36,36,63,,,['l'],0,[0.05056686981697567],2018_Jul_09_1059,60.0476538588,go-nogo,001,3,
logos/1.jpg,properties1.xlsx,frogs/ab39.jpg,0,0,400,l,0,0,0,0,0,37,37,38,,,['l'],0,[0.13372939411601692],2018_Jul_09_1059,60.0476538588,go-nogo,001,3,
logos/1.jpg,properties1.xlsx,logos/1.jpg,0,0,400,a,0,0,0,0,0,38,38,80,,,['l'],0,[0.017232796927601157],2018_Jul_09_1059,60.0476538588,go-nogo,001,3,
logos/1.jpg,properties1.xlsx,frogs/ab76.jpg,0,0,400,l,0,0,0,0,0,39,39,74,,,['a'],0,[1.2999025492504188],2018_Jul_09_1059,60.0476538588,go-nogo,001,3,
logos/1.jpg,properties1.xlsx,logos/1.jpg,0,0,400,a,0,0,0,0,0,40,40,89,,,['a'],0,[0.034413256032621575],2018_Jul_09_1059,60.0476538588,go-nogo,001,3,
logos/1.jpg,properties1.xlsx,frogs/ab13.jpg,0,0,400,l,0,0,0,0,0,41,41,12,,,['l'],0,[1.1331377491660533],2018_Jul_09_1059,60.0476538588,go-nogo,001,3,
logos/1.jpg,properties1.xlsx,frogs/ab54.jpg,0,0,400,l,0,0,0,0,0,42,42,53,,,['l'],0,[0.5169145033228233],2018_Jul_09_1059,60.0476538588,go-nogo,001,3,
logos/1.jpg,properties1.xlsx,frogs/ab23.jpg,0,0,400,l,0,0,0,0,0,43,43,22,,,['l'],0,[0.6500306346924845],2018_Jul_09_1059,60.0476538588,go-nogo,001,3,
logos/1.jpg,properties1.xlsx,logos/1.jpg,0,0,400,a,0,0,0,0,0,44,44,82,,,['a'],0,[0.01726693029013404],2018_Jul_09_1059,60.0476538588,go-nogo,001,3,
logos/1.jpg,properties1.xlsx,frogs/ab78.jpg,0,0,400,l,0,0,0,0,0,45,45,76,,,['l'],0,[0.18369665453246853],2018_Jul_09_1059,60.0476538588,go-nogo,001,3,
logos/1.jpg,properties1.xlsx,frogs/ab35.jpg,0,0,400,l,0,0,0,0,0,46,46,34,,,['a'],0,[0.9501220552151608],2018_Jul_09_1059,60.0476538588,go-nogo,001,3,
logos/1.jpg,properties1.xlsx,logos/1.jpg,0,0,400,a,0,0,0,0,0,47,47,88,,,['l'],0,[0.8835193317140693],2018_Jul_09_1059,60.0476538588,go-nogo,001,3,
logos/1.jpg,properties1.xlsx,frogs/ab81.jpg,0,0,400,l,0,0,0,0,0,48,48,79,,,['l'],0,[1.8995005720184963],2018_Jul_09_1059,60.0476538588,go-nogo,001,3,
logos/1.jpg,properties1.xlsx,logos/1.jpg,0,0,400,a,0,0,0,0,0,49,49,87,,,['l'],0,[0.716825073912787],2018_Jul_09_1059,60.0476538588,go-nogo,001,3,
logos/1.jpg,properties1.xlsx,frogs/ab67.jpg,0,0,400,l,0,0,0,0,0,50,50,65,,,['l'],0,[0.05050201642825414],2018_Jul_09_1059,60.0476538588,go-nogo,001,3,
logos/1.jpg,properties1.xlsx,frogs/ab20.jpg,0,0,400,l,0,0,0,0,0,51,51,19,,,['l'],0,[0.15032674161193427],2018_Jul_09_1059,60.0476538588,go-nogo,001,3,
logos/1.jpg,properties1.xlsx,frogs/ab64.jpg,0,0,400,l,0,0,0,0,0,52,52,62,,,['l'],0,[0.1837342012308909],2018_Jul_09_1059,60.0476538588,go-nogo,001,3,
logos/1.jpg,properties1.xlsx,logos/1.jpg,0,0,400,a,0,0,0,0,0,53,53,86,,,['a'],0,[0.08385600044584862],2018_Jul_09_1059,60.0476538588,go-nogo,001,3,
logos/1.jpg,properties1.xlsx,frogs/ab38.jpg,0,0,400,l,0,0,0,0,0,54,54,37,,,['a'],0,[1.0500497493758303],2018_Jul_09_1059,60.0476538588,go-nogo,001,3,
logos/1.jpg,properties1.xlsx,frogs/ab18.jpg,0,0,400,l,0,0,0,0,0,55,55,17,,,['l'],0,[0.01726920584724212],2018_Jul_09_1059,60.0476538588,go-nogo,001,3,
logos/1.jpg,properties1.xlsx,frogs/ab53.jpg,0,0,400,l,0,0,0,0,0,56,56,52,,,['l'],0,[0.21697668293109018],2018_Jul_09_1059,60.0476538588,go-nogo,001,3,
logos/1.jpg,properties1.xlsx,frogs/ab10.jpg,0,0,400,l,0,0,0,0,0,57,57,9,,,['a'],0,[1.0000307200261886],2018_Jul_09_1059,60.0476538588,go-nogo,001,3,
logos/1.jpg,properties1.xlsx,frogs/ab30.jpg,0,0,400,l,0,0,0,0,0,58,58,29,,,['l'],0,[3.8648341602138316],2018_Jul_09_1059,60.0476538588,go-nogo,001,3,
logos/1.jpg,properties1.xlsx,frogs/ab46.jpg,0,0,400,l,0,0,0,0,0,59,59,45,,,['a'],0,[3.381920468127646],2018_Jul_09_1059,60.0476538588,go-nogo,001,3,
logos/1.jpg,properties1.xlsx,frogs/ab44.jpg,0,0,400,l,0,0,0,0,0,60,60,43,,,['l'],0,[1.1500730169509552],2018_Jul_09_1059,60.0476538588,go-nogo,001,3,
logos/1.jpg,properties1.xlsx,frogs/ab79.jpg,0,0,400,l,0,0,0,0,0,61,61,77,,,['l'],0,[0.6002960500304653],2018_Jul_09_1059,60.0476538588,go-nogo,001,3,
logos/1.jpg,properties1.xlsx,frogs/ab2.jpg,0,0,400,l,0,0,0,0,0,62,62,1,,,['l'],0,[0.11711896216365858],2018_Jul_09_1059,60.0476538588,go-nogo,001,3,
logos/1.jpg,properties1.xlsx,frogs/ab15.jpg,0,0,400,l,0,0,0,0,0,63,63,14,,,['l'],0,[0.0005683204849447065],2018_Jul_09_1059,60.0476538588,go-nogo,001,3,
logos/1.jpg,properties1.xlsx,frogs/ab43.jpg,0,0,400,l,0,0,0,0,0,64,64,42,,,['a'],0,[1.6996013792154372],2018_Jul_09_1059,60.0476538588,go-nogo,001,3,
logos/1.jpg,properties1.xlsx,frogs/ab24.jpg,0,0,400,l,0,0,0,0,0,65,65,23,,,['a'],0,[0.5832020621101037],2018_Jul_09_1059,60.0476538588,go-nogo,001,3,
logos/1.jpg,properties1.xlsx,frogs/ab7.jpg,0,0,400,l,0,0,0,0,0,66,66,6,,,['l'],0,[0.0171167434950803],2018_Jul_09_1059,60.0476538588,go-nogo,001,3,
logos/1.jpg,properties1.xlsx,frogs/ab34.jpg,0,0,400,l,0,0,0,0,0,67,67,33,,,['l'],0,[0.733300679083186],2018_Jul_09_1059,60.0476538588,go-nogo,001,3,
logos/1.jpg,properties1.xlsx,frogs/ab21.jpg,0,0,400,l,0,0,0,0,0,68,68,20,,,['l'],0,[1.2664711962775073],2018_Jul_09_1059,60.0476538588,go-nogo,001,3,
logos/1.jpg,properties1.xlsx,frogs/ab17.jpg,0,0,400,l,0,0,0,0,0,69,69,16,,,['l'],0,[2.215547632823018],2018_Jul_09_1059,60.0476538588,go-nogo,001,3,
logos/1.jpg,properties1.xlsx,frogs/ab29.jpg,0,0,400,l,0,0,0,0,0,70,70,28,,,['l'],0,[1.899469283102917],2018_Jul_09_1059,60.0476538588,go-nogo,001,3,
logos/1.jpg,properties1.xlsx,frogs/ab4.jpg,0,0,400,l,0,0,0,0,0,71,71,3,,,['l'],0,[0.06725068849846139],2018_Jul_09_1059,60.0476538588,go-nogo,001,3,
logos/1.jpg,properties1.xlsx,frogs/ab55.jpg,0,0,400,l,0,0,0,0,0,72,72,54,,,['l'],0,[0.08342535118981687],2018_Jul_09_1059,60.0476538588,go-nogo,001,3,
logos/1.jpg,properties1.xlsx,frogs/ab45.jpg,0,0,400,l,0,0,0,0,0,73,73,44,,,['l'],0,[0.13376750970383],2018_Jul_09_1059,60.0476538588,go-nogo,001,3,
logos/1.jpg,properties1.xlsx,frogs/ab3.jpg,0,0,400,l,0,0,0,0,0,74,74,2,,,['l'],0,[0.017311303660790145],2018_Jul_09_1059,60.0476538588,go-nogo,001,3,
logos/1.jpg,properties1.xlsx,frogs/ab27.jpg,0,0,400,l,0,0,0,0,0,75,75,26,,,['l'],0,[0.06654355900582232],2018_Jul_09_1059,60.0476538588,go-nogo,001,3,
logos/1.jpg,properties1.xlsx,frogs/ab12.jpg,0,0,400,l,0,0,0,0,0,76,76,11,,,['l'],0,[0.0505697142639292],2018_Jul_09_1059,60.0476538588,go-nogo,001,3,
logos/1.jpg,properties1.xlsx,frogs/ab8.jpg,0,0,400,l,0,0,0,0,0,77,77,7,,,['l'],0,[0.0670965194776727],2018_Jul_09_1059,60.0476538588,go-nogo,001,3,
logos/1.jpg,properties1.xlsx,frogs/ab72.jpg,0,0,400,l,0,0,0,0,0,78,78,70,,,['l'],0,[0.0005774227147412603],2018_Jul_09_1059,60.0476538588,go-nogo,001,3,
logos/1.jpg,properties1.xlsx,frogs/ab28.jpg,0,0,400,l,0,0,0,0,0,79,79,27,,,['l'],0,[0.5167540765187368],2018_Jul_09_1059,60.0476538588,go-nogo,001,3,
logos/1.jpg,properties1.xlsx,frogs/ab26.jpg,0,0,400,l,0,0,0,0,0,80,80,25,,,['l'],0,[0.5169298633354629],2018_Jul_09_1059,60.0476538588,go-nogo,001,3,
logos/1.jpg,properties1.xlsx,frogs/ab22.jpg,0,0,400,l,0,0,0,0,0,81,81,21,,,['l'],0,[0.5502684873404178],2018_Jul_09_1059,60.0476538588,go-nogo,001,3,
logos/1.jpg,properties1.xlsx,frogs/ab52.jpg,0,0,400,l,0,0,0,0,0,82,82,51,,,['l'],0,[0.018500282453715045],2018_Jul_09_1059,60.0476538588,go-nogo,001,3,
logos/1.jpg,properties1.xlsx,logos/1.jpg,0,0,400,a,0,0,0,0,0,83,83,84,,,['a'],0,[0.15039159500111055],2018_Jul_09_1059,60.0476538588,go-nogo,001,3,
logos/1.jpg,properties1.xlsx,frogs/ab5.jpg,0,0,400,l,0,0,0,0,0,84,84,4,,,['l'],0,[0.8000376604763915],2018_Jul_09_1059,60.0476538588,go-nogo,001,3,
logos/1.jpg,properties1.xlsx,frogs/ab1.jpg,0,0,400,l,0,0,0,0,0,85,85,0,,,['l'],0,[0.40023358597727565],2018_Jul_09_1059,60.0476538588,go-nogo,001,3,
logos/1.jpg,properties1.xlsx,frogs/ab57.jpg,0,0,400,l,0,0,0,0,0,86,86,56,,,['l'],0,[0.01718956133527172],2018_Jul_09_1059,60.0476538588,go-nogo,001,3,
logos/1.jpg,properties1.xlsx,frogs/ab40.jpg,0,0,400,l,0,0,0,0,0,87,87,39,,,['l'],0,[0.017268636957851413],2018_Jul_09_1059,60.0476538588,go-nogo,001,3,
logos/1.jpg,properties1.xlsx,frogs/ab74.jpg,0,0,400,l,0,0,0,0,0,88,88,72,,,['l'],0,[0.06710391503975188],2018_Jul_09_1059,60.0476538588,go-nogo,001,3,
logos/1.jpg,properties1.xlsx,frogs/ab61.jpg,0,0,400,l,0,0,0,0,0,89,89,59,,,['l'],0,[0.06679500810923855],2018_Jul_09_1059,60.0476538588,go-nogo,001,3,
logos/1.jpg,properties1.xlsx,,,,,,0,0,0,0,,,,,,,,,,2018_Jul_09_1059,60.0476538588,go-nogo,001,3,
logos/3.jpg,properties3.xlsx,frogs/ab75.jpg,0,0,400,l,0,1,1,2,0,0,0,73,space,3.52569531082,['l'],0,[0.11700518428870055],2018_Jul_09_1059,60.0476538588,go-nogo,001,3,
logos/3.jpg,properties3.xlsx,frogs/ab46.jpg,0,0,400,l,0,1,1,2,0,1,1,45,,,['l'],0,[2.215921393141798],2018_Jul_09_1059,60.0476538588,go-nogo,001,3,
logos/3.jpg,properties3.xlsx,frogs/ab73.jpg,0,0,400,l,0,1,1,2,0,2,2,71,,,['l'],0,[0.36694104201205846],2018_Jul_09_1059,60.0476538588,go-nogo,001,3,
logos/3.jpg,properties3.xlsx,frogs/ab64.jpg,0,0,400,l,0,1,1,2,0,3,3,62,,,['l'],0,[0.3837665141472826],2018_Jul_09_1059,60.0476538588,go-nogo,001,3,
logos/3.jpg,properties3.xlsx,frogs/ab21.jpg,0,0,400,l,0,1,1,2,0,4,4,20,,,['l'],0,[0.45019231305286667],2018_Jul_09_1059,60.0476538588,go-nogo,001,3,
logos/3.jpg,properties3.xlsx,frogs/ab81.jpg,0,0,400,l,0,1,1,2,0,5,5,79,,,['l'],0,[0.067291648533228],2018_Jul_09_1059,60.0476538588,go-nogo,001,3,
logos/3.jpg,properties3.xlsx,frogs/ab67.jpg,0,0,400,l,0,1,1,2,0,6,6,65,,,['l'],0,[0.4502844731314326],2018_Jul_09_1059,60.0476538588,go-nogo,001,3,
logos/3.jpg,properties3.xlsx,frogs/ab74.jpg,0,0,400,l,0,1,1,2,0,7,7,72,,,['l'],0,[0.3335631646409638],2018_Jul_09_1059,60.0476538588,go-nogo,001,3,
logos/3.jpg,properties3.xlsx,frogs/ab65.jpg,0,0,400,l,0,1,1,2,0,8,8,63,,,['l'],0,[0.3670468554355466],2018_Jul_09_1059,60.0476538588,go-nogo,001,3,
logos/3.jpg,properties3.xlsx,frogs/ab4.jpg,0,0,400,l,0,1,1,2,0,9,9,3,,,['l'],0,[0.3502777033481834],2018_Jul_09_1059,60.0476538588,go-nogo,001,3,
logos/3.jpg,properties3.xlsx,frogs/ab49.jpg,0,0,400,l,0,1,1,2,0,10,10,48,,,['l'],0,[0.46696999848109044],2018_Jul_09_1059,60.0476538588,go-nogo,001,3,
logos/3.jpg,properties3.xlsx,frogs/ab22.jpg,0,0,400,l,0,1,1,2,0,11,11,21,,,['l'],0,[0.5166966186920945],2018_Jul_09_1059,60.0476538588,go-nogo,001,3,
logos/3.jpg,properties3.xlsx,frogs/ab1.jpg,0,0,400,l,0,1,1,2,0,12,12,0,,,['a'],0,[0.2004373621512059],2018_Jul_09_1059,60.0476538588,go-nogo,001,3,
logos/3.jpg,properties3.xlsx,frogs/ab44.jpg,0,0,400,l,0,1,1,2,0,13,13,43,,,['l'],0,[0.3171984928985694],2018_Jul_09_1059,60.0476538588,go-nogo,001,3,
logos/3.jpg,properties3.xlsx,frogs/ab35.jpg,0,0,400,l,0,1,1,2,0,14,14,34,,,['l'],0,[0.5001976890575861],2018_Jul_09_1059,60.0476538588,go-nogo,001,3,
logos/3.jpg,properties3.xlsx,frogs/ab76.jpg,0,0,400,l,0,1,1,2,0,15,15,74,,,['l'],0,[0.41694243579104295],2018_Jul_09_1059,60.0476538588,go-nogo,001,3,
logos/3.jpg,properties3.xlsx,frogs/ab70.jpg,0,0,400,l,0,1,1,2,0,16,16,68,,,['l'],0,[0.31704887499290635],2018_Jul_09_1059,60.0476538588,go-nogo,001,3,
logos/3.jpg,properties3.xlsx,frogs/ab34.jpg,0,0,400,l,0,1,1,2,0,17,17,33,,,['l'],0,[0.35016904547774175],2018_Jul_09_1059,60.0476538588,go-nogo,001,3,
logos/3.jpg,properties3.xlsx,frogs/ab42.jpg,0,0,400,l,0,1,1,2,0,18,18,41,,,['l'],0,[0.35042675236445575],2018_Jul_09_1059,60.0476538588,go-nogo,001,3,
logos/3.jpg,properties3.xlsx,frogs/ab66.jpg,0,0,400,l,0,1,1,2,0,19,19,64,,,['l'],0,[0.11702964653204617],2018_Jul_09_1059,60.0476538588,go-nogo,001,3,
logos/3.jpg,properties3.xlsx,logos/3.jpg,0,0,400,a,0,1,1,2,0,20,20,81,,,['a'],0,[0.1338562564460517],2018_Jul_09_1059,60.0476538588,go-nogo,001,3,
logos/3.jpg,properties3.xlsx,logos/3.jpg,0,0,400,a,0,1,1,2,0,21,21,88,,,['a'],0,[0.06689456374988367],2018_Jul_09_1059,60.0476538588,go-nogo,001,3,
logos/3.jpg,properties3.xlsx,logos/3.jpg,0,0,400,a,0,1,1,2,0,22,22,89,,,['l'],0,[2.949008169820445],2018_Jul_09_1059,60.0476538588,go-nogo,001,3,
logos/3.jpg,properties3.xlsx,frogs/ab71.jpg,0,0,400,l,0,1,1,2,0,23,23,69,,,['l'],0,[0.3670485621037187],2018_Jul_09_1059,60.0476538588,go-nogo,001,3,
logos/3.jpg,properties3.xlsx,frogs/ab56.jpg,0,0,400,l,0,1,1,2,0,24,24,55,,,['a'],0,[0.23372876833764167],2018_Jul_09_1059,60.0476538588,go-nogo,001,3,
logos/3.jpg,properties3.xlsx,frogs/ab58.jpg,0,0,400,l,0,1,1,2,0,25,25,57,,,['l'],0,[0.15044507060201795],2018_Jul_09_1059,60.0476538588,go-nogo,001,3,
logos/3.jpg,properties3.xlsx,logos/3.jpg,0,0,400,a,0,1,1,2,0,26,26,85,,,['a'],0,[0.08404828505445039],2018_Jul_09_1059,60.0476538588,go-nogo,001,3,
logos/3.jpg,properties3.xlsx,frogs/ab62.jpg,0,0,400,l,0,1,1,2,0,27,27,60,,,['l'],0,[0.1503119504886854],2018_Jul_09_1059,60.0476538588,go-nogo,001,3,
logos/3.jpg,properties3.xlsx,frogs/ab13.jpg,0,0,400,l,0,1,1,2,0,28,28,12,,,['l'],0,[0.3502270721937748],2018_Jul_09_1059,60.0476538588,go-nogo,001,3,
logos/3.jpg,properties3.xlsx,frogs/ab6.jpg,0,0,400,l,0,1,1,2,0,29,29,5,,,['l'],0,[0.03386370889711543],2018_Jul_09_1059,60.0476538588,go-nogo,001,3,
logos/3.jpg,properties3.xlsx,frogs/ab20.jpg,0,0,400,l,0,1,1,2,0,30,30,19,,,['l'],0,[0.2003406509575143],2018_Jul_09_1059,60.0476538588,go-nogo,001,3,
logos/3.jpg,properties3.xlsx,frogs/ab2.jpg,0,0,400,l,0,1,1,2,0,31,31,1,,,['l'],0,[0.08391857827746207],2018_Jul_09_1059,60.0476538588,go-nogo,001,3,
logos/3.jpg,properties3.xlsx,frogs/ab25.jpg,0,0,400,l,0,1,1,2,0,32,32,24,,,['l'],0,[0.43355798774700816],2018_Jul_09_1059,60.0476538588,go-nogo,001,3,
logos/3.jpg,properties3.xlsx,frogs/ab60.jpg,0,0,400,l,0,1,1,2,0,33,33,58,,,['l'],0,[0.16702819586407713],2018_Jul_09_1059,60.0476538588,go-nogo,001,3,
logos/3.jpg,properties3.xlsx,frogs/ab48.jpg,0,0,400,l,0,1,1,2,0,34,34,47,,,['l'],0,[0.6501984570581953],2018_Jul_09_1059,60.0476538588,go-nogo,001,3,
logos/3.jpg,properties3.xlsx,frogs/ab45.jpg,0,0,400,l,0,1,1,2,0,35,35,44,,,['l'],0,[0.4338845302477239],2018_Jul_09_1059,60.0476538588,go-nogo,001,3,
logos/3.jpg,properties3.xlsx,frogs/ab12.jpg,0,0,400,l,0,1,1,2,0,36,36,11,,,['l'],0,[0.4002762526802144],2018_Jul_09_1059,60.0476538588,go-nogo,001,3,
logos/3.jpg,properties3.xlsx,frogs/ab55.jpg,0,0,400,l,0,1,1,2,0,37,37,54,,,['l'],0,[0.3504148056872509],2018_Jul_09_1059,60.0476538588,go-nogo,001,3,
logos/3.jpg,properties3.xlsx,frogs/ab80.jpg,0,0,400,l,0,1,1,2,0,38,38,78,,,['l'],0,[0.45039938878517205],2018_Jul_09_1059,60.0476538588,go-nogo,001,3,
logos/3.jpg,properties3.xlsx,frogs/ab15.jpg,0,0,400,l,0,1,1,2,0,39,39,14,,,['l'],0,[0.3836936963075459],2018_Jul_09_1059,60.0476538588,go-nogo,001,3,
logos/3.jpg,properties3.xlsx,frogs/ab69.jpg,0,0,400,l,0,1,1,2,0,40,40,67,,,['l'],0,[0.3170551327762041],2018_Jul_09_1059,60.0476538588,go-nogo,001,3,
logos/3.jpg,properties3.xlsx,frogs/ab39.jpg,0,0,400,l,0,1,1,2,0,41,41,38,,,['l'],0,[0.4006283952026024],2018_Jul_09_1059,60.0476538588,go-nogo,001,3,
logos/3.jpg,properties3.xlsx,logos/3.jpg,0,0,400,a,0,1,1,2,0,42,42,84,,,['l'],0,[0.43358074332218166],2018_Jul_09_1059,60.0476538588,go-nogo,001,3,
logos/3.jpg,properties3.xlsx,frogs/ab68.jpg,0,0,400,l,0,1,1,2,0,43,43,66,,,['l'],0,[0.38339104716033034],2018_Jul_09_1059,60.0476538588,go-nogo,001,3,
logos/3.jpg,properties3.xlsx,frogs/ab47.jpg,0,0,400,l,0,1,1,2,0,44,44,46,,,['l'],0,[0.08382414264087856],2018_Jul_09_1059,60.0476538588,go-nogo,001,3,
logos/3.jpg,properties3.xlsx,frogs/ab7.jpg,0,0,400,l,0,1,1,2,0,45,45,6,,,['l'],0,[0.4169640535869803],2018_Jul_09_1059,60.0476538588,go-nogo,001,3,
logos/3.jpg,properties3.xlsx,frogs/ab41.jpg,0,0,400,l,0,1,1,2,0,46,46,40,,,['l'],0,[0.4504540021653156],2018_Jul_09_1059,60.0476538588,go-nogo,001,3,
logos/3.jpg,properties3.xlsx,frogs/ab50.jpg,0,0,400,l,0,1,1,2,0,47,47,49,,,['l'],0,[0.6838619168956939],2018_Jul_09_1059,60.0476538588,go-nogo,001,3,
logos/3.jpg,properties3.xlsx,frogs/ab28.jpg,0,0,400,l,0,1,1,2,0,48,48,27,,,['l'],0,[0.583221404348933],2018_Jul_09_1059,60.0476538588,go-nogo,001,3,
logos/3.jpg,properties3.xlsx,frogs/ab53.jpg,0,0,400,l,0,1,1,2,0,49,49,52,,,['l'],0,[0.5502889673580285],2018_Jul_09_1059,60.0476538588,go-nogo,001,3,
logos/3.jpg,properties3.xlsx,frogs/ab37.jpg,0,0,400,l,0,1,1,2,0,50,50,36,,,['l'],0,[0.4168878224108994],2018_Jul_09_1059,60.0476538588,go-nogo,001,3,
logos/3.jpg,properties3.xlsx,frogs/ab57.jpg,0,0,400,l,0,1,1,2,0,51,51,56,,,['l'],0,[0.15053097289774087],2018_Jul_09_1059,60.0476538588,go-nogo,001,3,
logos/3.jpg,properties3.xlsx,frogs/ab11.jpg,0,0,400,l,0,1,1,2,0,52,52,10,,,['l'],0,[0.3002746029010268],2018_Jul_09_1059,60.0476538588,go-nogo,001,3,
logos/3.jpg,properties3.xlsx,logos/3.jpg,0,0,400,a,0,1,1,2,0,53,53,87,,,['a'],0,[0.21701650518753013],2018_Jul_09_1059,60.0476538588,go-nogo,001,3,
logos/3.jpg,properties3.xlsx,frogs/ab77.jpg,0,0,400,l,0,1,1,2,0,54,54,75,,,['l'],0,[0.4168804268488202],2018_Jul_09_1059,60.0476538588,go-nogo,001,3,
logos/3.jpg,properties3.xlsx,frogs/ab36.jpg,0,0,400,l,0,1,1,2,0,55,55,35,,,['l'],0,[0.3839383187387284],2018_Jul_09_1059,60.0476538588,go-nogo,001,3,
logos/3.jpg,properties3.xlsx,frogs/ab40.jpg,0,0,400,l,0,1,1,2,0,56,56,39,,,['l'],0,[1.166490595405321],2018_Jul_09_1059,60.0476538588,go-nogo,001,3,
logos/3.jpg,properties3.xlsx,frogs/ab5.jpg,0,0,400,l,0,1,1,2,0,57,57,4,,,['l'],0,[0.43346184544270727],2018_Jul_09_1059,60.0476538588,go-nogo,001,3,
logos/3.jpg,properties3.xlsx,frogs/ab54.jpg,0,0,400,l,0,1,1,2,0,58,58,53,,,['l'],0,[0.1338431719905202],2018_Jul_09_1059,60.0476538588,go-nogo,001,3,
logos/3.jpg,properties3.xlsx,frogs/ab16.jpg,0,0,400,l,0,1,1,2,0,59,59,15,,,['l'],0,[0.4502816286844791],2018_Jul_09_1059,60.0476538588,go-nogo,001,3,
logos/3.jpg,properties3.xlsx,frogs/ab43.jpg,0,0,400,l,0,1,1,2,0,60,60,42,,,['l'],0,[0.38333472711201466],2018_Jul_09_1059,60.0476538588,go-nogo,001,3,
logos/3.jpg,properties3.xlsx,frogs/ab10.jpg,0,0,400,l,0,1,1,2,0,61,61,9,,,['l'],0,[0.4835781548754312],2018_Jul_09_1059,60.0476538588,go-nogo,001,3,
logos/3.jpg,properties3.xlsx,frogs/ab38.jpg,0,0,400,l,0,1,1,2,0,62,62,37,,,['l'],0,[0.48335628801987696],2018_Jul_09_1059,60.0476538588,go-nogo,001,3,
logos/3.jpg,properties3.xlsx,frogs/ab14.jpg,0,0,400,l,0,1,1,2,0,63,63,13,,,['l'],0,[0.3670076020689521],2018_Jul_09_1059,60.0476538588,go-nogo,001,3,
logos/3.jpg,properties3.xlsx,frogs/ab33.jpg,0,0,400,l,0,1,1,2,0,64,64,32,,,['l'],0,[0.5501825850446949],2018_Jul_09_1059,60.0476538588,go-nogo,001,3,
logos/3.jpg,properties3.xlsx,logos/3.jpg,0,0,400,a,0,1,1,2,0,65,65,80,,,['a'],0,[0.08390720048964795],2018_Jul_09_1059,60.0476538588,go-nogo,001,3,
logos/3.jpg,properties3.xlsx,frogs/ab27.jpg,0,0,400,l,0,1,1,2,0,66,66,26,,,['l'],0,[0.4499090061449351],2018_Jul_09_1059,60.0476538588,go-nogo,001,3,
logos/3.jpg,properties3.xlsx,frogs/ab32.jpg,0,0,400,l,0,1,1,2,0,67,67,31,,,['l'],0,[0.13379822973001865],2018_Jul_09_1059,60.0476538588,go-nogo,001,3,
logos/3.jpg,properties3.xlsx,frogs/ab72.jpg,0,0,400,l,0,1,1,2,0,68,68,70,,,['l'],0,[0.40054988846895867],2018_Jul_09_1059,60.0476538588,go-nogo,001,3,
logos/3.jpg,properties3.xlsx,frogs/ab8.jpg,0,0,400,l,0,1,1,2,0,69,69,7,,,['l'],0,[0.3669017886450092],2018_Jul_09_1059,60.0476538588,go-nogo,001,3,
logos/3.jpg,properties3.xlsx,frogs/ab79.jpg,0,0,400,l,0,1,1,2,0,70,70,77,,,['l'],0,[0.31708983502767296],2018_Jul_09_1059,60.0476538588,go-nogo,001,3,
logos/3.jpg,properties3.xlsx,frogs/ab23.jpg,0,0,400,l,0,1,1,2,0,71,71,22,,,['l'],0,[1.0831966576611194],2018_Jul_09_1059,60.0476538588,go-nogo,001,3,
logos/3.jpg,properties3.xlsx,frogs/ab78.jpg,0,0,400,l,0,1,1,2,0,72,72,76,,,['l'],0,[0.43351873438041366],2018_Jul_09_1059,60.0476538588,go-nogo,001,3,
logos/3.jpg,properties3.xlsx,frogs/ab3.jpg,0,0,400,l,0,1,1,2,0,73,73,2,,,['l'],0,[1.41637127085869],2018_Jul_09_1059,60.0476538588,go-nogo,001,3,
logos/3.jpg,properties3.xlsx,frogs/ab30.jpg,0,0,400,l,0,1,1,2,0,74,74,29,,,['l'],0,[1.1163060192479861],2018_Jul_09_1059,60.0476538588,go-nogo,001,3,
logos/3.jpg,properties3.xlsx,frogs/ab9.jpg,0,0,400,l,0,1,1,2,0,75,75,8,,,['l'],0,[0.7501483379041929],2018_Jul_09_1059,60.0476538588,go-nogo,001,3,
logos/3.jpg,properties3.xlsx,logos/3.jpg,0,0,400,a,0,1,1,2,0,76,76,83,,,['l'],0,[1.1000579698275033],2018_Jul_09_1059,60.0476538588,go-nogo,001,3,
logos/3.jpg,properties3.xlsx,frogs/ab19.jpg,0,0,400,l,0,1,1,2,0,77,77,18,,,['l'],0,[0.7168136961254277],2018_Jul_09_1059,60.0476538588,go-nogo,001,3,
logos/3.jpg,properties3.xlsx,logos/3.jpg,0,0,400,a,0,1,1,2,0,78,78,82,,,['l'],0,[0.7666660408885946],2018_Jul_09_1059,60.0476538588,go-nogo,001,3,
logos/3.jpg,properties3.xlsx,frogs/ab61.jpg,0,0,400,l,0,1,1,2,0,79,79,59,,,['l'],0,[1.0830316797428168],2018_Jul_09_1059,60.0476538588,go-nogo,001,3,
logos/3.jpg,properties3.xlsx,frogs/ab52.jpg,0,0,400,l,0,1,1,2,0,80,80,51,,,['l'],0,[0.0001206045471917605],2018_Jul_09_1059,60.0476538588,go-nogo,001,3,
logos/3.jpg,properties3.xlsx,frogs/ab18.jpg,0,0,400,l,0,1,1,2,0,81,81,17,,,['l'],0,[0.2666987520274233],2018_Jul_09_1059,60.0476538588,go-nogo,001,3,
logos/3.jpg,properties3.xlsx,logos/3.jpg,0,0,400,a,0,1,1,2,0,82,82,86,,,['a'],0,[0.03391320227274264],2018_Jul_09_1059,60.0476538588,go-nogo,001,3,
logos/3.jpg,properties3.xlsx,frogs/ab63.jpg,0,0,400,l,0,1,1,2,0,83,83,61,,,['l'],0,[0.0336128286830899],2018_Jul_09_1059,60.0476538588,go-nogo,001,3,
logos/3.jpg,properties3.xlsx,frogs/ab17.jpg,0,0,400,l,0,1,1,2,0,84,84,16,,,['l'],0,[0.03369873097835807],2018_Jul_09_1059,60.0476538588,go-nogo,001,3,
logos/3.jpg,properties3.xlsx,frogs/ab31.jpg,0,0,400,l,0,1,1,2,0,85,85,30,,,['l'],0,[0.08395271163999496],2018_Jul_09_1059,60.0476538588,go-nogo,001,3,
logos/3.jpg,properties3.xlsx,frogs/ab29.jpg,0,0,400,l,0,1,1,2,0,86,86,28,,,['l'],0,[0.750103964533082],2018_Jul_09_1059,60.0476538588,go-nogo,001,3,
logos/3.jpg,properties3.xlsx,frogs/ab51.jpg,0,0,400,l,0,1,1,2,0,87,87,50,,,['l'],0,[0.018298326725926017],2018_Jul_09_1059,60.0476538588,go-nogo,001,3,
logos/3.jpg,properties3.xlsx,frogs/ab24.jpg,0,0,400,l,0,1,1,2,0,88,88,23,,,['l'],0,[0.03382217997250336],2018_Jul_09_1059,60.0476538588,go-nogo,001,3,
logos/3.jpg,properties3.xlsx,frogs/ab26.jpg,0,0,400,l,0,1,1,2,0,89,89,25,,,['l'],0,[0.06650885675389873],2018_Jul_09_1059,60.0476538588,go-nogo,001,3,
logos/3.jpg,properties3.xlsx,,,,,,0,1,1,2,,,,,,,,,,2018_Jul_09_1059,60.0476538588,go-nogo,001,3,
logos/2.jpg,properties2.xlsx,frogs/ab73.jpg,0,0,400,l,0,2,2,1,0,0,0,71,space,3.85828965685,['l'],0,[0.017150307968222478],2018_Jul_09_1059,60.0476538588,go-nogo,001,3,
logos/2.jpg,properties2.xlsx,frogs/ab6.jpg,0,0,400,l,0,2,2,1,0,1,1,5,,,['l'],0,[0.4836242349147142],2018_Jul_09_1059,60.0476538588,go-nogo,001,3,
logos/2.jpg,properties2.xlsx,frogs/ab17.jpg,0,0,400,l,0,2,2,1,0,2,2,16,,,['l'],0,[0.3673904646175288],2018_Jul_09_1059,60.0476538588,go-nogo,001,3,
logos/2.jpg,properties2.xlsx,frogs/ab28.jpg,0,0,400,l,0,2,2,1,0,3,3,27,,,['l'],0,[0.33364508471049703],2018_Jul_09_1059,60.0476538588,go-nogo,001,3,
logos/2.jpg,properties2.xlsx,frogs/ab31.jpg,0,0,400,l,0,2,2,1,0,4,4,30,,,['l'],0,[0.3670468554355466],2018_Jul_09_1059,60.0476538588,go-nogo,001,3,
logos/2.jpg,properties2.xlsx,frogs/ab72.jpg,0,0,400,l,0,2,2,1,0,5,5,70,,,['l'],0,[0.4335619699727431],2018_Jul_09_1059,60.0476538588,go-nogo,001,3,
logos/2.jpg,properties2.xlsx,frogs/ab4.jpg,0,0,400,l,0,2,2,1,0,6,6,3,,,['l'],0,[0.3502555166624006],2018_Jul_09_1059,60.0476538588,go-nogo,001,3,
logos/2.jpg,properties2.xlsx,frogs/ab26.jpg,0,0,400,l,0,2,2,1,0,7,7,25,,,['l'],0,[0.3671714422084733],2018_Jul_09_1059,60.0476538588,go-nogo,001,3,
logos/2.jpg,properties2.xlsx,frogs/ab67.jpg,0,0,400,l,0,2,2,1,0,8,8,65,,,['l'],0,[0.3668875664106963],2018_Jul_09_1059,60.0476538588,go-nogo,001,3,
logos/2.jpg,properties2.xlsx,frogs/ab62.jpg,0,0,400,l,0,2,2,1,0,9,9,60,,,['l'],0,[0.01723222803821045],2018_Jul_09_1059,60.0476538588,go-nogo,001,3,
logos/2.jpg,properties2.xlsx,frogs/ab40.jpg,0,0,400,l,0,2,2,1,0,10,10,39,,,['l'],0,[0.11712692661512847],2018_Jul_09_1059,60.0476538588,go-nogo,001,3,
logos/2.jpg,properties2.xlsx,frogs/ab54.jpg,0,0,400,l,0,2,2,1,0,11,11,53,,,['l'],0,[0.05033021183726305],2018_Jul_09_1059,60.0476538588,go-nogo,001,3,
logos/2.jpg,properties2.xlsx,frogs/ab65.jpg,0,0,400,l,0,2,2,1,0,12,12,63,,,['l'],0,[0.3339329427335542],2018_Jul_09_1059,60.0476538588,go-nogo,001,3,
logos/2.jpg,properties2.xlsx,frogs/ab53.jpg,0,0,400,l,0,2,2,1,0,13,13,52,,,['l'],0,[0.4003177816043717],2018_Jul_09_1059,60.0476538588,go-nogo,001,3,
logos/2.jpg,properties2.xlsx,frogs/ab77.jpg,0,0,400,l,0,2,2,1,0,14,14,75,,,['l'],0,[0.4169378846759173],2018_Jul_09_1059,60.0476538588,go-nogo,001,3,
logos/2.jpg,properties2.xlsx,frogs/ab55.jpg,0,0,400,l,0,2,2,1,0,15,15,54,,,['l'],0,[0.4502253086370729],2018_Jul_09_1059,60.0476538588,go-nogo,001,3,
logos/2.jpg,properties2.xlsx,logos/2.jpg,0,0,400,a,0,2,2,1,0,16,16,84,,,['a'],0,[0.06711131060137632],2018_Jul_09_1059,60.0476538588,go-nogo,001,3,
logos/2.jpg,properties2.xlsx,frogs/ab51.jpg,0,0,400,l,0,2,2,1,0,17,17,50,,,['l'],0,[0.1672870405291178],2018_Jul_09_1059,60.0476538588,go-nogo,001,3,
logos/2.jpg,properties2.xlsx,frogs/ab80.jpg,0,0,400,l,0,2,2,1,0,18,18,78,,,['l'],0,[0.48371525721495345],2018_Jul_09_1059,60.0476538588,go-nogo,001,3,
logos/2.jpg,properties2.xlsx,frogs/ab75.jpg,0,0,400,l,0,2,2,1,0,19,19,73,,,['l'],0,[0.36713446439944164],2018_Jul_09_1059,60.0476538588,go-nogo,001,3,
logos/2.jpg,properties2.xlsx,frogs/ab42.jpg,0,0,400,l,0,2,2,1,0,20,20,41,,,['l'],0,[0.3335381335082275],2018_Jul_09_1059,60.0476538588,go-nogo,001,3,
logos/2.jpg,properties2.xlsx,logos/2.jpg,0,0,400,a,0,2,2,1,0,21,21,82,,,['a'],0,[0.0668746526216637],2018_Jul_09_1059,60.0476538588,go-nogo,001,3,
logos/2.jpg,properties2.xlsx,logos/2.jpg,0,0,400,a,0,2,2,1,0,22,22,88,,,['a'],0,[0.017153152414721262],2018_Jul_09_1059,60.0476538588,go-nogo,001,3,
logos/2.jpg,properties2.xlsx,frogs/ab41.jpg,0,0,400,l,0,2,2,1,0,23,23,40,,,['l'],0,[0.05062318986529135],2018_Jul_09_1059,60.0476538588,go-nogo,001,3,
logos/2.jpg,properties2.xlsx,frogs/ab64.jpg,0,0,400,l,0,2,2,1,0,24,24,62,,,['l'],0,[0.5332877084056236],2018_Jul_09_1059,60.0476538588,go-nogo,001,3,
logos/2.jpg,properties2.xlsx,frogs/ab57.jpg,0,0,400,l,0,2,2,1,0,25,25,56,,,['l'],0,[0.45021449973864947],2018_Jul_09_1059,60.0476538588,go-nogo,001,3,
logos/2.jpg,properties2.xlsx,frogs/ab45.jpg,0,0,400,l,0,2,2,1,0,26,26,44,,,['l'],0,[0.4003632927547187],2018_Jul_09_1059,60.0476538588,go-nogo,001,3,
logos/2.jpg,properties2.xlsx,logos/2.jpg,0,0,400,a,0,2,2,1,0,27,27,85,,,['a'],0,[0.05051623866256705],2018_Jul_09_1059,60.0476538588,go-nogo,001,3,
logos/2.jpg,properties2.xlsx,frogs/ab50.jpg,0,0,400,l,0,2,2,1,0,28,28,49,,,['l'],0,[0.11751149583187726],2018_Jul_09_1059,60.0476538588,go-nogo,001,3,
logos/2.jpg,properties2.xlsx,frogs/ab63.jpg,0,0,400,l,0,2,2,1,0,29,29,61,,,['l'],0,[0.4503533087458891],2018_Jul_09_1059,60.0476538588,go-nogo,001,3,
logos/2.jpg,properties2.xlsx,frogs/ab74.jpg,0,0,400,l,0,2,2,1,0,30,30,72,,,['l'],0,[0.4168417423716164],2018_Jul_09_1059,60.0476538588,go-nogo,001,3,
logos/2.jpg,properties2.xlsx,frogs/ab1.jpg,0,0,400,l,0,2,2,1,0,31,31,0,,,['l'],0,[1.2331331411623978],2018_Jul_09_1059,60.0476538588,go-nogo,001,3,
logos/2.jpg,properties2.xlsx,frogs/ab71.jpg,0,0,400,l,0,2,2,1,0,32,32,69,,,['l'],0,[0.33372131588657794],2018_Jul_09_1059,60.0476538588,go-nogo,001,3,
logos/2.jpg,properties2.xlsx,frogs/ab78.jpg,0,0,400,l,0,2,2,1,0,33,33,76,,,['l'],0,[0.6832281741326369],2018_Jul_09_1059,60.0476538588,go-nogo,001,3,
logos/2.jpg,properties2.xlsx,frogs/ab21.jpg,0,0,400,l,0,2,2,1,0,34,34,20,,,['l'],0,[0.06721371068897497],2018_Jul_09_1059,60.0476538588,go-nogo,001,3,
logos/2.jpg,properties2.xlsx,frogs/ab13.jpg,0,0,400,l,0,2,2,1,0,35,35,12,,,['l'],0,[0.41690944020683673],2018_Jul_09_1059,60.0476538588,go-nogo,001,3,
logos/2.jpg,properties2.xlsx,frogs/ab60.jpg,0,0,400,l,0,2,2,1,0,36,36,58,,,['l'],0,[0.3170522883292506],2018_Jul_09_1059,60.0476538588,go-nogo,001,3,
logos/2.jpg,properties2.xlsx,frogs/ab52.jpg,0,0,400,l,0,2,2,1,0,37,37,51,,,['l'],0,[0.33365987583420065],2018_Jul_09_1059,60.0476538588,go-nogo,001,3,
logos/2.jpg,properties2.xlsx,frogs/ab43.jpg,0,0,400,l,0,2,2,1,0,38,38,42,,,['l'],0,[0.43350621881427287],2018_Jul_09_1059,60.0476538588,go-nogo,001,3,
logos/2.jpg,properties2.xlsx,frogs/ab20.jpg,0,0,400,l,0,2,2,1,0,39,39,19,,,['l'],0,[0.3669364908969328],2018_Jul_09_1059,60.0476538588,go-nogo,001,3,
logos/2.jpg,properties2.xlsx,frogs/ab18.jpg,0,0,400,l,0,2,2,1,0,40,40,17,,,['l'],0,[0.03354683751558696],2018_Jul_09_1059,60.0476538588,go-nogo,001,3,
logos/2.jpg,properties2.xlsx,frogs/ab2.jpg,0,0,400,l,0,2,2,1,0,41,41,1,,,['l'],0,[7.895929653415351],2018_Jul_09_1059,60.0476538588,go-nogo,001,3,
logos/2.jpg,properties2.xlsx,frogs/ab38.jpg,0,0,400,l,0,2,2,1,0,42,42,37,,,['l'],0,[0.3502196766316956],2018_Jul_09_1059,60.0476538588,go-nogo,001,3,
logos/2.jpg,properties2.xlsx,frogs/ab37.jpg,0,0,400,l,0,2,2,1,0,43,43,36,,,['l'],0,[0.3336422402635435],2018_Jul_09_1059,60.0476538588,go-nogo,001,3,
logos/2.jpg,properties2.xlsx,frogs/ab32.jpg,0,0,400,l,0,2,2,1,0,44,44,31,,,['l'],0,[0.41705564477615553],2018_Jul_09_1059,60.0476538588,go-nogo,001,3,
logos/2.jpg,properties2.xlsx,frogs/ab27.jpg,0,0,400,l,0,2,2,1,0,45,45,26,,,['l'],0,[2.0159789647464095],2018_Jul_09_1059,60.0476538588,go-nogo,001,3,
logos/2.jpg,properties2.xlsx,frogs/ab48.jpg,0,0,400,l,0,2,2,1,0,46,46,47,,,['l'],0,[0.31726163961866405],2018_Jul_09_1059,60.0476538588,go-nogo,001,3,
logos/2.jpg,properties2.xlsx,frogs/ab61.jpg,0,0,400,l,0,2,2,1,0,47,47,59,,,['l'],0,[0.33338510226667495],2018_Jul_09_1059,60.0476538588,go-nogo,001,3,
logos/2.jpg,properties2.xlsx,frogs/ab30.jpg,0,0,400,l,0,2,2,1,0,48,48,29,,,['l'],0,[0.8501181298788651],2018_Jul_09_1059,60.0476538588,go-nogo,001,3,
logos/2.jpg,properties2.xlsx,frogs/ab68.jpg,0,0,400,l,0,2,2,1,0,49,49,66,,,['l'],0,[0.3670986243682819],2018_Jul_09_1059,60.0476538588,go-nogo,001,3,
logos/2.jpg,properties2.xlsx,frogs/ab70.jpg,0,0,400,l,0,2,2,1,0,50,50,68,,,['l'],0,[0.4504249888072991],2018_Jul_09_1059,60.0476538588,go-nogo,001,3,
logos/2.jpg,properties2.xlsx,frogs/ab14.jpg,0,0,400,l,0,2,2,1,0,51,51,13,,,['l'],0,[0.4502150686275854],2018_Jul_09_1059,60.0476538588,go-nogo,001,3,
logos/2.jpg,properties2.xlsx,frogs/ab15.jpg,0,0,400,l,0,2,2,1,0,52,52,14,,,['l'],0,[0.0005546671400225023],2018_Jul_09_1059,60.0476538588,go-nogo,001,3,
logos/2.jpg,properties2.xlsx,frogs/ab5.jpg,0,0,400,l,0,2,2,1,0,53,53,4,,,['l'],0,[0.16728988497607133],2018_Jul_09_1059,60.0476538588,go-nogo,001,3,
logos/2.jpg,properties2.xlsx,frogs/ab9.jpg,0,0,400,l,0,2,2,1,0,54,54,8,,,['l'],0,[0.05053899423774055],2018_Jul_09_1059,60.0476538588,go-nogo,001,3,
logos/2.jpg,properties2.xlsx,frogs/ab12.jpg,0,0,400,l,0,2,2,1,0,55,55,11,,,['l'],0,[0.43357789887522813],2018_Jul_09_1059,60.0476538588,go-nogo,001,3,
logos/2.jpg,properties2.xlsx,frogs/ab47.jpg,0,0,400,l,0,2,2,1,0,56,56,46,,,['l'],0,[0.10037825454492122],2018_Jul_09_1059,60.0476538588,go-nogo,001,3,
logos/2.jpg,properties2.xlsx,logos/2.jpg,0,0,400,a,0,2,2,1,0,57,57,87,,,['a'],0,[0.10053128578692849],2018_Jul_09_1059,60.0476538588,go-nogo,001,3,
logos/2.jpg,properties2.xlsx,frogs/ab22.jpg,0,0,400,l,0,2,2,1,0,58,58,21,,,['l'],0,[0.3170448927671714],2018_Jul_09_1059,60.0476538588,go-nogo,001,3,
logos/2.jpg,properties2.xlsx,frogs/ab25.jpg,0,0,400,l,0,2,2,1,0,59,59,24,,,['l'],0,[1.499722097540598],2018_Jul_09_1059,60.0476538588,go-nogo,001,3,
logos/2.jpg,properties2.xlsx,frogs/ab76.jpg,0,0,400,l,0,2,2,1,0,60,60,74,,,['l'],0,[0.48360375489755825],2018_Jul_09_1059,60.0476538588,go-nogo,001,3,
logos/2.jpg,properties2.xlsx,logos/2.jpg,0,0,400,a,0,2,2,1,0,61,61,83,,,['a'],0,[0.017294805869369156],2018_Jul_09_1059,60.0476538588,go-nogo,001,3,
logos/2.jpg,properties2.xlsx,frogs/ab33.jpg,0,0,400,l,0,2,2,1,0,62,62,32,,,['l'],0,[0.0005717338212889445],2018_Jul_09_1059,60.0476538588,go-nogo,001,3,
logos/2.jpg,properties2.xlsx,frogs/ab49.jpg,0,0,400,l,0,2,2,1,0,63,63,48,,,['l'],0,[0.4170977425901583],2018_Jul_09_1059,60.0476538588,go-nogo,001,3,
logos/2.jpg,properties2.xlsx,frogs/ab69.jpg,0,0,400,l,0,2,2,1,0,64,64,67,,,['l'],0,[0.4003041282594495],2018_Jul_09_1059,60.0476538588,go-nogo,001,3,
logos/2.jpg,properties2.xlsx,frogs/ab39.jpg,0,0,400,l,0,2,2,1,0,65,65,38,,,['l'],0,[0.4168627912786178],2018_Jul_09_1059,60.0476538588,go-nogo,001,3,
logos/2.jpg,properties2.xlsx,frogs/ab44.jpg,0,0,400,l,0,2,2,1,0,66,66,43,,,['l'],0,[0.7168045938951764],2018_Jul_09_1059,60.0476538588,go-nogo,001,3,
logos/2.jpg,properties2.xlsx,frogs/ab79.jpg,0,0,400,l,0,2,2,1,0,67,67,77,,,['l'],0,[0.5002801780169648],2018_Jul_09_1059,60.0476538588,go-nogo,001,3,
logos/2.jpg,properties2.xlsx,frogs/ab24.jpg,0,0,400,l,0,2,2,1,0,68,68,23,,,['l'],0,[0.0005649071486004686],2018_Jul_09_1059,60.0476538588,go-nogo,001,3,
logos/2.jpg,properties2.xlsx,frogs/ab10.jpg,0,0,400,l,0,2,2,1,0,69,69,9,,,['l'],0,[0.0338477799946304],2018_Jul_09_1059,60.0476538588,go-nogo,001,3,
logos/2.jpg,properties2.xlsx,frogs/ab19.jpg,0,0,400,l,0,2,2,1,0,70,70,18,,,['l'],0,[0.050405874123953254],2018_Jul_09_1059,60.0476538588,go-nogo,001,3,
logos/2.jpg,properties2.xlsx,frogs/ab8.jpg,0,0,400,l,0,2,2,1,0,71,71,7,,,['l'],0,[0.1005142191052073],2018_Jul_09_1059,60.0476538588,go-nogo,001,3,
logos/2.jpg,properties2.xlsx,logos/2.jpg,0,0,400,a,0,2,2,1,0,72,72,81,,,['a'],0,[0.0005637693702738034],2018_Jul_09_1059,60.0476538588,go-nogo,001,3,
logos/2.jpg,properties2.xlsx,frogs/ab34.jpg,0,0,400,l,0,2,2,1,0,73,73,33,,,['l'],0,[0.49990641769818467],2018_Jul_09_1059,60.0476538588,go-nogo,001,3,
logos/2.jpg,properties2.xlsx,frogs/ab58.jpg,0,0,400,l,0,2,2,1,0,74,74,57,,,['l'],0,[1.116598428386169],2018_Jul_09_1059,60.0476538588,go-nogo,001,3,
logos/2.jpg,properties2.xlsx,frogs/ab7.jpg,0,0,400,l,0,2,2,1,0,75,75,6,,,['l'],0,[0.5668686792837434],2018_Jul_09_1059,60.0476538588,go-nogo,001,3,
logos/2.jpg,properties2.xlsx,frogs/ab16.jpg,0,0,400,l,0,2,2,1,0,76,76,15,,,['l'],0,[1.5829250129850152],2018_Jul_09_1059,60.0476538588,go-nogo,001,3,
logos/2.jpg,properties2.xlsx,logos/2.jpg,0,0,400,a,0,2,2,1,0,77,77,89,,,['l'],0,[0.4669148162120109],2018_Jul_09_1059,60.0476538588,go-nogo,001,3,
logos/2.jpg,properties2.xlsx,frogs/ab11.jpg,0,0,400,l,0,2,2,1,0,78,78,10,,,['l'],0,[0.2335637904188843],2018_Jul_09_1059,60.0476538588,go-nogo,001,3,
logos/2.jpg,properties2.xlsx,frogs/ab29.jpg,0,0,400,l,0,2,2,1,0,79,79,28,,,['l'],0,[0.30021885174210183],2018_Jul_09_1059,60.0476538588,go-nogo,001,3,
logos/2.jpg,properties2.xlsx,frogs/ab36.jpg,0,0,400,l,0,2,2,1,0,80,80,35,,,['l'],0,[0.017200939122631098],2018_Jul_09_1059,60.0476538588,go-nogo,001,3,
logos/2.jpg,properties2.xlsx,frogs/ab46.jpg,0,0,400,l,0,2,2,1,0,81,81,45,,,['l'],0,[0.01734031701926142],2018_Jul_09_1059,60.0476538588,go-nogo,001,3,
logos/2.jpg,properties2.xlsx,frogs/ab66.jpg,0,0,400,l,0,2,2,1,0,82,82,64,,,['l'],0,[0.4172701160705401],2018_Jul_09_1059,60.0476538588,go-nogo,001,3,
logos/2.jpg,properties2.xlsx,logos/2.jpg,0,0,400,a,0,2,2,1,0,83,83,80,,,['l'],0,[0.36696379758723197],2018_Jul_09_1059,60.0476538588,go-nogo,001,3,
logos/2.jpg,properties2.xlsx,frogs/ab56.jpg,0,0,400,l,0,2,2,1,0,84,84,55,,,['l'],0,[0.08383893376458218],2018_Jul_09_1059,60.0476538588,go-nogo,001,3,
logos/2.jpg,properties2.xlsx,logos/2.jpg,0,0,400,a,0,2,2,1,0,85,85,86,,,['a'],0,[0.033922873392384645],2018_Jul_09_1059,60.0476538588,go-nogo,001,3,
logos/2.jpg,properties2.xlsx,frogs/ab23.jpg,0,0,400,l,0,2,2,1,0,86,86,22,,,['l'],0,[0.2504108803505005],2018_Jul_09_1059,60.0476538588,go-nogo,001,3,
logos/2.jpg,properties2.xlsx,frogs/ab81.jpg,0,0,400,l,0,2,2,1,0,87,87,79,,,['l'],0,[0.1338420342117388],2018_Jul_09_1059,60.0476538588,go-nogo,001,3,
logos/2.jpg,properties2.xlsx,frogs/ab3.jpg,0,0,400,l,0,2,2,1,0,88,88,2,,,['l'],0,[0.28329951286013966],2018_Jul_09_1059,60.0476538588,go-nogo,001,3,
logos/2.jpg,properties2.xlsx,frogs/ab35.jpg,0,0,400,l,0,2,2,1,0,89,89,34,,,['l'],0,[0.6001253832182556],2018_Jul_09_1059,60.0476538588,go-nogo,001,3,
logos/2.jpg,properties2.xlsx,,,,,,0,2,2,1,,,,,,,,,,2018_Jul_09_1059,60.0476538588,go-nogo,001,3,
logos/4.jpg,properties4.xlsx,frogs/ab40.jpg,0,0,400,l,0,3,3,3,0,0,0,39,space,5.19181413701,['l'],0,[0.05062546542285418],2018_Jul_09_1059,60.0476538588,go-nogo,001,3,
logos/4.jpg,properties4.xlsx,frogs/ab76.jpg,0,0,400,l,0,3,3,3,0,1,1,74,,,['l'],0,[0.416912853543181],2018_Jul_09_1059,60.0476538588,go-nogo,001,3,
logos/4.jpg,properties4.xlsx,frogs/ab14.jpg,0,0,400,l,0,3,3,3,0,2,2,13,,,['l'],0,[0.3836999540908437],2018_Jul_09_1059,60.0476538588,go-nogo,001,3,
logos/4.jpg,properties4.xlsx,frogs/ab16.jpg,0,0,400,l,0,3,3,3,0,3,3,15,,,['l'],0,[0.36689439308293004],2018_Jul_09_1059,60.0476538588,go-nogo,001,3,
logos/4.jpg,properties4.xlsx,logos/4.jpg,0,0,400,a,0,3,3,3,0,4,4,88,,,['a'],0,[0.0338699666804132],2018_Jul_09_1059,60.0476538588,go-nogo,001,3,
logos/4.jpg,properties4.xlsx,logos/4.jpg,0,0,400,a,0,3,3,3,0,5,5,81,,,['a'],0,[0.150352910523452],2018_Jul_09_1059,60.0476538588,go-nogo,001,3,
logos/4.jpg,properties4.xlsx,frogs/ab9.jpg,0,0,400,l,0,3,3,3,0,6,6,8,,,['l'],0,[0.217076807461126],2018_Jul_09_1059,60.0476538588,go-nogo,001,3,
logos/4.jpg,properties4.xlsx,frogs/ab52.jpg,0,0,400,l,0,3,3,3,0,7,7,51,,,['l'],0,[0.050413269686032436],2018_Jul_09_1059,60.0476538588,go-nogo,001,3,
logos/4.jpg,properties4.xlsx,frogs/ab6.jpg,0,0,400,l,0,3,3,3,0,8,8,5,,,['l'],0,[0.2837665710362671],2018_Jul_09_1059,60.0476538588,go-nogo,001,3,
logos/4.jpg,properties4.xlsx,frogs/ab34.jpg,0,0,400,l,0,3,3,3,0,9,9,33,,,['l'],0,[0.40030071492310526],2018_Jul_09_1059,60.0476538588,go-nogo,001,3,
logos/4.jpg,properties4.xlsx,frogs/ab17.jpg,0,0,400,l,0,3,3,3,0,10,10,16,,,['l'],0,[1.099764991799475],2018_Jul_09_1059,60.0476538588,go-nogo,001,3,
logos/4.jpg,properties4.xlsx,frogs/ab77.jpg,0,0,400,l,0,3,3,3,0,11,11,75,,,['l'],0,[0.017163392423753976],2018_Jul_09_1059,60.0476538588,go-nogo,001,3,
logos/4.jpg,properties4.xlsx,frogs/ab56.jpg,0,0,400,l,0,3,3,3,0,12,12,55,,,['l'],0,[0.08350158236589778],2018_Jul_09_1059,60.0476538588,go-nogo,001,3,
logos/4.jpg,properties4.xlsx,frogs/ab25.jpg,0,0,400,l,0,3,3,3,0,13,13,24,,,['l'],0,[0.40029559491904365],2018_Jul_09_1059,60.0476538588,go-nogo,001,3,
logos/4.jpg,properties4.xlsx,frogs/ab68.jpg,0,0,400,l,0,3,3,3,0,14,14,66,,,['l'],0,[0.3670866776915318],2018_Jul_09_1059,60.0476538588,go-nogo,001,3,
logos/4.jpg,properties4.xlsx,frogs/ab74.jpg,0,0,400,l,0,3,3,3,0,15,15,72,,,['l'],0,[1.0500525938227838],2018_Jul_09_1059,60.0476538588,go-nogo,001,3,
logos/4.jpg,properties4.xlsx,frogs/ab53.jpg,0,0,400,l,0,3,3,3,0,16,16,52,,,['l'],0,[0.4169014757558216],2018_Jul_09_1059,60.0476538588,go-nogo,001,3,
logos/4.jpg,properties4.xlsx,logos/4.jpg,0,0,400,a,0,3,3,3,0,17,17,82,,,['a'],0,[0.050521358667083405],2018_Jul_09_1059,60.0476538588,go-nogo,001,3,
logos/4.jpg,properties4.xlsx,frogs/ab64.jpg,0,0,400,l,0,3,3,3,0,18,18,62,,,['l'],0,[0.15037509720878006],2018_Jul_09_1059,60.0476538588,go-nogo,001,3,
logos/4.jpg,properties4.xlsx,frogs/ab70.jpg,0,0,400,l,0,3,3,3,0,19,19,68,,,['l'],0,[0.36672998405401813],2018_Jul_09_1059,60.0476538588,go-nogo,001,3,
logos/4.jpg,properties4.xlsx,frogs/ab38.jpg,0,0,400,l,0,3,3,3,0,20,20,37,,,['l'],0,[0.08351239126386645],2018_Jul_09_1059,60.0476538588,go-nogo,001,3,
logos/4.jpg,properties4.xlsx,frogs/ab31.jpg,0,0,400,l,0,3,3,3,0,21,21,30,,,['l'],0,[0.2504580981685649],2018_Jul_09_1059,60.0476538588,go-nogo,001,3,
logos/4.jpg,properties4.xlsx,frogs/ab47.jpg,0,0,400,l,0,3,3,3,0,22,22,46,,,['l'],0,[0.4835514170749775],2018_Jul_09_1059,60.0476538588,go-nogo,001,3,
logos/4.jpg,properties4.xlsx,frogs/ab28.jpg,0,0,400,l,0,3,3,3,0,23,23,27,,,['l'],0,[0.5169338455616526],2018_Jul_09_1059,60.0476538588,go-nogo,001,3,
logos/4.jpg,properties4.xlsx,frogs/ab49.jpg,0,0,400,l,0,3,3,3,0,24,24,48,,,['l'],0,[0.4669051450923689],2018_Jul_09_1059,60.0476538588,go-nogo,001,3,
logos/4.jpg,properties4.xlsx,frogs/ab20.jpg,0,0,400,l,0,3,3,3,0,25,25,19,,,['l'],0,[0.3670815576874702],2018_Jul_09_1059,60.0476538588,go-nogo,001,3,
logos/4.jpg,properties4.xlsx,frogs/ab55.jpg,0,0,400,l,0,3,3,3,0,26,26,54,,,['l'],0,[0.3669131664323686],2018_Jul_09_1059,60.0476538588,go-nogo,001,3,
logos/4.jpg,properties4.xlsx,logos/4.jpg,0,0,400,a,0,3,3,3,0,27,27,84,,,['a'],0,[0.11740170018265417],2018_Jul_09_1059,60.0476538588,go-nogo,001,3,
logos/4.jpg,properties4.xlsx,frogs/ab36.jpg,0,0,400,l,0,3,3,3,0,28,28,35,,,['l'],0,[8.046024857052544],2018_Jul_09_1059,60.0476538588,go-nogo,001,3,
logos/4.jpg,properties4.xlsx,frogs/ab58.jpg,0,0,400,l,0,3,3,3,0,29,29,57,,,['l'],0,[0.5499191892640738],2018_Jul_09_1059,60.0476538588,go-nogo,001,3,
logos/4.jpg,properties4.xlsx,frogs/ab1.jpg,0,0,400,l,0,3,3,3,0,30,30,0,,,['l'],0,[0.33383111153580103],2018_Jul_09_1059,60.0476538588,go-nogo,001,3,
logos/4.jpg,properties4.xlsx,frogs/ab80.jpg,0,0,400,l,0,3,3,3,0,31,31,78,,,['l'],0,[0.35032093894051286],2018_Jul_09_1059,60.0476538588,go-nogo,001,3,
logos/4.jpg,properties4.xlsx,frogs/ab72.jpg,0,0,400,l,0,3,3,3,0,32,32,70,,,['l'],0,[0.3504779524082551],2018_Jul_09_1059,60.0476538588,go-nogo,001,3,
logos/4.jpg,properties4.xlsx,frogs/ab65.jpg,0,0,400,l,0,3,3,3,0,33,33,63,,,['l'],0,[0.40027340823326085],2018_Jul_09_1059,60.0476538588,go-nogo,001,3,
logos/4.jpg,properties4.xlsx,frogs/ab46.jpg,0,0,400,l,0,3,3,3,0,34,34,45,,,['l'],0,[0.40014939034972485],2018_Jul_09_1059,60.0476538588,go-nogo,001,3,
logos/4.jpg,properties4.xlsx,logos/4.jpg,0,0,400,a,0,3,3,3,0,35,35,87,,,['a'],0,[0.000565476037991175],2018_Jul_09_1059,60.0476538588,go-nogo,001,3,
logos/4.jpg,properties4.xlsx,frogs/ab13.jpg,0,0,400,l,0,3,3,3,0,36,36,12,,,['l'],0,[0.36693876645449564],2018_Jul_09_1059,60.0476538588,go-nogo,001,3,
logos/4.jpg,properties4.xlsx,frogs/ab43.jpg,0,0,400,l,0,3,3,3,0,37,37,42,,,['l'],0,[0.35026973889671353],2018_Jul_09_1059,60.0476538588,go-nogo,001,3,
logos/4.jpg,properties4.xlsx,frogs/ab66.jpg,0,0,400,l,0,3,3,3,0,38,38,64,,,['l'],0,[0.41703004475448324],2018_Jul_09_1059,60.0476538588,go-nogo,001,3,
logos/4.jpg,properties4.xlsx,frogs/ab78.jpg,0,0,400,l,0,3,3,3,0,39,39,76,,,['l'],0,[0.4670871896923927],2018_Jul_09_1059,60.0476538588,go-nogo,001,3,
logos/4.jpg,properties4.xlsx,frogs/ab50.jpg,0,0,400,l,0,3,3,3,0,40,40,49,,,['l'],0,[0.5504511008293775],2018_Jul_09_1059,60.0476538588,go-nogo,001,3,
logos/4.jpg,properties4.xlsx,frogs/ab8.jpg,0,0,400,l,0,3,3,3,0,41,41,7,,,['l'],0,[0.033758464362563245],2018_Jul_09_1059,60.0476538588,go-nogo,001,3,
logos/4.jpg,properties4.xlsx,frogs/ab5.jpg,0,0,400,l,0,3,3,3,0,42,42,4,,,['l'],0,[0.1836989300895766],2018_Jul_09_1059,60.0476538588,go-nogo,001,3,
logos/4.jpg,properties4.xlsx,frogs/ab11.jpg,0,0,400,l,0,3,3,3,0,43,43,10,,,['l'],0,[0.3003371807321855],2018_Jul_09_1059,60.0476538588,go-nogo,001,3,
logos/4.jpg,properties4.xlsx,frogs/ab73.jpg,0,0,400,l,0,3,3,3,0,44,44,71,,,['l'],0,[0.33357397353847773],2018_Jul_09_1059,60.0476538588,go-nogo,001,3,
logos/4.jpg,properties4.xlsx,frogs/ab41.jpg,0,0,400,l,0,3,3,3,0,45,45,40,,,['l'],0,[0.40037125720573385],2018_Jul_09_1059,60.0476538588,go-nogo,001,3,
logos/4.jpg,properties4.xlsx,frogs/ab79.jpg,0,0,400,l,0,3,3,3,0,46,46,77,,,['l'],0,[0.3000390827000956],2018_Jul_09_1059,60.0476538588,go-nogo,001,3,
logos/4.jpg,properties4.xlsx,frogs/ab45.jpg,0,0,400,l,0,3,3,3,0,47,47,44,,,['l'],0,[0.20030993093132565],2018_Jul_09_1059,60.0476538588,go-nogo,001,3,
logos/4.jpg,properties4.xlsx,frogs/ab23.jpg,0,0,400,l,0,3,3,3,0,48,48,22,,,['l'],0,[0.5669881460521538],2018_Jul_09_1059,60.0476538588,go-nogo,001,3,
logos/4.jpg,properties4.xlsx,frogs/ab44.jpg,0,0,400,l,0,3,3,3,0,49,49,43,,,['l'],0,[0.31666885689082847],2018_Jul_09_1059,60.0476538588,go-nogo,001,3,
logos/4.jpg,properties4.xlsx,frogs/ab75.jpg,0,0,400,l,0,3,3,3,0,50,50,73,,,['l'],0,[0.2669268766667301],2018_Jul_09_1059,60.0476538588,go-nogo,001,3,
logos/4.jpg,properties4.xlsx,frogs/ab33.jpg,0,0,400,l,0,3,3,3,0,51,51,32,,,['l'],0,[0.31703806609448293],2018_Jul_09_1059,60.0476538588,go-nogo,001,3,
logos/4.jpg,properties4.xlsx,frogs/ab29.jpg,0,0,400,l,0,3,3,3,0,52,52,28,,,['l'],0,[0.4669631718088567],2018_Jul_09_1059,60.0476538588,go-nogo,001,3,
logos/4.jpg,properties4.xlsx,frogs/ab32.jpg,0,0,400,l,0,3,3,3,0,53,53,31,,,['l'],0,[0.31712510616898726],2018_Jul_09_1059,60.0476538588,go-nogo,001,3,
logos/4.jpg,properties4.xlsx,frogs/ab19.jpg,0,0,400,l,0,3,3,3,0,54,54,18,,,['l'],0,[0.1834417920922533],2018_Jul_09_1059,60.0476538588,go-nogo,001,3,
logos/4.jpg,properties4.xlsx,frogs/ab30.jpg,0,0,400,l,0,3,3,3,0,55,55,29,,,['l'],0,[0.3169965371703256],2018_Jul_09_1059,60.0476538588,go-nogo,001,3,
logos/4.jpg,properties4.xlsx,frogs/ab69.jpg,0,0,400,l,0,3,3,3,0,56,56,67,,,['l'],0,[0.4504744821829263],2018_Jul_09_1059,60.0476538588,go-nogo,001,3,
logos/4.jpg,properties4.xlsx,frogs/ab48.jpg,0,0,400,l,0,3,3,3,0,57,57,47,,,['l'],0,[0.3337998226202217],2018_Jul_09_1059,60.0476538588,go-nogo,001,3,
logos/4.jpg,properties4.xlsx,frogs/ab51.jpg,0,0,400,l,0,3,3,3,0,58,58,50,,,['l'],0,[0.39979042115464836],2018_Jul_09_1059,60.0476538588,go-nogo,001,3,
logos/4.jpg,properties4.xlsx,frogs/ab10.jpg,0,0,400,l,0,3,3,3,0,59,59,9,,,['l'],0,[0.3004225141385177],2018_Jul_09_1059,60.0476538588,go-nogo,001,3,
logos/4.jpg,properties4.xlsx,frogs/ab67.jpg,0,0,400,l,0,3,3,3,0,60,60,65,,,['l'],0,[0.23372478611190672],2018_Jul_09_1059,60.0476538588,go-nogo,001,3,
logos/4.jpg,properties4.xlsx,frogs/ab7.jpg,0,0,400,l,0,3,3,3,0,61,61,6,,,['l'],0,[0.2838718155708193],2018_Jul_09_1059,60.0476538588,go-nogo,001,3,
logos/4.jpg,properties4.xlsx,frogs/ab62.jpg,0,0,400,l,0,3,3,3,0,62,62,60,,,['l'],0,[0.4836492660474505],2018_Jul_09_1059,60.0476538588,go-nogo,001,3,
logos/4.jpg,properties4.xlsx,frogs/ab3.jpg,0,0,400,l,0,3,3,3,0,63,63,2,,,['l'],0,[0.2170859096913773],2018_Jul_09_1059,60.0476538588,go-nogo,001,3,
logos/4.jpg,properties4.xlsx,logos/4.jpg,0,0,400,a,0,3,3,3,0,64,64,83,,,['l'],0,[1.732964465463283],2018_Jul_09_1059,60.0476538588,go-nogo,001,3,
logos/4.jpg,properties4.xlsx,frogs/ab81.jpg,0,0,400,l,0,3,3,3,0,65,65,79,,,['l'],0,[0.6333934649401272],2018_Jul_09_1059,60.0476538588,go-nogo,001,3,
logos/4.jpg,properties4.xlsx,frogs/ab60.jpg,0,0,400,l,0,3,3,3,0,66,66,58,,,['l'],0,[0.7502558579958531],2018_Jul_09_1059,60.0476538588,go-nogo,001,3,
logos/4.jpg,properties4.xlsx,frogs/ab42.jpg,0,0,400,l,0,3,3,3,0,67,67,41,,,['l'],0,[0.33361038245857344],2018_Jul_09_1059,60.0476538588,go-nogo,001,3,
logos/4.jpg,properties4.xlsx,frogs/ab61.jpg,0,0,400,l,0,3,3,3,0,68,68,59,,,['l'],0,[0.5834512356564119],2018_Jul_09_1059,60.0476538588,go-nogo,001,3,
logos/4.jpg,properties4.xlsx,logos/4.jpg,0,0,400,a,0,3,3,3,0,69,69,89,,,['a'],0,[0.06726035961764865],2018_Jul_09_1059,60.0476538588,go-nogo,001,3,
logos/4.jpg,properties4.xlsx,frogs/ab21.jpg,0,0,400,l,0,3,3,3,0,70,70,20,,,['l'],0,[0.33370993809921856],2018_Jul_09_1059,60.0476538588,go-nogo,001,3,
logos/4.jpg,properties4.xlsx,frogs/ab22.jpg,0,0,400,l,0,3,3,3,0,71,71,21,,,['l'],0,[1.7495009417962137],2018_Jul_09_1059,60.0476538588,go-nogo,001,3,
logos/4.jpg,properties4.xlsx,frogs/ab24.jpg,0,0,400,l,0,3,3,3,0,72,72,23,,,['l'],0,[0.017216868025116128],2018_Jul_09_1059,60.0476538588,go-nogo,001,3,
logos/4.jpg,properties4.xlsx,frogs/ab12.jpg,0,0,400,l,0,3,3,3,0,73,73,11,,,['l'],0,[0.08377464926525136],2018_Jul_09_1059,60.0476538588,go-nogo,001,3,
logos/4.jpg,properties4.xlsx,frogs/ab57.jpg,0,0,400,l,0,3,3,3,0,74,74,56,,,['l'],0,[1.4496154592275161],2018_Jul_09_1059,60.0476538588,go-nogo,001,3,
logos/4.jpg,properties4.xlsx,frogs/ab54.jpg,0,0,400,l,0,3,3,3,0,75,75,53,,,['l'],0,[0.150228892639916],2018_Jul_09_1059,60.0476538588,go-nogo,001,3,
logos/4.jpg,properties4.xlsx,frogs/ab18.jpg,0,0,400,l,0,3,3,3,0,76,76,17,,,['l'],0,[0.3998598256580408],2018_Jul_09_1059,60.0476538588,go-nogo,001,3,
logos/4.jpg,properties4.xlsx,logos/4.jpg,0,0,400,a,0,3,3,3,0,77,77,80,,,['l'],0,[1.2998132336183517],2018_Jul_09_1059,60.0476538588,go-nogo,001,3,
logos/4.jpg,properties4.xlsx,frogs/ab63.jpg,0,0,400,l,0,3,3,3,0,78,78,61,,,['l'],0,[0.4336672145072953],2018_Jul_09_1059,60.0476538588,go-nogo,001,3,
logos/4.jpg,properties4.xlsx,frogs/ab27.jpg,0,0,400,l,0,3,3,3,0,79,79,26,,,['l'],0,[0.1172936112016032],2018_Jul_09_1059,60.0476538588,go-nogo,001,3,
logos/4.jpg,properties4.xlsx,frogs/ab39.jpg,0,0,400,l,0,3,3,3,0,80,80,38,,,['l'],0,[0.3170977994786881],2018_Jul_09_1059,60.0476538588,go-nogo,001,3,
logos/4.jpg,properties4.xlsx,frogs/ab4.jpg,0,0,400,l,0,3,3,3,0,81,81,3,,,['l'],0,[0.08408071174881115],2018_Jul_09_1059,60.0476538588,go-nogo,001,3,
logos/4.jpg,properties4.xlsx,logos/4.jpg,0,0,400,a,0,3,3,3,0,82,82,85,,,['l'],0,[0.783546695293353],2018_Jul_09_1059,60.0476538588,go-nogo,001,3,
logos/4.jpg,properties4.xlsx,frogs/ab37.jpg,0,0,400,l,0,3,3,3,0,83,83,36,,,['l'],0,[0.03471362962227431],2018_Jul_09_1059,60.0476538588,go-nogo,001,3,
logos/4.jpg,properties4.xlsx,frogs/ab2.jpg,0,0,400,l,0,3,3,3,0,84,84,1,,,['l'],0,[0.2505445693536785],2018_Jul_09_1059,60.0476538588,go-nogo,001,3,
logos/4.jpg,properties4.xlsx,frogs/ab26.jpg,0,0,400,l,0,3,3,3,0,85,85,25,,,['l'],0,[8.429177539564535],2018_Jul_09_1059,60.0476538588,go-nogo,001,3,
logos/4.jpg,properties4.xlsx,logos/4.jpg,0,0,400,a,0,3,3,3,0,86,86,86,,,['l'],0,[0.4335483166278209],2018_Jul_09_1059,60.0476538588,go-nogo,001,3,
logos/4.jpg,properties4.xlsx,frogs/ab15.jpg,0,0,400,l,0,3,3,3,0,87,87,14,,,['l'],0,[0.05054582090997428],2018_Jul_09_1059,60.0476538588,go-nogo,001,3,
logos/4.jpg,properties4.xlsx,frogs/ab71.jpg,0,0,400,l,0,3,3,3,0,88,88,69,,,['l'],0,[0.0005688893743354129],2018_Jul_09_1059,60.0476538588,go-nogo,001,3,
logos/4.jpg,properties4.xlsx,frogs/ab35.jpg,0,0,400,l,0,3,3,3,0,89,89,34,,,['l'],0,[0.4502941442510746],2018_Jul_09_1059,60.0476538588,go-nogo,001,3,
logos/4.jpg,properties4.xlsx,,,,,,0,3,3,3,,,,,,,,,,2018_Jul_09_1059,60.0476538588,go-nogo,001,3,
