pix,source,image1,x,y,size,answer,trials_2.thisRepN,trials_2.thisTrialN,trials_2.thisN,trials_2.thisIndex,trials.thisRepN,trials.thisTrialN,trials.thisN,trials.thisIndex,key_resp_3.keys,key_resp_3.rt,key_resp_2.keys,key_resp_2.corr,key_resp_2.rt,date,frameRate,expName,session,participant,
logos/4.jpg,properties4.xlsx,logos/4.jpg,0,0,400,a,0,0,0,3,0,0,0,83,space,33.4448310996,['a'],0,[0.06709538169889129],2018_Jul_09_1428,60.0720737344,go-nogo,001,40,
logos/4.jpg,properties4.xlsx,frogs/ab2.jpg,0,0,400,l,0,0,0,3,0,1,1,1,,,['l'],0,[0.150408661680558],2018_Jul_09_1428,60.0720737344,go-nogo,001,40,
logos/4.jpg,properties4.xlsx,frogs/ab62.jpg,0,0,400,l,0,0,0,3,0,2,2,60,,,['l'],0,[0.0005649071481457213],2018_Jul_09_1428,60.0720737344,go-nogo,001,40,
logos/4.jpg,properties4.xlsx,frogs/ab17.jpg,0,0,400,l,0,0,0,3,0,3,3,16,,,['l'],0,[2.04947744666606],2018_Jul_09_1428,60.0720737344,go-nogo,001,40,
logos/4.jpg,properties4.xlsx,frogs/ab28.jpg,0,0,400,l,0,0,0,3,0,4,4,27,,,['l'],0,[1.33314616872849],2018_Jul_09_1428,60.0720737344,go-nogo,001,40,
logos/4.jpg,properties4.xlsx,frogs/ab31.jpg,0,0,400,l,0,0,0,3,0,5,5,30,,,['l'],0,[0.5168530632709007],2018_Jul_09_1428,60.0720737344,go-nogo,001,40,
logos/4.jpg,properties4.xlsx,frogs/ab43.jpg,0,0,400,l,0,0,0,3,0,6,6,42,,,['l'],0,[0.53354313973432],2018_Jul_09_1428,60.0720737344,go-nogo,001,40,
logos/4.jpg,properties4.xlsx,frogs/ab3.jpg,0,0,400,l,0,0,0,3,0,7,7,2,,,['l'],0,[0.5336358687036409],2018_Jul_09_1428,60.0720737344,go-nogo,001,40,
logos/4.jpg,properties4.xlsx,frogs/ab78.jpg,0,0,400,l,0,0,0,3,0,8,8,76,,,['l'],0,[0.43363365003460785],2018_Jul_09_1428,60.0720737344,go-nogo,001,40,
logos/4.jpg,properties4.xlsx,frogs/ab22.jpg,0,0,400,l,0,0,0,3,0,9,9,21,,,['l'],0,[0.4334151965140336],2018_Jul_09_1428,60.0720737344,go-nogo,001,40,
logos/4.jpg,properties4.xlsx,frogs/ab26.jpg,0,0,400,l,0,0,0,3,0,10,10,25,,,['l'],0,[0.41705678255493694],2018_Jul_09_1428,60.0720737344,go-nogo,001,40,
logos/4.jpg,properties4.xlsx,logos/4.jpg,0,0,400,a,0,0,0,3,0,11,11,80,,,['a'],0,[0.41693276467049145],2018_Jul_09_1428,60.0720737344,go-nogo,001,40,
logos/4.jpg,properties4.xlsx,frogs/ab47.jpg,0,0,400,l,0,0,0,3,0,12,12,46,,,['l'],0,[0.33348465790732007],2018_Jul_09_1428,60.0720737344,go-nogo,001,40,
logos/4.jpg,properties4.xlsx,frogs/ab72.jpg,0,0,400,l,0,0,0,3,0,13,13,70,,,['l'],0,[0.23377655504373251],2018_Jul_09_1428,60.0720737344,go-nogo,001,40,
logos/4.jpg,properties4.xlsx,frogs/ab29.jpg,0,0,400,l,0,0,0,3,0,14,14,28,,,['l'],0,[0.25039495144665125],2018_Jul_09_1428,60.0720737344,go-nogo,001,40,
logos/4.jpg,properties4.xlsx,frogs/ab34.jpg,0,0,400,l,0,0,0,3,0,15,15,33,,,['l'],0,[0.4003928750025807],2018_Jul_09_1428,60.0720737344,go-nogo,001,40,
logos/4.jpg,properties4.xlsx,frogs/ab76.jpg,0,0,400,l,0,0,0,3,0,16,16,74,,,['l'],0,[0.3669774509326089],2018_Jul_09_1428,60.0720737344,go-nogo,001,40,
logos/4.jpg,properties4.xlsx,logos/4.jpg,0,0,400,a,0,0,0,3,0,17,17,87,,,['a'],0,[0.3502856677987438],2018_Jul_09_1428,60.0720737344,go-nogo,001,40,
logos/4.jpg,properties4.xlsx,frogs/ab20.jpg,0,0,400,l,0,0,0,3,0,18,18,19,,,['l'],0,[0.21700285184306267],2018_Jul_09_1428,60.0720737344,go-nogo,001,40,
logos/4.jpg,properties4.xlsx,frogs/ab58.jpg,0,0,400,l,0,0,0,3,0,19,19,57,,,['l'],0,[0.3003064607055421],2018_Jul_09_1428,60.0720737344,go-nogo,001,40,
logos/4.jpg,properties4.xlsx,frogs/ab46.jpg,0,0,400,l,0,0,0,3,0,20,20,45,,,['l'],0,[0.3337753603773308],2018_Jul_09_1428,60.0720737344,go-nogo,001,40,
logos/4.jpg,properties4.xlsx,frogs/ab75.jpg,0,0,400,l,0,0,0,3,0,21,21,73,,,['l'],0,[0.350074609841613],2018_Jul_09_1428,60.0720737344,go-nogo,001,40,
logos/4.jpg,properties4.xlsx,frogs/ab19.jpg,0,0,400,l,0,0,0,3,0,22,22,18,,,['l'],0,[0.35038693010938005],2018_Jul_09_1428,60.0720737344,go-nogo,001,40,
logos/4.jpg,properties4.xlsx,frogs/ab10.jpg,0,0,400,l,0,0,0,3,0,23,23,9,,,['l'],0,[0.3169060837590223],2018_Jul_09_1428,60.0720737344,go-nogo,001,40,
logos/4.jpg,properties4.xlsx,frogs/ab18.jpg,0,0,400,l,0,0,0,3,0,24,24,17,,,['l'],0,[0.31685943483171286],2018_Jul_09_1428,60.0720737344,go-nogo,001,40,
logos/4.jpg,properties4.xlsx,frogs/ab65.jpg,0,0,400,l,0,0,0,3,0,25,25,63,,,['l'],0,[0.36706733545361203],2018_Jul_09_1428,60.0720737344,go-nogo,001,40,
logos/4.jpg,properties4.xlsx,frogs/ab37.jpg,0,0,400,l,0,0,0,3,0,26,26,36,,,['l'],0,[0.2502441957640258],2018_Jul_09_1428,60.0720737344,go-nogo,001,40,
logos/4.jpg,properties4.xlsx,frogs/ab23.jpg,0,0,400,l,0,0,0,3,0,27,27,22,,,['l'],0,[0.3004424252667377],2018_Jul_09_1428,60.0720737344,go-nogo,001,40,
logos/4.jpg,properties4.xlsx,frogs/ab51.jpg,0,0,400,l,0,0,0,3,0,28,28,50,,,['l'],0,[0.28377055326200207],2018_Jul_09_1428,60.0720737344,go-nogo,001,40,
logos/4.jpg,properties4.xlsx,frogs/ab16.jpg,0,0,400,l,0,0,0,3,0,29,29,15,,,['l'],0,[0.3170557016655948],2018_Jul_09_1428,60.0720737344,go-nogo,001,40,
logos/4.jpg,properties4.xlsx,logos/4.jpg,0,0,400,a,0,0,0,3,0,30,30,89,,,['a'],0,[0.23401662636024412],2018_Jul_09_1428,60.0720737344,go-nogo,001,40,
logos/4.jpg,properties4.xlsx,frogs/ab74.jpg,0,0,400,l,0,0,0,3,0,31,31,72,,,['l'],0,[0.2838160644114396],2018_Jul_09_1428,60.0720737344,go-nogo,001,40,
logos/4.jpg,properties4.xlsx,frogs/ab81.jpg,0,0,400,l,0,0,0,3,0,32,32,79,,,['l'],0,[0.25038698699790984],2018_Jul_09_1428,60.0720737344,go-nogo,001,40,
logos/4.jpg,properties4.xlsx,frogs/ab40.jpg,0,0,400,l,0,0,0,3,0,33,33,39,,,['l'],0,[0.3170158794091549],2018_Jul_09_1428,60.0720737344,go-nogo,001,40,
logos/4.jpg,properties4.xlsx,frogs/ab48.jpg,0,0,400,l,0,0,0,3,0,34,34,47,,,['l'],0,[0.25000867556263984],2018_Jul_09_1428,60.0720737344,go-nogo,001,40,
logos/4.jpg,properties4.xlsx,frogs/ab77.jpg,0,0,400,l,0,0,0,3,0,35,35,75,,,['l'],0,[0.2834007751680474],2018_Jul_09_1428,60.0720737344,go-nogo,001,40,
logos/4.jpg,properties4.xlsx,frogs/ab63.jpg,0,0,400,l,0,0,0,3,0,36,36,61,,,['l'],0,[0.2336707416216086],2018_Jul_09_1428,60.0720737344,go-nogo,001,40,
logos/4.jpg,properties4.xlsx,frogs/ab61.jpg,0,0,400,l,0,0,0,3,0,37,37,59,,,['l'],0,[0.2670440678775776],2018_Jul_09_1428,60.0720737344,go-nogo,001,40,
logos/4.jpg,properties4.xlsx,frogs/ab33.jpg,0,0,400,l,0,0,0,3,0,38,38,32,,,['l'],0,[0.28367270429043856],2018_Jul_09_1428,60.0720737344,go-nogo,001,40,
logos/4.jpg,properties4.xlsx,logos/4.jpg,0,0,400,a,0,0,0,3,0,39,39,82,,,['a'],0,[0.16700430250966747],2018_Jul_09_1428,60.0720737344,go-nogo,001,40,
logos/4.jpg,properties4.xlsx,frogs/ab57.jpg,0,0,400,l,0,0,0,3,0,40,40,56,,,['l'],0,[0.06723191514902283],2018_Jul_09_1428,60.0720737344,go-nogo,001,40,
logos/4.jpg,properties4.xlsx,frogs/ab30.jpg,0,0,400,l,0,0,0,3,0,41,41,29,,,['l'],0,[0.7167727360902063],2018_Jul_09_1428,60.0720737344,go-nogo,001,40,
logos/4.jpg,properties4.xlsx,frogs/ab70.jpg,0,0,400,l,0,0,0,3,0,42,42,68,,,['l'],0,[0.38349515391564637],2018_Jul_09_1428,60.0720737344,go-nogo,001,40,
logos/4.jpg,properties4.xlsx,frogs/ab1.jpg,0,0,400,l,0,0,0,3,0,43,43,0,,,['l'],0,[0.8667700907553808],2018_Jul_09_1428,60.0720737344,go-nogo,001,40,
logos/4.jpg,properties4.xlsx,frogs/ab12.jpg,0,0,400,l,0,0,0,3,0,44,44,11,,,['l'],0,[0.3003263718346716],2018_Jul_09_1428,60.0720737344,go-nogo,001,40,
logos/4.jpg,properties4.xlsx,frogs/ab49.jpg,0,0,400,l,0,0,0,3,0,45,45,48,,,['l'],0,[0.30057611426855146],2018_Jul_09_1428,60.0720737344,go-nogo,001,40,
logos/4.jpg,properties4.xlsx,frogs/ab15.jpg,0,0,400,l,0,0,0,3,0,46,46,14,,,['l'],0,[0.30044811415973527],2018_Jul_09_1428,60.0720737344,go-nogo,001,40,
logos/4.jpg,properties4.xlsx,frogs/ab69.jpg,0,0,400,l,0,0,0,3,0,47,47,67,,,['l'],0,[0.3334294756368763],2018_Jul_09_1428,60.0720737344,go-nogo,001,40,
logos/4.jpg,properties4.xlsx,frogs/ab24.jpg,0,0,400,l,0,0,0,3,0,48,48,23,,,['l'],0,[0.3004526652748609],2018_Jul_09_1428,60.0720737344,go-nogo,001,40,
logos/4.jpg,properties4.xlsx,logos/4.jpg,0,0,400,a,0,0,0,3,0,49,49,86,,,['a'],0,[0.017227676922630053],2018_Jul_09_1428,60.0720737344,go-nogo,001,40,
logos/4.jpg,properties4.xlsx,logos/4.jpg,0,0,400,a,0,0,0,3,0,50,50,85,,,['a'],0,[0.5335539486331982],2018_Jul_09_1428,60.0720737344,go-nogo,001,40,
logos/4.jpg,properties4.xlsx,frogs/ab32.jpg,0,0,400,l,0,0,0,3,0,51,51,31,,,['l'],0,[0.2671333835096448],2018_Jul_09_1428,60.0720737344,go-nogo,001,40,
logos/4.jpg,properties4.xlsx,frogs/ab66.jpg,0,0,400,l,0,0,0,3,0,52,52,64,,,['l'],0,[0.48367827940455754],2018_Jul_09_1428,60.0720737344,go-nogo,001,40,
logos/4.jpg,properties4.xlsx,frogs/ab14.jpg,0,0,400,l,0,0,0,3,0,53,53,13,,,['l'],0,[0.3171239683906606],2018_Jul_09_1428,60.0720737344,go-nogo,001,40,
logos/4.jpg,properties4.xlsx,frogs/ab13.jpg,0,0,400,l,0,0,0,3,0,54,54,12,,,['l'],0,[0.2835077263698622],2018_Jul_09_1428,60.0720737344,go-nogo,001,40,
logos/4.jpg,properties4.xlsx,frogs/ab7.jpg,0,0,400,l,0,0,0,3,0,55,55,6,,,['l'],0,[0.3168122170136485],2018_Jul_09_1428,60.0720737344,go-nogo,001,40,
logos/4.jpg,properties4.xlsx,frogs/ab41.jpg,0,0,400,l,0,0,0,3,0,56,56,40,,,['l'],0,[0.31675134585020714],2018_Jul_09_1428,60.0720737344,go-nogo,001,40,
logos/4.jpg,properties4.xlsx,frogs/ab53.jpg,0,0,400,l,0,0,0,3,0,57,57,52,,,['l'],0,[0.3336581691655738],2018_Jul_09_1428,60.0720737344,go-nogo,001,40,
logos/4.jpg,properties4.xlsx,frogs/ab68.jpg,0,0,400,l,0,0,0,3,0,58,58,66,,,['l'],0,[0.3002899629136664],2018_Jul_09_1428,60.0720737344,go-nogo,001,40,
logos/4.jpg,properties4.xlsx,frogs/ab44.jpg,0,0,400,l,0,0,0,3,0,59,59,43,,,['l'],0,[0.2503886936647177],2018_Jul_09_1428,60.0720737344,go-nogo,001,40,
logos/4.jpg,properties4.xlsx,frogs/ab60.jpg,0,0,400,l,0,0,0,3,0,60,60,58,,,['l'],0,[0.2670628412270162],2018_Jul_09_1428,60.0720737344,go-nogo,001,40,
logos/4.jpg,properties4.xlsx,logos/4.jpg,0,0,400,a,0,0,0,3,0,61,61,88,,,['a'],0,[0.13394841652552714],2018_Jul_09_1428,60.0720737344,go-nogo,001,40,
logos/4.jpg,properties4.xlsx,frogs/ab55.jpg,0,0,400,l,0,0,0,3,0,62,62,54,,,['l'],0,[0.03393026895355433],2018_Jul_09_1428,60.0720737344,go-nogo,001,40,
logos/4.jpg,properties4.xlsx,frogs/ab54.jpg,0,0,400,l,0,0,0,3,0,63,63,53,,,['l'],0,[0.16720796490517387],2018_Jul_09_1428,60.0720737344,go-nogo,001,40,
logos/4.jpg,properties4.xlsx,frogs/ab27.jpg,0,0,400,l,0,0,0,3,0,64,64,26,,,['l'],0,[0.13350923392863479],2018_Jul_09_1428,60.0720737344,go-nogo,001,40,
logos/4.jpg,properties4.xlsx,frogs/ab38.jpg,0,0,400,l,0,0,0,3,0,65,65,37,,,['l'],0,[0.08365290693836869],2018_Jul_09_1428,60.0720737344,go-nogo,001,40,
logos/4.jpg,properties4.xlsx,frogs/ab6.jpg,0,0,400,l,0,0,0,3,0,66,66,5,,,['l'],0,[0.017111054601627984],2018_Jul_09_1428,60.0720737344,go-nogo,001,40,
logos/4.jpg,properties4.xlsx,frogs/ab45.jpg,0,0,400,l,0,0,0,3,0,67,67,44,,,['l'],0,[0.13371232743338624],2018_Jul_09_1428,60.0720737344,go-nogo,001,40,
logos/4.jpg,properties4.xlsx,frogs/ab8.jpg,0,0,400,l,0,0,0,3,0,68,68,7,,,['l'],0,[0.05051851421922038],2018_Jul_09_1428,60.0720737344,go-nogo,001,40,
logos/4.jpg,properties4.xlsx,frogs/ab5.jpg,0,0,400,l,0,0,0,3,0,69,69,4,,,['l'],0,[0.017097401256251032],2018_Jul_09_1428,60.0720737344,go-nogo,001,40,
logos/4.jpg,properties4.xlsx,frogs/ab21.jpg,0,0,400,l,0,0,0,3,0,70,70,20,,,['l'],0,[0.08366997362099937],2018_Jul_09_1428,60.0720737344,go-nogo,001,40,
logos/4.jpg,properties4.xlsx,frogs/ab25.jpg,0,0,400,l,0,0,0,3,0,71,71,24,,,['l'],0,[0.050515669772721594],2018_Jul_09_1428,60.0720737344,go-nogo,001,40,
logos/4.jpg,properties4.xlsx,frogs/ab80.jpg,0,0,400,l,0,0,0,3,0,72,72,78,,,['l'],0,[0.10025594332910259],2018_Jul_09_1428,60.0720737344,go-nogo,001,40,
logos/4.jpg,properties4.xlsx,frogs/ab52.jpg,0,0,400,l,0,0,0,3,0,73,73,51,,,['l'],0,[0.10049373908805137],2018_Jul_09_1428,60.0720737344,go-nogo,001,40,
logos/4.jpg,properties4.xlsx,frogs/ab11.jpg,0,0,400,l,0,0,0,3,0,74,74,10,,,['l'],0,[0.05059531428560149],2018_Jul_09_1428,60.0720737344,go-nogo,001,40,
logos/4.jpg,properties4.xlsx,frogs/ab67.jpg,0,0,400,l,0,0,0,3,0,75,75,65,,,['l'],0,[0.06713406617564033],2018_Jul_09_1428,60.0720737344,go-nogo,001,40,
logos/4.jpg,properties4.xlsx,logos/4.jpg,0,0,400,a,0,0,0,3,0,76,76,81,,,['a'],0,[0.0005614938127109781],2018_Jul_09_1428,60.0720737344,go-nogo,001,40,
logos/4.jpg,properties4.xlsx,frogs/ab9.jpg,0,0,400,l,0,0,0,3,0,77,77,8,,,['l'],0,[1.9993031105168484],2018_Jul_09_1428,60.0720737344,go-nogo,001,40,
logos/4.jpg,properties4.xlsx,frogs/ab4.jpg,0,0,400,l,0,0,0,3,0,78,78,3,,,['l'],0,[0.017163392425572965],2018_Jul_09_1428,60.0720737344,go-nogo,001,40,
logos/4.jpg,properties4.xlsx,frogs/ab73.jpg,0,0,400,l,0,0,0,3,0,79,79,71,,,['l'],0,[0.06730131965196051],2018_Jul_09_1428,60.0720737344,go-nogo,001,40,
logos/4.jpg,properties4.xlsx,frogs/ab71.jpg,0,0,400,l,0,0,0,3,0,80,80,69,,,['l'],0,[0.017207765795319574],2018_Jul_09_1428,60.0720737344,go-nogo,001,40,
logos/4.jpg,properties4.xlsx,frogs/ab39.jpg,0,0,400,l,0,0,0,3,0,81,81,38,,,['l'],0,[0.05017376725845679],2018_Jul_09_1428,60.0720737344,go-nogo,001,40,
logos/4.jpg,properties4.xlsx,frogs/ab50.jpg,0,0,400,l,0,0,0,3,0,82,82,49,,,['l'],0,[0.0005632004813378444],2018_Jul_09_1428,60.0720737344,go-nogo,001,40,
logos/4.jpg,properties4.xlsx,frogs/ab64.jpg,0,0,400,l,0,0,0,3,0,83,83,62,,,['l'],0,[0.017231090259883786],2018_Jul_09_1428,60.0720737344,go-nogo,001,40,
logos/4.jpg,properties4.xlsx,logos/4.jpg,0,0,400,a,0,0,0,3,0,84,84,84,,,['a'],0,[0.8834015716129215],2018_Jul_09_1428,60.0720737344,go-nogo,001,40,
logos/4.jpg,properties4.xlsx,frogs/ab56.jpg,0,0,400,l,0,0,0,3,0,85,85,55,,,['l'],0,[0.5002050846196653],2018_Jul_09_1428,60.0720737344,go-nogo,001,40,
logos/4.jpg,properties4.xlsx,frogs/ab36.jpg,0,0,400,l,0,0,0,3,0,86,86,35,,,['l'],0,[0.21693401622724195],2018_Jul_09_1428,60.0720737344,go-nogo,001,40,
logos/4.jpg,properties4.xlsx,frogs/ab42.jpg,0,0,400,l,0,0,0,3,0,87,87,41,,,['l'],0,[0.2003719398726389],2018_Jul_09_1428,60.0720737344,go-nogo,001,40,
logos/4.jpg,properties4.xlsx,frogs/ab79.jpg,0,0,400,l,0,0,0,3,0,88,88,77,,,['l'],0,[0.13349785613900167],2018_Jul_09_1428,60.0720737344,go-nogo,001,40,
logos/4.jpg,properties4.xlsx,frogs/ab35.jpg,0,0,400,l,0,0,0,3,0,89,89,34,,,['l'],0,[0.08384519154787995],2018_Jul_09_1428,60.0720737344,go-nogo,001,40,
logos/4.jpg,properties4.xlsx,,,,,,0,0,0,3,,,,,,,,,,2018_Jul_09_1428,60.0720737344,go-nogo,001,40,
logos/3.jpg,properties3.xlsx,logos/3.jpg,0,0,400,a,0,1,1,2,0,0,0,81,space,5.81081014967,['a'],0,[2.582523945975481],2018_Jul_09_1428,60.0720737344,go-nogo,001,40,
logos/3.jpg,properties3.xlsx,frogs/ab43.jpg,0,0,400,l,0,1,1,2,0,1,1,42,,,['l'],0,[1.199821254958806],2018_Jul_09_1428,60.0720737344,go-nogo,001,40,
logos/3.jpg,properties3.xlsx,frogs/ab54.jpg,0,0,400,l,0,1,1,2,0,2,2,53,,,['l'],0,[0.05047527862734569],2018_Jul_09_1428,60.0720737344,go-nogo,001,40,
logos/3.jpg,properties3.xlsx,frogs/ab60.jpg,0,0,400,l,0,1,1,2,0,3,3,58,,,['l'],0,[0.083583502435431],2018_Jul_09_1428,60.0720737344,go-nogo,001,40,
logos/3.jpg,properties3.xlsx,frogs/ab31.jpg,0,0,400,l,0,1,1,2,0,4,4,30,,,['l'],0,[0.23367927496110497],2018_Jul_09_1428,60.0720737344,go-nogo,001,40,
logos/3.jpg,properties3.xlsx,frogs/ab23.jpg,0,0,400,l,0,1,1,2,0,5,5,22,,,['l'],0,[0.15034665273924475],2018_Jul_09_1428,60.0720737344,go-nogo,001,40,
logos/3.jpg,properties3.xlsx,frogs/ab12.jpg,0,0,400,l,0,1,1,2,0,6,6,11,,,['l'],0,[0.15047294618125306],2018_Jul_09_1428,60.0720737344,go-nogo,001,40,
logos/3.jpg,properties3.xlsx,logos/3.jpg,0,0,400,a,0,1,1,2,0,7,7,82,,,['a'],0,[0.1002792677936668],2018_Jul_09_1428,60.0720737344,go-nogo,001,40,
logos/3.jpg,properties3.xlsx,frogs/ab27.jpg,0,0,400,l,0,1,1,2,0,8,8,26,,,['l'],0,[0.233678706072169],2018_Jul_09_1428,60.0720737344,go-nogo,001,40,
logos/3.jpg,properties3.xlsx,frogs/ab65.jpg,0,0,400,l,0,1,1,2,0,9,9,63,,,['l'],0,[0.15052414622550714],2018_Jul_09_1428,60.0720737344,go-nogo,001,40,
logos/3.jpg,properties3.xlsx,frogs/ab72.jpg,0,0,400,l,0,1,1,2,0,10,10,70,,,['l'],0,[0.13379254083702108],2018_Jul_09_1428,60.0720737344,go-nogo,001,40,
logos/3.jpg,properties3.xlsx,frogs/ab20.jpg,0,0,400,l,0,1,1,2,0,11,11,19,,,['l'],0,[0.08367964474018663],2018_Jul_09_1428,60.0720737344,go-nogo,001,40,
logos/3.jpg,properties3.xlsx,frogs/ab29.jpg,0,0,400,l,0,1,1,2,0,12,12,28,,,['l'],0,[0.18375354346972017],2018_Jul_09_1428,60.0720737344,go-nogo,001,40,
logos/3.jpg,properties3.xlsx,frogs/ab75.jpg,0,0,400,l,0,1,1,2,0,13,13,73,,,['l'],0,[0.10038565010654565],2018_Jul_09_1428,60.0720737344,go-nogo,001,40,
logos/3.jpg,properties3.xlsx,frogs/ab55.jpg,0,0,400,l,0,1,1,2,0,14,14,54,,,['l'],0,[0.15037395943181764],2018_Jul_09_1428,60.0720737344,go-nogo,001,40,
logos/3.jpg,properties3.xlsx,frogs/ab62.jpg,0,0,400,l,0,1,1,2,0,15,15,60,,,['l'],0,[0.017327801451756386],2018_Jul_09_1428,60.0720737344,go-nogo,001,40,
logos/3.jpg,properties3.xlsx,frogs/ab9.jpg,0,0,400,l,0,1,1,2,0,16,16,8,,,['l'],0,[0.11699778872753086],2018_Jul_09_1428,60.0720737344,go-nogo,001,40,
logos/3.jpg,properties3.xlsx,frogs/ab13.jpg,0,0,400,l,0,1,1,2,0,17,17,12,,,['l'],0,[0.11716219775553327],2018_Jul_09_1428,60.0720737344,go-nogo,001,40,
logos/3.jpg,properties3.xlsx,frogs/ab32.jpg,0,0,400,l,0,1,1,2,0,18,18,31,,,['l'],0,[0.0673809641666594],2018_Jul_09_1428,60.0720737344,go-nogo,001,40,
logos/3.jpg,properties3.xlsx,frogs/ab56.jpg,0,0,400,l,0,1,1,2,0,19,19,55,,,['l'],0,[0.08375758258443966],2018_Jul_09_1428,60.0720737344,go-nogo,001,40,
logos/3.jpg,properties3.xlsx,frogs/ab6.jpg,0,0,400,l,0,1,1,2,0,20,20,5,,,['l'],0,[0.11710132659391093],2018_Jul_09_1428,60.0720737344,go-nogo,001,40,
logos/3.jpg,properties3.xlsx,logos/3.jpg,0,0,400,a,0,1,1,2,0,21,21,85,,,['a'],0,[0.08378659594382043],2018_Jul_09_1428,60.0720737344,go-nogo,001,40,
logos/3.jpg,properties3.xlsx,frogs/ab45.jpg,0,0,400,l,0,1,1,2,0,22,22,44,,,['l'],0,[0.033493930804979755],2018_Jul_09_1428,60.0720737344,go-nogo,001,40,
logos/3.jpg,properties3.xlsx,frogs/ab17.jpg,0,0,400,l,0,1,1,2,0,23,23,16,,,['l'],0,[0.11718097110497183],2018_Jul_09_1428,60.0720737344,go-nogo,001,40,
logos/3.jpg,properties3.xlsx,frogs/ab49.jpg,0,0,400,l,0,1,1,2,0,24,24,48,,,['l'],0,[0.0505037230977905],2018_Jul_09_1428,60.0720737344,go-nogo,001,40,
logos/3.jpg,properties3.xlsx,logos/3.jpg,0,0,400,a,0,1,1,2,0,25,25,87,,,['a'],0,[0.05056004314428719],2018_Jul_09_1428,60.0720737344,go-nogo,001,40,
logos/3.jpg,properties3.xlsx,frogs/ab47.jpg,0,0,400,l,0,1,1,2,0,26,26,46,,,['l'],0,[0.6837885301665665],2018_Jul_09_1428,60.0720737344,go-nogo,001,40,
logos/3.jpg,properties3.xlsx,logos/3.jpg,0,0,400,a,0,1,1,2,0,27,27,89,,,['a'],0,[0.5838494582185376],2018_Jul_09_1428,60.0720737344,go-nogo,001,40,
logos/3.jpg,properties3.xlsx,frogs/ab4.jpg,0,0,400,l,0,1,1,2,0,28,28,3,,,['l'],0,[0.08394872941244103],2018_Jul_09_1428,60.0720737344,go-nogo,001,40,
logos/3.jpg,properties3.xlsx,frogs/ab36.jpg,0,0,400,l,0,1,1,2,0,29,29,35,,,['l'],0,[0.06720460845826892],2018_Jul_09_1428,60.0720737344,go-nogo,001,40,
logos/3.jpg,properties3.xlsx,frogs/ab50.jpg,0,0,400,l,0,1,1,2,0,30,30,49,,,['l'],0,[0.11687320195414941],2018_Jul_09_1428,60.0720737344,go-nogo,001,40,
logos/3.jpg,properties3.xlsx,frogs/ab61.jpg,0,0,400,l,0,1,1,2,0,31,31,59,,,['l'],0,[0.1501134080972406],2018_Jul_09_1428,60.0720737344,go-nogo,001,40,
logos/3.jpg,properties3.xlsx,frogs/ab2.jpg,0,0,400,l,0,1,1,2,0,32,32,1,,,['l'],0,[0.2839190333888837],2018_Jul_09_1428,60.0720737344,go-nogo,001,40,
logos/3.jpg,properties3.xlsx,frogs/ab66.jpg,0,0,400,l,0,1,1,2,0,33,33,64,,,['l'],0,[0.10036061897517357],2018_Jul_09_1428,60.0720737344,go-nogo,001,40,
logos/3.jpg,properties3.xlsx,logos/3.jpg,0,0,400,a,0,1,1,2,0,34,34,80,,,['a'],0,[0.11713090884040867],2018_Jul_09_1428,60.0720737344,go-nogo,001,40,
logos/3.jpg,properties3.xlsx,frogs/ab63.jpg,0,0,400,l,0,1,1,2,0,35,35,61,,,['l'],0,[0.11697048203677696],2018_Jul_09_1428,60.0720737344,go-nogo,001,40,
logos/3.jpg,properties3.xlsx,frogs/ab33.jpg,0,0,400,l,0,1,1,2,0,36,36,32,,,['l'],0,[0.1339267987277708],2018_Jul_09_1428,60.0720737344,go-nogo,001,40,
logos/3.jpg,properties3.xlsx,frogs/ab81.jpg,0,0,400,l,0,1,1,2,0,37,37,79,,,['l'],0,[0.0168027165618696],2018_Jul_09_1428,60.0720737344,go-nogo,001,40,
logos/3.jpg,properties3.xlsx,frogs/ab73.jpg,0,0,400,l,0,1,1,2,0,38,38,71,,,['l'],0,[0.10038792566410848],2018_Jul_09_1428,60.0720737344,go-nogo,001,40,
logos/3.jpg,properties3.xlsx,frogs/ab14.jpg,0,0,400,l,0,1,1,2,0,39,39,13,,,['l'],0,[0.017207765795319574],2018_Jul_09_1428,60.0720737344,go-nogo,001,40,
logos/3.jpg,properties3.xlsx,frogs/ab57.jpg,0,0,400,l,0,1,1,2,0,40,40,56,,,['l'],0,[0.05047015862328408],2018_Jul_09_1428,60.0720737344,go-nogo,001,40,
logos/3.jpg,properties3.xlsx,frogs/ab41.jpg,0,0,400,l,0,1,1,2,0,41,41,40,,,['l'],0,[0.034108331328752683],2018_Jul_09_1428,60.0720737344,go-nogo,001,40,
logos/3.jpg,properties3.xlsx,frogs/ab34.jpg,0,0,400,l,0,1,1,2,0,42,42,33,,,['l'],0,[0.06725068849846139],2018_Jul_09_1428,60.0720737344,go-nogo,001,40,
logos/3.jpg,properties3.xlsx,frogs/ab71.jpg,0,0,400,l,0,1,1,2,0,43,43,69,,,['l'],0,[1.5330908726809866],2018_Jul_09_1428,60.0720737344,go-nogo,001,40,
logos/3.jpg,properties3.xlsx,frogs/ab7.jpg,0,0,400,l,0,1,1,2,0,44,44,6,,,['l'],0,[0.3002438828752929],2018_Jul_09_1428,60.0720737344,go-nogo,001,40,
logos/3.jpg,properties3.xlsx,frogs/ab22.jpg,0,0,400,l,0,1,1,2,0,45,45,21,,,['l'],0,[0.23371454610423825],2018_Jul_09_1428,60.0720737344,go-nogo,001,40,
logos/3.jpg,properties3.xlsx,frogs/ab64.jpg,0,0,400,l,0,1,1,2,0,46,46,62,,,['l'],0,[0.15042060835912707],2018_Jul_09_1428,60.0720737344,go-nogo,001,40,
logos/3.jpg,properties3.xlsx,frogs/ab77.jpg,0,0,400,l,0,1,1,2,0,47,47,75,,,['l'],0,[0.13374816746545548],2018_Jul_09_1428,60.0720737344,go-nogo,001,40,
logos/3.jpg,properties3.xlsx,frogs/ab15.jpg,0,0,400,l,0,1,1,2,0,48,48,14,,,['l'],0,[0.16697870248935942],2018_Jul_09_1428,60.0720737344,go-nogo,001,40,
logos/3.jpg,properties3.xlsx,frogs/ab16.jpg,0,0,400,l,0,1,1,2,0,49,49,15,,,['l'],0,[0.13376750970383],2018_Jul_09_1428,60.0720737344,go-nogo,001,40,
logos/3.jpg,properties3.xlsx,frogs/ab58.jpg,0,0,400,l,0,1,1,2,0,50,50,57,,,['l'],0,[0.11731124677135085],2018_Jul_09_1428,60.0720737344,go-nogo,001,40,
logos/3.jpg,properties3.xlsx,frogs/ab76.jpg,0,0,400,l,0,1,1,2,0,51,51,74,,,['l'],0,[0.11710132659209194],2018_Jul_09_1428,60.0720737344,go-nogo,001,40,
logos/3.jpg,properties3.xlsx,frogs/ab69.jpg,0,0,400,l,0,1,1,2,0,52,52,67,,,['l'],0,[0.1670299025317945],2018_Jul_09_1428,60.0720737344,go-nogo,001,40,
logos/3.jpg,properties3.xlsx,frogs/ab19.jpg,0,0,400,l,0,1,1,2,0,53,53,18,,,['l'],0,[0.11735562014473544],2018_Jul_09_1428,60.0720737344,go-nogo,001,40,
logos/3.jpg,properties3.xlsx,frogs/ab46.jpg,0,0,400,l,0,1,1,2,0,54,54,45,,,['l'],0,[0.0838093515176297],2018_Jul_09_1428,60.0720737344,go-nogo,001,40,
logos/3.jpg,properties3.xlsx,logos/3.jpg,0,0,400,a,0,1,1,2,0,55,55,84,,,['a'],0,[0.183964601426851],2018_Jul_09_1428,60.0720737344,go-nogo,001,40,
logos/3.jpg,properties3.xlsx,frogs/ab3.jpg,0,0,400,l,0,1,1,2,0,56,56,2,,,['l'],0,[0.18372168566384062],2018_Jul_09_1428,60.0720737344,go-nogo,001,40,
logos/3.jpg,properties3.xlsx,frogs/ab42.jpg,0,0,400,l,0,1,1,2,0,57,57,41,,,['l'],0,[0.050607260964170564],2018_Jul_09_1428,60.0720737344,go-nogo,001,40,
logos/3.jpg,properties3.xlsx,frogs/ab51.jpg,0,0,400,l,0,1,1,2,0,58,58,50,,,['l'],0,[0.15057079515463556],2018_Jul_09_1428,60.0720737344,go-nogo,001,40,
logos/3.jpg,properties3.xlsx,frogs/ab35.jpg,0,0,400,l,0,1,1,2,0,59,59,34,,,['l'],0,[0.13349273613494006],2018_Jul_09_1428,60.0720737344,go-nogo,001,40,
logos/3.jpg,properties3.xlsx,frogs/ab25.jpg,0,0,400,l,0,1,1,2,0,60,60,24,,,['l'],0,[0.1502846437979315],2018_Jul_09_1428,60.0720737344,go-nogo,001,40,
logos/3.jpg,properties3.xlsx,frogs/ab24.jpg,0,0,400,l,0,1,1,2,0,61,61,23,,,['l'],0,[0.05057881649554474],2018_Jul_09_1428,60.0720737344,go-nogo,001,40,
logos/3.jpg,properties3.xlsx,frogs/ab38.jpg,0,0,400,l,0,1,1,2,0,62,62,37,,,['l'],0,[0.1503472216281807],2018_Jul_09_1428,60.0720737344,go-nogo,001,40,
logos/3.jpg,properties3.xlsx,frogs/ab70.jpg,0,0,400,l,0,1,1,2,0,63,63,68,,,['l'],0,[0.08391004493569199],2018_Jul_09_1428,60.0720737344,go-nogo,001,40,
logos/3.jpg,properties3.xlsx,frogs/ab48.jpg,0,0,400,l,0,1,1,2,0,64,64,47,,,['l'],0,[0.15044677727019007],2018_Jul_09_1428,60.0720737344,go-nogo,001,40,
logos/3.jpg,properties3.xlsx,frogs/ab11.jpg,0,0,400,l,0,1,1,2,0,65,65,10,,,['l'],0,[0.06695315935576218],2018_Jul_09_1428,60.0720737344,go-nogo,001,40,
logos/3.jpg,properties3.xlsx,frogs/ab8.jpg,0,0,400,l,0,1,1,2,0,66,66,7,,,['l'],0,[0.10036232564198144],2018_Jul_09_1428,60.0720737344,go-nogo,001,40,
logos/3.jpg,properties3.xlsx,frogs/ab21.jpg,0,0,400,l,0,1,1,2,0,67,67,20,,,['l'],0,[0.10074405041268619],2018_Jul_09_1428,60.0720737344,go-nogo,001,40,
logos/3.jpg,properties3.xlsx,frogs/ab79.jpg,0,0,400,l,0,1,1,2,0,68,68,77,,,['l'],0,[0.03368109540861042],2018_Jul_09_1428,60.0720737344,go-nogo,001,40,
logos/3.jpg,properties3.xlsx,logos/3.jpg,0,0,400,a,0,1,1,2,0,69,69,83,,,['a'],0,[0.10066269923117943],2018_Jul_09_1428,60.0720737344,go-nogo,001,40,
logos/3.jpg,properties3.xlsx,frogs/ab67.jpg,0,0,400,l,0,1,1,2,0,70,70,65,,,['l'],0,[0.13383577642889577],2018_Jul_09_1428,60.0720737344,go-nogo,001,40,
logos/3.jpg,properties3.xlsx,frogs/ab1.jpg,0,0,400,l,0,1,1,2,0,71,71,0,,,['l'],0,[0.11726459784404142],2018_Jul_09_1428,60.0720737344,go-nogo,001,40,
logos/3.jpg,properties3.xlsx,frogs/ab40.jpg,0,0,400,l,0,1,1,2,0,72,72,39,,,['l'],0,[0.000567182707527536],2018_Jul_09_1428,60.0720737344,go-nogo,001,40,
logos/3.jpg,properties3.xlsx,frogs/ab74.jpg,0,0,400,l,0,1,1,2,0,73,73,72,,,['l'],0,[0.033673130958050024],2018_Jul_09_1428,60.0720737344,go-nogo,001,40,
logos/3.jpg,properties3.xlsx,frogs/ab10.jpg,0,0,400,l,0,1,1,2,0,74,74,9,,,['l'],0,[0.08390606271132128],2018_Jul_09_1428,60.0720737344,go-nogo,001,40,
logos/3.jpg,properties3.xlsx,logos/3.jpg,0,0,400,a,0,1,1,2,0,75,75,86,,,['a'],0,[0.2669831967141363],2018_Jul_09_1428,60.0720737344,go-nogo,001,40,
logos/3.jpg,properties3.xlsx,frogs/ab18.jpg,0,0,400,l,0,1,1,2,0,76,76,17,,,['l'],0,[1.5161897382586176],2018_Jul_09_1428,60.0720737344,go-nogo,001,40,
logos/3.jpg,properties3.xlsx,frogs/ab52.jpg,0,0,400,l,0,1,1,2,0,77,77,51,,,['l'],0,[0.05036775853659492],2018_Jul_09_1428,60.0720737344,go-nogo,001,40,
logos/3.jpg,properties3.xlsx,frogs/ab5.jpg,0,0,400,l,0,1,1,2,0,78,78,4,,,['l'],0,[0.0337675665923598],2018_Jul_09_1428,60.0720737344,go-nogo,001,40,
logos/3.jpg,properties3.xlsx,frogs/ab26.jpg,0,0,400,l,0,1,1,2,0,79,79,25,,,['l'],0,[0.017154859084257623],2018_Jul_09_1428,60.0720737344,go-nogo,001,40,
logos/3.jpg,properties3.xlsx,frogs/ab30.jpg,0,0,400,l,0,1,1,2,0,80,80,29,,,['l'],0,[0.016940956678809016],2018_Jul_09_1428,60.0720737344,go-nogo,001,40,
logos/3.jpg,properties3.xlsx,frogs/ab28.jpg,0,0,400,l,0,1,1,2,0,81,81,27,,,['l'],0,[0.03357869532010227],2018_Jul_09_1428,60.0720737344,go-nogo,001,40,
logos/3.jpg,properties3.xlsx,frogs/ab44.jpg,0,0,400,l,0,1,1,2,0,82,82,43,,,['l'],0,[0.000336213621267234],2018_Jul_09_1428,60.0720737344,go-nogo,001,40,
logos/3.jpg,properties3.xlsx,frogs/ab78.jpg,0,0,400,l,0,1,1,2,0,83,83,76,,,['l'],0,[0.01720435245806584],2018_Jul_09_1428,60.0720737344,go-nogo,001,40,
logos/3.jpg,properties3.xlsx,frogs/ab53.jpg,0,0,400,l,0,1,1,2,0,84,84,52,,,['l'],0,[0.0005751471580879297],2018_Jul_09_1428,60.0720737344,go-nogo,001,40,
logos/3.jpg,properties3.xlsx,frogs/ab37.jpg,0,0,400,l,0,1,1,2,0,85,85,36,,,['l'],0,[0.03387793113142834],2018_Jul_09_1428,60.0720737344,go-nogo,001,40,
logos/3.jpg,properties3.xlsx,logos/3.jpg,0,0,400,a,0,1,1,2,0,86,86,88,,,['a'],0,[0.15042515947425272],2018_Jul_09_1428,60.0720737344,go-nogo,001,40,
logos/3.jpg,properties3.xlsx,frogs/ab39.jpg,0,0,400,l,0,1,1,2,0,87,87,38,,,['l'],0,[0.06702654608488956],2018_Jul_09_1428,60.0720737344,go-nogo,001,40,
logos/3.jpg,properties3.xlsx,frogs/ab80.jpg,0,0,400,l,0,1,1,2,0,88,88,78,,,['l'],0,[0.01704506343412504],2018_Jul_09_1428,60.0720737344,go-nogo,001,40,
logos/3.jpg,properties3.xlsx,frogs/ab68.jpg,0,0,400,l,0,1,1,2,0,89,89,66,,,['l'],0,[0.000563769368454814],2018_Jul_09_1428,60.0720737344,go-nogo,001,40,
logos/3.jpg,properties3.xlsx,,,,,,0,1,1,2,,,,,,,,,,2018_Jul_09_1428,60.0720737344,go-nogo,001,40,
logos/2.jpg,properties2.xlsx,frogs/ab17.jpg,0,0,400,l,0,2,2,1,0,0,0,16,space,1.7471235531,['l'],0,[0.10008413873947575],2018_Jul_09_1428,60.0720737344,go-nogo,001,40,
logos/2.jpg,properties2.xlsx,frogs/ab49.jpg,0,0,400,l,0,2,2,1,0,1,1,48,,,['l'],0,[1.1165859128195734],2018_Jul_09_1428,60.0720737344,go-nogo,001,40,
logos/2.jpg,properties2.xlsx,frogs/ab26.jpg,0,0,400,l,0,2,2,1,0,2,2,25,,,['l'],0,[0.6001868232706329],2018_Jul_09_1428,60.0720737344,go-nogo,001,40,
logos/2.jpg,properties2.xlsx,frogs/ab37.jpg,0,0,400,l,0,2,2,1,0,3,3,36,,,['l'],0,[0.0005637693702738034],2018_Jul_09_1428,60.0720737344,go-nogo,001,40,
logos/2.jpg,properties2.xlsx,frogs/ab66.jpg,0,0,400,l,0,2,2,1,0,4,4,64,,,['l'],0,[0.03392571783842868],2018_Jul_09_1428,60.0720737344,go-nogo,001,40,
logos/2.jpg,properties2.xlsx,frogs/ab56.jpg,0,0,400,l,0,2,2,1,0,5,5,55,,,['l'],0,[0.06712610172507993],2018_Jul_09_1428,60.0720737344,go-nogo,001,40,
logos/2.jpg,properties2.xlsx,frogs/ab55.jpg,0,0,400,l,0,2,2,1,0,6,6,54,,,['l'],0,[0.0005700271540263202],2018_Jul_09_1428,60.0720737344,go-nogo,001,40,
logos/2.jpg,properties2.xlsx,frogs/ab6.jpg,0,0,400,l,0,2,2,1,0,7,7,5,,,['l'],0,[0.10040385456704826],2018_Jul_09_1428,60.0720737344,go-nogo,001,40,
logos/2.jpg,properties2.xlsx,frogs/ab1.jpg,0,0,400,l,0,2,2,1,0,8,8,0,,,['l'],0,[0.03412881134681811],2018_Jul_09_1428,60.0720737344,go-nogo,001,40,
logos/2.jpg,properties2.xlsx,frogs/ab21.jpg,0,0,400,l,0,2,2,1,0,9,9,20,,,['l'],0,[1.399932643496868],2018_Jul_09_1428,60.0720737344,go-nogo,001,40,
logos/2.jpg,properties2.xlsx,frogs/ab81.jpg,0,0,400,l,0,2,2,1,0,10,10,79,,,['l'],0,[0.03393937118380563],2018_Jul_09_1428,60.0720737344,go-nogo,001,40,
logos/2.jpg,properties2.xlsx,frogs/ab79.jpg,0,0,400,l,0,2,2,1,0,11,11,77,,,['l'],0,[0.0337817888284917],2018_Jul_09_1428,60.0720737344,go-nogo,001,40,
logos/2.jpg,properties2.xlsx,frogs/ab61.jpg,0,0,400,l,0,2,2,1,0,12,12,59,,,['l'],0,[0.0005831116086483235],2018_Jul_09_1428,60.0720737344,go-nogo,001,40,
logos/2.jpg,properties2.xlsx,frogs/ab74.jpg,0,0,400,l,0,2,2,1,0,13,13,72,,,['l'],0,[0.5502332161995582],2018_Jul_09_1428,60.0720737344,go-nogo,001,40,
logos/2.jpg,properties2.xlsx,frogs/ab20.jpg,0,0,400,l,0,2,2,1,0,14,14,19,,,['l'],0,[0.13388697647133085],2018_Jul_09_1428,60.0720737344,go-nogo,001,40,
logos/2.jpg,properties2.xlsx,frogs/ab62.jpg,0,0,400,l,0,2,2,1,0,15,15,60,,,['l'],0,[1.882795704430464],2018_Jul_09_1428,60.0720737344,go-nogo,001,40,
logos/2.jpg,properties2.xlsx,frogs/ab42.jpg,0,0,400,l,0,2,2,1,0,16,16,41,,,['l'],0,[0.18369096563947096],2018_Jul_09_1428,60.0720737344,go-nogo,001,40,
logos/2.jpg,properties2.xlsx,frogs/ab24.jpg,0,0,400,l,0,2,2,1,0,17,17,23,,,['l'],0,[0.05059076317047584],2018_Jul_09_1428,60.0720737344,go-nogo,001,40,
logos/2.jpg,properties2.xlsx,logos/2.jpg,0,0,400,a,0,2,2,1,0,18,18,81,,,['a'],0,[0.08383836487701046],2018_Jul_09_1428,60.0720737344,go-nogo,001,40,
logos/2.jpg,properties2.xlsx,frogs/ab4.jpg,0,0,400,l,0,2,2,1,0,19,19,3,,,['l'],0,[0.06710789726457733],2018_Jul_09_1428,60.0720737344,go-nogo,001,40,
logos/2.jpg,properties2.xlsx,frogs/ab7.jpg,0,0,400,l,0,2,2,1,0,20,20,6,,,['l'],0,[0.01728627252850856],2018_Jul_09_1428,60.0720737344,go-nogo,001,40,
logos/2.jpg,properties2.xlsx,frogs/ab27.jpg,0,0,400,l,0,2,2,1,0,21,21,26,,,['l'],0,[0.017043356765498174],2018_Jul_09_1428,60.0720737344,go-nogo,001,40,
logos/2.jpg,properties2.xlsx,frogs/ab38.jpg,0,0,400,l,0,2,2,1,0,22,22,37,,,['l'],0,[0.033920028943612124],2018_Jul_09_1428,60.0720737344,go-nogo,001,40,
logos/2.jpg,properties2.xlsx,frogs/ab51.jpg,0,0,400,l,0,2,2,1,0,23,23,50,,,['l'],0,[0.6335135005992925],2018_Jul_09_1428,60.0720737344,go-nogo,001,40,
logos/2.jpg,properties2.xlsx,logos/2.jpg,0,0,400,a,0,2,2,1,0,24,24,88,,,['a'],0,[0.06727628852058842],2018_Jul_09_1428,60.0720737344,go-nogo,001,40,
logos/2.jpg,properties2.xlsx,frogs/ab31.jpg,0,0,400,l,0,2,2,1,0,25,25,30,,,['l'],0,[0.06700606606682413],2018_Jul_09_1428,60.0720737344,go-nogo,001,40,
logos/2.jpg,properties2.xlsx,frogs/ab50.jpg,0,0,400,l,0,2,2,1,0,26,26,49,,,['l'],0,[0.01719069911450788],2018_Jul_09_1428,60.0720737344,go-nogo,001,40,
logos/2.jpg,properties2.xlsx,frogs/ab25.jpg,0,0,400,l,0,2,2,1,0,27,27,24,,,['l'],0,[0.0005649071481457213],2018_Jul_09_1428,60.0720737344,go-nogo,001,40,
logos/2.jpg,properties2.xlsx,frogs/ab64.jpg,0,0,400,l,0,2,2,1,0,28,28,62,,,['l'],0,[0.8832946204111067],2018_Jul_09_1428,60.0720737344,go-nogo,001,40,
logos/2.jpg,properties2.xlsx,frogs/ab2.jpg,0,0,400,l,0,2,2,1,0,29,29,1,,,['l'],0,[0.08375644480474875],2018_Jul_09_1428,60.0720737344,go-nogo,001,40,
logos/2.jpg,properties2.xlsx,logos/2.jpg,0,0,400,a,0,2,2,1,0,30,30,86,,,['a'],0,[0.3669006508662278],2018_Jul_09_1428,60.0720737344,go-nogo,001,40,
logos/2.jpg,properties2.xlsx,logos/2.jpg,0,0,400,a,0,2,2,1,0,31,31,84,,,['a'],0,[0.2337168216599821],2018_Jul_09_1428,60.0720737344,go-nogo,001,40,
logos/2.jpg,properties2.xlsx,frogs/ab53.jpg,0,0,400,l,0,2,2,1,0,32,32,52,,,['l'],0,[0.016888049967747065],2018_Jul_09_1428,60.0720737344,go-nogo,001,40,
logos/2.jpg,properties2.xlsx,frogs/ab69.jpg,0,0,400,l,0,2,2,1,0,33,33,67,,,['l'],0,[0.01729253031226108],2018_Jul_09_1428,60.0720737344,go-nogo,001,40,
logos/2.jpg,properties2.xlsx,frogs/ab10.jpg,0,0,400,l,0,2,2,1,0,34,34,9,,,['l'],0,[1.4164753776149155],2018_Jul_09_1428,60.0720737344,go-nogo,001,40,
logos/2.jpg,properties2.xlsx,frogs/ab3.jpg,0,0,400,l,0,2,2,1,0,35,35,2,,,['l'],0,[1.0166092941726674],2018_Jul_09_1428,60.0720737344,go-nogo,001,40,
logos/2.jpg,properties2.xlsx,frogs/ab9.jpg,0,0,400,l,0,2,2,1,0,36,36,8,,,['l'],0,[0.11706491767290572],2018_Jul_09_1428,60.0720737344,go-nogo,001,40,
logos/2.jpg,properties2.xlsx,frogs/ab57.jpg,0,0,400,l,0,2,2,1,0,37,37,56,,,['l'],0,[0.08368988474830985],2018_Jul_09_1428,60.0720737344,go-nogo,001,40,
logos/2.jpg,properties2.xlsx,frogs/ab75.jpg,0,0,400,l,0,2,2,1,0,38,38,73,,,['l'],0,[0.017298219205258647],2018_Jul_09_1428,60.0720737344,go-nogo,001,40,
logos/2.jpg,properties2.xlsx,logos/2.jpg,0,0,400,a,0,2,2,1,0,39,39,83,,,['a'],0,[0.18355158774284064],2018_Jul_09_1428,60.0720737344,go-nogo,001,40,
logos/2.jpg,properties2.xlsx,frogs/ab12.jpg,0,0,400,l,0,2,2,1,0,40,40,11,,,['l'],0,[0.16713628484467336],2018_Jul_09_1428,60.0720737344,go-nogo,001,40,
logos/2.jpg,properties2.xlsx,frogs/ab11.jpg,0,0,400,l,0,2,2,1,0,41,41,10,,,['l'],0,[0.06717502621177118],2018_Jul_09_1428,60.0720737344,go-nogo,001,40,
logos/2.jpg,properties2.xlsx,frogs/ab18.jpg,0,0,400,l,0,2,2,1,0,42,42,17,,,['l'],0,[0.03392002894543111],2018_Jul_09_1428,60.0720737344,go-nogo,001,40,
logos/2.jpg,properties2.xlsx,frogs/ab65.jpg,0,0,400,l,0,2,2,1,0,43,43,63,,,['l'],0,[0.017140067959189764],2018_Jul_09_1428,60.0720737344,go-nogo,001,40,
logos/2.jpg,properties2.xlsx,frogs/ab44.jpg,0,0,400,l,0,2,2,1,0,44,44,43,,,['l'],0,[0.016939818900937098],2018_Jul_09_1428,60.0720737344,go-nogo,001,40,
logos/2.jpg,properties2.xlsx,frogs/ab28.jpg,0,0,400,l,0,2,2,1,0,45,45,27,,,['l'],0,[0.017220850251760567],2018_Jul_09_1428,60.0720737344,go-nogo,001,40,
logos/2.jpg,properties2.xlsx,frogs/ab14.jpg,0,0,400,l,0,2,2,1,0,46,46,13,,,['l'],0,[0.03363672203704482],2018_Jul_09_1428,60.0720737344,go-nogo,001,40,
logos/2.jpg,properties2.xlsx,frogs/ab54.jpg,0,0,400,l,0,2,2,1,0,47,47,53,,,['l'],0,[0.03392628672918363],2018_Jul_09_1428,60.0720737344,go-nogo,001,40,
logos/2.jpg,properties2.xlsx,frogs/ab67.jpg,0,0,400,l,0,2,2,1,0,48,48,65,,,['l'],0,[1.1165352816660743],2018_Jul_09_1428,60.0720737344,go-nogo,001,40,
logos/2.jpg,properties2.xlsx,frogs/ab35.jpg,0,0,400,l,0,2,2,1,0,49,49,34,,,['l'],0,[0.08375018702099624],2018_Jul_09_1428,60.0720737344,go-nogo,001,40,
logos/2.jpg,properties2.xlsx,frogs/ab22.jpg,0,0,400,l,0,2,2,1,0,50,50,21,,,['l'],0,[0.08384689821650682],2018_Jul_09_1428,60.0720737344,go-nogo,001,40,
logos/2.jpg,properties2.xlsx,frogs/ab36.jpg,0,0,400,l,0,2,2,1,0,51,51,35,,,['l'],0,[0.049992860438578646],2018_Jul_09_1428,60.0720737344,go-nogo,001,40,
logos/2.jpg,properties2.xlsx,frogs/ab46.jpg,0,0,400,l,0,2,2,1,0,52,52,45,,,['l'],0,[0.0005694582632713718],2018_Jul_09_1428,60.0720737344,go-nogo,001,40,
logos/2.jpg,properties2.xlsx,logos/2.jpg,0,0,400,a,0,2,2,1,0,53,53,89,,,['a'],0,[0.4834074880636763],2018_Jul_09_1428,60.0720737344,go-nogo,001,40,
logos/2.jpg,properties2.xlsx,logos/2.jpg,0,0,400,a,0,2,2,1,0,54,54,80,,,['a'],0,[0.46688068284856854],2018_Jul_09_1428,60.0720737344,go-nogo,001,40,
logos/2.jpg,properties2.xlsx,frogs/ab34.jpg,0,0,400,l,0,2,2,1,0,55,55,33,,,['l'],0,[0.5835018668094563],2018_Jul_09_1428,60.0720737344,go-nogo,001,40,
logos/2.jpg,properties2.xlsx,frogs/ab30.jpg,0,0,400,l,0,2,2,1,0,56,56,29,,,['l'],0,[0.13372654966951814],2018_Jul_09_1428,60.0720737344,go-nogo,001,40,
logos/2.jpg,properties2.xlsx,frogs/ab13.jpg,0,0,400,l,0,2,2,1,0,57,57,12,,,['l'],0,[0.11710530881828163],2018_Jul_09_1428,60.0720737344,go-nogo,001,40,
logos/2.jpg,properties2.xlsx,frogs/ab72.jpg,0,0,400,l,0,2,2,1,0,58,58,70,,,['l'],0,[0.050660736562349484],2018_Jul_09_1428,60.0720737344,go-nogo,001,40,
logos/2.jpg,properties2.xlsx,frogs/ab16.jpg,0,0,400,l,0,2,2,1,0,59,59,15,,,['l'],0,[0.11717471332121931],2018_Jul_09_1428,60.0720737344,go-nogo,001,40,
logos/2.jpg,properties2.xlsx,frogs/ab19.jpg,0,0,400,l,0,2,2,1,0,60,60,18,,,['l'],0,[0.08366997362099937],2018_Jul_09_1428,60.0720737344,go-nogo,001,40,
logos/2.jpg,properties2.xlsx,frogs/ab47.jpg,0,0,400,l,0,2,2,1,0,61,61,46,,,['l'],0,[0.4003143682693917],2018_Jul_09_1428,60.0720737344,go-nogo,001,40,
logos/2.jpg,properties2.xlsx,frogs/ab23.jpg,0,0,400,l,0,2,2,1,0,62,62,22,,,['l'],0,[0.15040012834106165],2018_Jul_09_1428,60.0720737344,go-nogo,001,40,
logos/2.jpg,properties2.xlsx,frogs/ab63.jpg,0,0,400,l,0,2,2,1,0,63,63,61,,,['l'],0,[0.08386737823275325],2018_Jul_09_1428,60.0720737344,go-nogo,001,40,
logos/2.jpg,properties2.xlsx,frogs/ab40.jpg,0,0,400,l,0,2,2,1,0,64,64,39,,,['l'],0,[0.08371491588150093],2018_Jul_09_1428,60.0720737344,go-nogo,001,40,
logos/2.jpg,properties2.xlsx,logos/2.jpg,0,0,400,a,0,2,2,1,0,65,65,82,,,['a'],0,[0.08389127158625342],2018_Jul_09_1428,60.0720737344,go-nogo,001,40,
logos/2.jpg,properties2.xlsx,frogs/ab78.jpg,0,0,400,l,0,2,2,1,0,66,66,76,,,['l'],0,[0.16711978705279762],2018_Jul_09_1428,60.0720737344,go-nogo,001,40,
logos/2.jpg,properties2.xlsx,logos/2.jpg,0,0,400,a,0,2,2,1,0,67,67,85,,,['a'],0,[0.15024311487468367],2018_Jul_09_1428,60.0720737344,go-nogo,001,40,
logos/2.jpg,properties2.xlsx,frogs/ab48.jpg,0,0,400,l,0,2,2,1,0,68,68,47,,,['l'],0,[0.06709481280995533],2018_Jul_09_1428,60.0720737344,go-nogo,001,40,
logos/2.jpg,properties2.xlsx,frogs/ab43.jpg,0,0,400,l,0,2,2,1,0,69,69,42,,,['l'],0,[0.06691788821444788],2018_Jul_09_1428,60.0720737344,go-nogo,001,40,
logos/2.jpg,properties2.xlsx,frogs/ab8.jpg,0,0,400,l,0,2,2,1,0,70,70,7,,,['l'],0,[0.4837311861174385],2018_Jul_09_1428,60.0720737344,go-nogo,001,40,
logos/2.jpg,properties2.xlsx,frogs/ab39.jpg,0,0,400,l,0,2,2,1,0,71,71,38,,,['l'],0,[0.0005711649318982381],2018_Jul_09_1428,60.0720737344,go-nogo,001,40,
logos/2.jpg,properties2.xlsx,frogs/ab77.jpg,0,0,400,l,0,2,2,1,0,72,72,75,,,['l'],0,[0.0005649071481457213],2018_Jul_09_1428,60.0720737344,go-nogo,001,40,
logos/2.jpg,properties2.xlsx,frogs/ab15.jpg,0,0,400,l,0,2,2,1,0,73,73,14,,,['l'],0,[0.01735055702738464],2018_Jul_09_1428,60.0720737344,go-nogo,001,40,
logos/2.jpg,properties2.xlsx,frogs/ab70.jpg,0,0,400,l,0,2,2,1,0,74,74,68,,,['l'],0,[0.0005671827057085466],2018_Jul_09_1428,60.0720737344,go-nogo,001,40,
logos/2.jpg,properties2.xlsx,frogs/ab41.jpg,0,0,400,l,0,2,2,1,0,75,75,40,,,['l'],0,[0.0005677515964634949],2018_Jul_09_1428,60.0720737344,go-nogo,001,40,
logos/2.jpg,properties2.xlsx,frogs/ab33.jpg,0,0,400,l,0,2,2,1,0,76,76,32,,,['l'],0,[0.017235641375009436],2018_Jul_09_1428,60.0720737344,go-nogo,001,40,
logos/2.jpg,properties2.xlsx,frogs/ab60.jpg,0,0,400,l,0,2,2,1,0,77,77,58,,,['l'],0,[0.017256690280191833],2018_Jul_09_1428,60.0720737344,go-nogo,001,40,
logos/2.jpg,properties2.xlsx,frogs/ab45.jpg,0,0,400,l,0,2,2,1,0,78,78,44,,,['l'],0,[0.5334452907609375],2018_Jul_09_1428,60.0720737344,go-nogo,001,40,
logos/2.jpg,properties2.xlsx,frogs/ab5.jpg,0,0,400,l,0,2,2,1,0,79,79,4,,,['l'],0,[0.05063456765310548],2018_Jul_09_1428,60.0720737344,go-nogo,001,40,
logos/2.jpg,properties2.xlsx,logos/2.jpg,0,0,400,a,0,2,2,1,0,80,80,87,,,['a'],0,[0.516915072212214],2018_Jul_09_1428,60.0720737344,go-nogo,001,40,
logos/2.jpg,properties2.xlsx,frogs/ab73.jpg,0,0,400,l,0,2,2,1,0,81,81,71,,,['l'],0,[0.017216868025570875],2018_Jul_09_1428,60.0720737344,go-nogo,001,40,
logos/2.jpg,properties2.xlsx,frogs/ab58.jpg,0,0,400,l,0,2,2,1,0,82,82,57,,,['l'],0,[0.08380878262869373],2018_Jul_09_1428,60.0720737344,go-nogo,001,40,
logos/2.jpg,properties2.xlsx,frogs/ab32.jpg,0,0,400,l,0,2,2,1,0,83,83,31,,,['l'],0,[0.03383071331154497],2018_Jul_09_1428,60.0720737344,go-nogo,001,40,
logos/2.jpg,properties2.xlsx,frogs/ab52.jpg,0,0,400,l,0,2,2,1,0,84,84,51,,,['l'],0,[0.0005694582650903612],2018_Jul_09_1428,60.0720737344,go-nogo,001,40,
logos/2.jpg,properties2.xlsx,frogs/ab29.jpg,0,0,400,l,0,2,2,1,0,85,85,28,,,['l'],0,[0.05047869196459942],2018_Jul_09_1428,60.0720737344,go-nogo,001,40,
logos/2.jpg,properties2.xlsx,frogs/ab71.jpg,0,0,400,l,0,2,2,1,0,86,86,69,,,['l'],0,[0.0005723027097701561],2018_Jul_09_1428,60.0720737344,go-nogo,001,40,
logos/2.jpg,properties2.xlsx,frogs/ab76.jpg,0,0,400,l,0,2,2,1,0,87,87,74,,,['l'],0,[0.017231090259883786],2018_Jul_09_1428,60.0720737344,go-nogo,001,40,
logos/2.jpg,properties2.xlsx,frogs/ab68.jpg,0,0,400,l,0,2,2,1,0,88,88,66,,,['l'],0,[0.050533874233224196],2018_Jul_09_1428,60.0720737344,go-nogo,001,40,
logos/2.jpg,properties2.xlsx,frogs/ab80.jpg,0,0,400,l,0,2,2,1,0,89,89,78,,,['l'],0,[0.05049746531221899],2018_Jul_09_1428,60.0720737344,go-nogo,001,40,
logos/2.jpg,properties2.xlsx,,,,,,0,2,2,1,,,,,,,,,,2018_Jul_09_1428,60.0720737344,go-nogo,001,40,
logos/1.jpg,properties1.xlsx,frogs/ab42.jpg,0,0,400,l,0,3,3,0,0,0,0,41,space,2.55472858003,['l'],0,[0.03383810887498839],2018_Jul_09_1428,60.0720737344,go-nogo,001,40,
logos/1.jpg,properties1.xlsx,frogs/ab7.jpg,0,0,400,l,0,3,3,0,0,1,1,6,,,['l'],0,[0.06709879503614502],2018_Jul_09_1428,60.0720737344,go-nogo,001,40,
logos/1.jpg,properties1.xlsx,frogs/ab22.jpg,0,0,400,l,0,3,3,0,0,2,2,21,,,['l'],0,[0.5169270188889641],2018_Jul_09_1428,60.0720737344,go-nogo,001,40,
logos/1.jpg,properties1.xlsx,frogs/ab63.jpg,0,0,400,l,0,3,3,0,0,3,3,61,,,['l'],0,[0.0005637693702738034],2018_Jul_09_1428,60.0720737344,go-nogo,001,40,
logos/1.jpg,properties1.xlsx,frogs/ab70.jpg,0,0,400,l,0,3,3,0,0,4,4,68,,,['l'],0,[0.0005683204853994539],2018_Jul_09_1428,60.0720737344,go-nogo,001,40,
logos/1.jpg,properties1.xlsx,frogs/ab68.jpg,0,0,400,l,0,3,3,0,0,5,5,66,,,['l'],0,[0.5502389050925558],2018_Jul_09_1428,60.0720737344,go-nogo,001,40,
logos/1.jpg,properties1.xlsx,frogs/ab81.jpg,0,0,400,l,0,3,3,0,0,6,6,79,,,['l'],0,[0.0169881744968734],2018_Jul_09_1428,60.0720737344,go-nogo,001,40,
logos/1.jpg,properties1.xlsx,frogs/ab44.jpg,0,0,400,l,0,3,3,0,0,7,7,43,,,['l'],0,[0.033885895581988734],2018_Jul_09_1428,60.0720737344,go-nogo,001,40,
logos/1.jpg,properties1.xlsx,frogs/ab25.jpg,0,0,400,l,0,3,3,0,0,8,8,24,,,['l'],0,[0.017242468045878923],2018_Jul_09_1428,60.0720737344,go-nogo,001,40,
logos/1.jpg,properties1.xlsx,frogs/ab56.jpg,0,0,400,l,0,3,3,0,0,9,9,55,,,['l'],0,[0.01726693029013404],2018_Jul_09_1428,60.0720737344,go-nogo,001,40,
logos/1.jpg,properties1.xlsx,frogs/ab38.jpg,0,0,400,l,0,3,3,0,0,10,10,37,,,['l'],0,[0.03343988631240791],2018_Jul_09_1428,60.0720737344,go-nogo,001,40,
logos/1.jpg,properties1.xlsx,frogs/ab79.jpg,0,0,400,l,0,3,3,0,0,11,11,77,,,['l'],0,[0.5002915558034147],2018_Jul_09_1428,60.0720737344,go-nogo,001,40,
logos/1.jpg,properties1.xlsx,frogs/ab8.jpg,0,0,400,l,0,3,3,0,0,12,12,7,,,['l'],0,[0.0005637693702738034],2018_Jul_09_1428,60.0720737344,go-nogo,001,40,
logos/1.jpg,properties1.xlsx,frogs/ab49.jpg,0,0,400,l,0,3,3,0,0,13,13,48,,,['l'],0,[0.016980210044494015],2018_Jul_09_1428,60.0720737344,go-nogo,001,40,
logos/1.jpg,properties1.xlsx,frogs/ab5.jpg,0,0,400,l,0,3,3,0,0,14,14,4,,,['l'],0,[0.15051390621556493],2018_Jul_09_1428,60.0720737344,go-nogo,001,40,
logos/1.jpg,properties1.xlsx,logos/1.jpg,0,0,400,a,0,3,3,0,0,15,15,87,,,['l'],0,[0.0005705960411432898],2018_Jul_09_1428,60.0720737344,go-nogo,001,40,
logos/1.jpg,properties1.xlsx,frogs/ab33.jpg,0,0,400,l,0,3,3,0,0,16,16,32,,,['l'],0,[0.10042888569842034],2018_Jul_09_1428,60.0720737344,go-nogo,001,40,
logos/1.jpg,properties1.xlsx,frogs/ab78.jpg,0,0,400,l,0,3,3,0,0,17,17,76,,,['l'],0,[0.5168843521860254],2018_Jul_09_1428,60.0720737344,go-nogo,001,40,
logos/1.jpg,properties1.xlsx,frogs/ab45.jpg,0,0,400,l,0,3,3,0,0,18,18,44,,,['l'],0,[0.7002061086186586],2018_Jul_09_1428,60.0720737344,go-nogo,001,40,
logos/1.jpg,properties1.xlsx,frogs/ab21.jpg,0,0,400,l,0,3,3,0,0,19,19,20,,,['l'],0,[0.0005666138167725876],2018_Jul_09_1428,60.0720737344,go-nogo,001,40,
logos/1.jpg,properties1.xlsx,frogs/ab48.jpg,0,0,400,l,0,3,3,0,0,20,20,47,,,['l'],0,[0.5002852980214811],2018_Jul_09_1428,60.0720737344,go-nogo,001,40,
logos/1.jpg,properties1.xlsx,frogs/ab37.jpg,0,0,400,l,0,3,3,0,0,21,21,36,,,['l'],0,[0.2835742864281201],2018_Jul_09_1428,60.0720737344,go-nogo,001,40,
logos/1.jpg,properties1.xlsx,frogs/ab10.jpg,0,0,400,l,0,3,3,0,0,22,22,9,,,['l'],0,[0.30030475403691526],2018_Jul_09_1428,60.0720737344,go-nogo,001,40,
logos/1.jpg,properties1.xlsx,frogs/ab67.jpg,0,0,400,l,0,3,3,0,0,23,23,65,,,['l'],0,[0.217311758773576],2018_Jul_09_1428,60.0720737344,go-nogo,001,40,
logos/1.jpg,properties1.xlsx,frogs/ab12.jpg,0,0,400,l,0,3,3,0,0,24,24,11,,,['l'],0,[0.41708124479919206],2018_Jul_09_1428,60.0720737344,go-nogo,001,40,
logos/1.jpg,properties1.xlsx,logos/1.jpg,0,0,400,a,0,3,3,0,0,25,25,82,,,['a'],0,[0.45031405537883984],2018_Jul_09_1428,60.0720737344,go-nogo,001,40,
logos/1.jpg,properties1.xlsx,frogs/ab71.jpg,0,0,400,l,0,3,3,0,0,26,26,69,,,['l'],0,[0.2836471042683115],2018_Jul_09_1428,60.0720737344,go-nogo,001,40,
logos/1.jpg,properties1.xlsx,frogs/ab60.jpg,0,0,400,l,0,3,3,0,0,27,27,58,,,['l'],0,[0.1672739560744958],2018_Jul_09_1428,60.0720737344,go-nogo,001,40,
logos/1.jpg,properties1.xlsx,frogs/ab19.jpg,0,0,400,l,0,3,3,0,0,28,28,18,,,['l'],0,[0.15039557722775498],2018_Jul_09_1428,60.0720737344,go-nogo,001,40,
logos/1.jpg,properties1.xlsx,logos/1.jpg,0,0,400,a,0,3,3,0,0,29,29,88,,,['a'],0,[0.20040265989882755],2018_Jul_09_1428,60.0720737344,go-nogo,001,40,
logos/1.jpg,properties1.xlsx,frogs/ab24.jpg,0,0,400,l,0,3,3,0,0,30,30,23,,,['l'],0,[0.15030626159386884],2018_Jul_09_1428,60.0720737344,go-nogo,001,40,
logos/1.jpg,properties1.xlsx,logos/1.jpg,0,0,400,a,0,3,3,0,0,31,31,80,,,['a'],0,[0.11743526465579635],2018_Jul_09_1428,60.0720737344,go-nogo,001,40,
logos/1.jpg,properties1.xlsx,frogs/ab13.jpg,0,0,400,l,0,3,3,0,0,32,32,12,,,['l'],0,[0.10042319680542278],2018_Jul_09_1428,60.0720737344,go-nogo,001,40,
logos/1.jpg,properties1.xlsx,frogs/ab34.jpg,0,0,400,l,0,3,3,0,0,33,33,33,,,['l'],0,[0.20034747763020277],2018_Jul_09_1428,60.0720737344,go-nogo,001,40,
logos/1.jpg,properties1.xlsx,frogs/ab53.jpg,0,0,400,l,0,3,3,0,0,34,34,52,,,['l'],0,[0.1339085942690872],2018_Jul_09_1428,60.0720737344,go-nogo,001,40,
logos/1.jpg,properties1.xlsx,frogs/ab62.jpg,0,0,400,l,0,3,3,0,0,35,35,60,,,['l'],0,[0.13382951864696224],2018_Jul_09_1428,60.0720737344,go-nogo,001,40,
logos/1.jpg,properties1.xlsx,frogs/ab77.jpg,0,0,400,l,0,3,3,0,0,36,36,75,,,['l'],0,[0.06717104398558149],2018_Jul_09_1428,60.0720737344,go-nogo,001,40,
logos/1.jpg,properties1.xlsx,frogs/ab69.jpg,0,0,400,l,0,3,3,0,0,37,37,67,,,['l'],0,[0.06731497299733746],2018_Jul_09_1428,60.0720737344,go-nogo,001,40,
logos/1.jpg,properties1.xlsx,frogs/ab39.jpg,0,0,400,l,0,3,3,0,0,38,38,38,,,['l'],0,[0.10047610351648473],2018_Jul_09_1428,60.0720737344,go-nogo,001,40,
logos/1.jpg,properties1.xlsx,frogs/ab28.jpg,0,0,400,l,0,3,3,0,0,39,39,27,,,['l'],0,[0.05048267418897012],2018_Jul_09_1428,60.0720737344,go-nogo,001,40,
logos/1.jpg,properties1.xlsx,frogs/ab46.jpg,0,0,400,l,0,3,3,0,0,40,40,45,,,['l'],0,[0.1005011346496758],2018_Jul_09_1428,60.0720737344,go-nogo,001,40,
logos/1.jpg,properties1.xlsx,frogs/ab31.jpg,0,0,400,l,0,3,3,0,0,41,41,30,,,['l'],0,[0.16696277358641964],2018_Jul_09_1428,60.0720737344,go-nogo,001,40,
logos/1.jpg,properties1.xlsx,logos/1.jpg,0,0,400,a,0,3,3,0,0,42,42,83,,,['a'],0,[0.2170938741419377],2018_Jul_09_1428,60.0720737344,go-nogo,001,40,
logos/1.jpg,properties1.xlsx,frogs/ab54.jpg,0,0,400,l,0,3,3,0,0,43,43,53,,,['l'],0,[0.017227676922630053],2018_Jul_09_1428,60.0720737344,go-nogo,001,40,
logos/1.jpg,properties1.xlsx,frogs/ab66.jpg,0,0,400,l,0,3,3,0,0,44,44,64,,,['l'],0,[0.050427491920345346],2018_Jul_09_1428,60.0720737344,go-nogo,001,40,
logos/1.jpg,properties1.xlsx,frogs/ab50.jpg,0,0,400,l,0,3,3,0,0,45,45,49,,,['l'],0,[0.01711731238356151],2018_Jul_09_1428,60.0720737344,go-nogo,001,40,
logos/1.jpg,properties1.xlsx,frogs/ab29.jpg,0,0,400,l,0,3,3,0,0,46,46,28,,,['l'],0,[0.017189561334816972],2018_Jul_09_1428,60.0720737344,go-nogo,001,40,
logos/1.jpg,properties1.xlsx,frogs/ab36.jpg,0,0,400,l,0,3,3,0,0,47,47,35,,,['l'],0,[0.06721086624202144],2018_Jul_09_1428,60.0720737344,go-nogo,001,40,
logos/1.jpg,properties1.xlsx,frogs/ab4.jpg,0,0,400,l,0,3,3,0,0,48,48,3,,,['l'],0,[0.05049803420297394],2018_Jul_09_1428,60.0720737344,go-nogo,001,40,
logos/1.jpg,properties1.xlsx,frogs/ab18.jpg,0,0,400,l,0,3,3,0,0,49,49,17,,,['l'],0,[0.01703084119981213],2018_Jul_09_1428,60.0720737344,go-nogo,001,40,
logos/1.jpg,properties1.xlsx,frogs/ab30.jpg,0,0,400,l,0,3,3,0,0,50,50,29,,,['l'],0,[0.03382616219823831],2018_Jul_09_1428,60.0720737344,go-nogo,001,40,
logos/1.jpg,properties1.xlsx,frogs/ab72.jpg,0,0,400,l,0,3,3,0,0,51,51,70,,,['l'],0,[0.08378545816412952],2018_Jul_09_1428,60.0720737344,go-nogo,001,40,
logos/1.jpg,properties1.xlsx,frogs/ab74.jpg,0,0,400,l,0,3,3,0,0,52,52,72,,,['l'],0,[0.08357269353837182],2018_Jul_09_1428,60.0720737344,go-nogo,001,40,
logos/1.jpg,properties1.xlsx,logos/1.jpg,0,0,400,a,0,3,3,0,0,53,53,89,,,['a'],0,[0.25039608922634216],2018_Jul_09_1428,60.0720737344,go-nogo,001,40,
logos/1.jpg,properties1.xlsx,frogs/ab80.jpg,0,0,400,l,0,3,3,0,0,54,54,78,,,['l'],0,[0.5502400428722467],2018_Jul_09_1428,60.0720737344,go-nogo,001,40,
logos/1.jpg,properties1.xlsx,frogs/ab20.jpg,0,0,400,l,0,3,3,0,0,55,55,19,,,['l'],0,[0.11702054430134012],2018_Jul_09_1428,60.0720737344,go-nogo,001,40,
logos/1.jpg,properties1.xlsx,frogs/ab14.jpg,0,0,400,l,0,3,3,0,0,56,56,13,,,['l'],0,[0.05052761644947168],2018_Jul_09_1428,60.0720737344,go-nogo,001,40,
logos/1.jpg,properties1.xlsx,frogs/ab57.jpg,0,0,400,l,0,3,3,0,0,57,57,56,,,['l'],0,[0.8333410133400321],2018_Jul_09_1428,60.0720737344,go-nogo,001,40,
logos/1.jpg,properties1.xlsx,logos/1.jpg,0,0,400,a,0,3,3,0,0,58,58,81,,,['a'],0,[0.1837973479523498],2018_Jul_09_1428,60.0720737344,go-nogo,001,40,
logos/1.jpg,properties1.xlsx,frogs/ab75.jpg,0,0,400,l,0,3,3,0,0,59,59,73,,,['l'],0,[0.06706978167858324],2018_Jul_09_1428,60.0720737344,go-nogo,001,40,
logos/1.jpg,properties1.xlsx,frogs/ab41.jpg,0,0,400,l,0,3,3,0,0,60,60,40,,,['l'],0,[0.10055233469211089],2018_Jul_09_1428,60.0720737344,go-nogo,001,40,
logos/1.jpg,properties1.xlsx,frogs/ab6.jpg,0,0,400,l,0,3,3,0,0,61,61,5,,,['l'],0,[0.03387224223843077],2018_Jul_09_1428,60.0720737344,go-nogo,001,40,
logos/1.jpg,properties1.xlsx,frogs/ab26.jpg,0,0,400,l,0,3,3,0,0,62,62,25,,,['l'],0,[0.06689001263475802],2018_Jul_09_1428,60.0720737344,go-nogo,001,40,
logos/1.jpg,properties1.xlsx,frogs/ab3.jpg,0,0,400,l,0,3,3,0,0,63,63,2,,,['l'],0,[0.03382843775580113],2018_Jul_09_1428,60.0720737344,go-nogo,001,40,
logos/1.jpg,properties1.xlsx,frogs/ab43.jpg,0,0,400,l,0,3,3,0,0,64,64,42,,,['l'],0,[0.03383469553773466],2018_Jul_09_1428,60.0720737344,go-nogo,001,40,
logos/1.jpg,properties1.xlsx,frogs/ab1.jpg,0,0,400,l,0,3,3,0,0,65,65,0,,,['l'],0,[0.05030006070046511],2018_Jul_09_1428,60.0720737344,go-nogo,001,40,
logos/1.jpg,properties1.xlsx,frogs/ab61.jpg,0,0,400,l,0,3,3,0,0,66,66,59,,,['l'],0,[0.11723501559572469],2018_Jul_09_1428,60.0720737344,go-nogo,001,40,
logos/1.jpg,properties1.xlsx,frogs/ab15.jpg,0,0,400,l,0,3,3,0,0,67,67,14,,,['l'],0,[0.06696396825464035],2018_Jul_09_1428,60.0720737344,go-nogo,001,40,
logos/1.jpg,properties1.xlsx,logos/1.jpg,0,0,400,a,0,3,3,0,0,68,68,86,,,['l'],0,[0.11719633111897565],2018_Jul_09_1428,60.0720737344,go-nogo,001,40,
logos/1.jpg,properties1.xlsx,frogs/ab55.jpg,0,0,400,l,0,3,3,0,0,69,69,54,,,['l'],0,[1.0997854718170856],2018_Jul_09_1428,60.0720737344,go-nogo,001,40,
logos/1.jpg,properties1.xlsx,frogs/ab9.jpg,0,0,400,l,0,3,3,0,0,70,70,8,,,['l'],0,[9.41202552492905],2018_Jul_09_1428,60.0720737344,go-nogo,001,40,
logos/1.jpg,properties1.xlsx,frogs/ab64.jpg,0,0,400,l,0,3,3,0,0,71,71,62,,,['l'],0,[0.18368243229815562],2018_Jul_09_1428,60.0720737344,go-nogo,001,40,
logos/1.jpg,properties1.xlsx,frogs/ab17.jpg,0,0,400,l,0,3,3,0,0,72,72,16,,,['l'],0,[0.15050309731850575],2018_Jul_09_1428,60.0720737344,go-nogo,001,40,
logos/1.jpg,properties1.xlsx,logos/1.jpg,0,0,400,a,0,3,3,0,0,73,73,84,,,['a'],0,[0.23394835963699734],2018_Jul_09_1428,60.0720737344,go-nogo,001,40,
logos/1.jpg,properties1.xlsx,frogs/ab52.jpg,0,0,400,l,0,3,3,0,0,74,74,51,,,['l'],0,[0.20051529999545892],2018_Jul_09_1428,60.0720737344,go-nogo,001,40,
logos/1.jpg,properties1.xlsx,frogs/ab76.jpg,0,0,400,l,0,3,3,0,0,75,75,74,,,['l'],0,[0.1504490528277529],2018_Jul_09_1428,60.0720737344,go-nogo,001,40,
logos/1.jpg,properties1.xlsx,frogs/ab47.jpg,0,0,400,l,0,3,3,0,0,76,76,46,,,['l'],0,[0.16714254262842587],2018_Jul_09_1428,60.0720737344,go-nogo,001,40,
logos/1.jpg,properties1.xlsx,frogs/ab51.jpg,0,0,400,l,0,3,3,0,0,77,77,50,,,['l'],0,[0.08389240936594433],2018_Jul_09_1428,60.0720737344,go-nogo,001,40,
logos/1.jpg,properties1.xlsx,frogs/ab40.jpg,0,0,400,l,0,3,3,0,0,78,78,39,,,['l'],0,[0.1337623896997684],2018_Jul_09_1428,60.0720737344,go-nogo,001,40,
logos/1.jpg,properties1.xlsx,frogs/ab16.jpg,0,0,400,l,0,3,3,0,0,79,79,15,,,['l'],0,[0.10058362360905448],2018_Jul_09_1428,60.0720737344,go-nogo,001,40,
logos/1.jpg,properties1.xlsx,frogs/ab11.jpg,0,0,400,l,0,3,3,0,0,80,80,10,,,['l'],0,[0.0839436094101984],2018_Jul_09_1428,60.0720737344,go-nogo,001,40,
logos/1.jpg,properties1.xlsx,frogs/ab58.jpg,0,0,400,l,0,3,3,0,0,81,81,57,,,['l'],0,[0.0838719293496979],2018_Jul_09_1428,60.0720737344,go-nogo,001,40,
logos/1.jpg,properties1.xlsx,frogs/ab65.jpg,0,0,400,l,0,3,3,0,0,82,82,63,,,['l'],0,[0.0005751471580879297],2018_Jul_09_1428,60.0720737344,go-nogo,001,40,
logos/1.jpg,properties1.xlsx,logos/1.jpg,0,0,400,a,0,3,3,0,0,83,83,85,,,['a'],0,[0.1838263613099116],2018_Jul_09_1428,60.0720737344,go-nogo,001,40,
logos/1.jpg,properties1.xlsx,frogs/ab35.jpg,0,0,400,l,0,3,3,0,0,84,84,34,,,['l'],0,[0.10050056576073985],2018_Jul_09_1428,60.0720737344,go-nogo,001,40,
logos/1.jpg,properties1.xlsx,frogs/ab23.jpg,0,0,400,l,0,3,3,0,0,85,85,22,,,['l'],0,[0.08355164462955145],2018_Jul_09_1428,60.0720737344,go-nogo,001,40,
logos/1.jpg,properties1.xlsx,frogs/ab73.jpg,0,0,400,l,0,3,3,0,0,86,86,71,,,['l'],0,[0.03371807321673259],2018_Jul_09_1428,60.0720737344,go-nogo,001,40,
logos/1.jpg,properties1.xlsx,frogs/ab32.jpg,0,0,400,l,0,3,3,0,0,87,87,31,,,['l'],0,[0.0005671827057085466],2018_Jul_09_1428,60.0720737344,go-nogo,001,40,
logos/1.jpg,properties1.xlsx,frogs/ab27.jpg,0,0,400,l,0,3,3,0,0,88,88,26,,,['l'],0,[0.06727173740546277],2018_Jul_09_1428,60.0720737344,go-nogo,001,40,
logos/1.jpg,properties1.xlsx,frogs/ab2.jpg,0,0,400,l,0,3,3,0,0,89,89,1,,,['l'],0,[0.10065757922711782],2018_Jul_09_1428,60.0720737344,go-nogo,001,40,
logos/1.jpg,properties1.xlsx,,,,,,0,3,3,0,,,,,,,,,,2018_Jul_09_1428,60.0720737344,go-nogo,001,40,
