pix,source,image1,x,y,size,answer,trials_2.thisRepN,trials_2.thisTrialN,trials_2.thisN,trials_2.thisIndex,trials.thisRepN,trials.thisTrialN,trials.thisN,trials.thisIndex,key_resp_3.keys,key_resp_3.rt,key_resp_2.keys,key_resp_2.corr,key_resp_2.rt,date,frameRate,expName,session,participant,
logos/2.jpg,properties2.xlsx,frogs/ab25.jpg,0,0,400,l,0,0,0,1,0,0,0,24,space,16.0135441182,['l'],0,[0.33382712931052083],2018_Jul_09_1452,60.0767958332,go-nogo,001,41,
logos/2.jpg,properties2.xlsx,logos/2.jpg,0,0,400,a,0,0,0,1,0,1,1,86,,,['a'],0,[0.050500878649472725],2018_Jul_09_1452,60.0767958332,go-nogo,001,41,
logos/2.jpg,properties2.xlsx,frogs/ab55.jpg,0,0,400,l,0,0,0,1,0,2,2,54,,,['l'],0,[0.0005637693702738034],2018_Jul_09_1452,60.0767958332,go-nogo,001,41,
logos/2.jpg,properties2.xlsx,frogs/ab16.jpg,0,0,400,l,0,0,0,1,0,3,3,15,,,['a'],0,[0.0005700271522073308],2018_Jul_09_1452,60.0767958332,go-nogo,001,41,
logos/2.jpg,properties2.xlsx,frogs/ab72.jpg,0,0,400,l,0,0,0,1,0,4,4,70,,,['l'],0,[0.41698908471880713],2018_Jul_09_1452,60.0767958332,go-nogo,001,41,
logos/2.jpg,properties2.xlsx,frogs/ab38.jpg,0,0,400,l,0,0,0,1,0,5,5,37,,,['l'],0,[0.36691430421160476],2018_Jul_09_1452,60.0767958332,go-nogo,001,41,
logos/2.jpg,properties2.xlsx,logos/2.jpg,0,0,400,a,0,0,0,1,0,6,6,89,,,['a'],0,[0.3672260555886169],2018_Jul_09_1452,60.0767958332,go-nogo,001,41,
logos/2.jpg,properties2.xlsx,frogs/ab63.jpg,0,0,400,l,0,0,0,1,0,7,7,61,,,['a'],0,[0.4836731594023149],2018_Jul_09_1452,60.0767958332,go-nogo,001,41,
logos/2.jpg,properties2.xlsx,frogs/ab79.jpg,0,0,400,l,0,0,0,1,0,8,8,77,,,['l'],0,[0.10039247677923413],2018_Jul_09_1452,60.0767958332,go-nogo,001,41,
logos/2.jpg,properties2.xlsx,logos/2.jpg,0,0,400,a,0,0,0,1,0,9,9,87,,,['a'],0,[0.0005757160470238887],2018_Jul_09_1452,60.0767958332,go-nogo,001,41,
logos/2.jpg,properties2.xlsx,frogs/ab24.jpg,0,0,400,l,0,0,0,1,0,10,10,23,,,['l'],0,[0.08437482755471137],2018_Jul_09_1452,60.0767958332,go-nogo,001,41,
logos/2.jpg,properties2.xlsx,frogs/ab43.jpg,0,0,400,l,0,0,0,1,0,11,11,42,,,['l'],0,[0.03386712223255017],2018_Jul_09_1452,60.0767958332,go-nogo,001,41,
logos/2.jpg,properties2.xlsx,frogs/ab44.jpg,0,0,400,l,0,0,0,1,0,12,12,43,,,['l'],0,[0.916768640086957],2018_Jul_09_1452,60.0767958332,go-nogo,001,41,
logos/2.jpg,properties2.xlsx,frogs/ab48.jpg,0,0,400,l,0,0,0,1,0,13,13,47,,,['l'],0,[0.15043426170268503],2018_Jul_09_1452,60.0767958332,go-nogo,001,41,
logos/2.jpg,properties2.xlsx,frogs/ab35.jpg,0,0,400,l,0,0,0,1,0,14,14,34,,,['l'],0,[0.0671198439431464],2018_Jul_09_1452,60.0767958332,go-nogo,001,41,
logos/2.jpg,properties2.xlsx,frogs/ab27.jpg,0,0,400,l,0,0,0,1,0,15,15,26,,,['l'],0,[0.900075150286284],2018_Jul_09_1452,60.0767958332,go-nogo,001,41,
logos/2.jpg,properties2.xlsx,frogs/ab10.jpg,0,0,400,l,0,0,0,1,0,16,16,9,,,['l'],0,[0.10064108143524209],2018_Jul_09_1452,60.0767958332,go-nogo,001,41,
logos/2.jpg,properties2.xlsx,logos/2.jpg,0,0,400,a,0,0,0,1,0,17,17,85,,,['a'],0,[0.0005734404894610634],2018_Jul_09_1452,60.0767958332,go-nogo,001,41,
logos/2.jpg,properties2.xlsx,frogs/ab7.jpg,0,0,400,l,0,0,0,1,0,18,18,6,,,['l'],0,[0.000573440487642074],2018_Jul_09_1452,60.0767958332,go-nogo,001,41,
logos/2.jpg,properties2.xlsx,frogs/ab64.jpg,0,0,400,l,0,0,0,1,0,19,19,62,,,['l'],0,[0.08383381376188481],2018_Jul_09_1452,60.0767958332,go-nogo,001,41,
logos/2.jpg,properties2.xlsx,frogs/ab23.jpg,0,0,400,l,0,0,0,1,0,20,20,22,,,['l'],0,[0.017159979086500243],2018_Jul_09_1452,60.0767958332,go-nogo,001,41,
logos/2.jpg,properties2.xlsx,frogs/ab17.jpg,0,0,400,l,0,0,0,1,0,21,21,16,,,['l'],0,[0.5501683628099272],2018_Jul_09_1452,60.0767958332,go-nogo,001,41,
logos/2.jpg,properties2.xlsx,logos/2.jpg,0,0,400,a,0,0,0,1,0,22,22,84,,,['a'],0,[0.06718014621765178],2018_Jul_09_1452,60.0767958332,go-nogo,001,41,
logos/2.jpg,properties2.xlsx,frogs/ab69.jpg,0,0,400,l,0,0,0,1,0,23,23,67,,,['l'],0,[0.3834763805662078],2018_Jul_09_1452,60.0767958332,go-nogo,001,41,
logos/2.jpg,properties2.xlsx,frogs/ab41.jpg,0,0,400,l,0,0,0,1,0,24,24,40,,,['l'],0,[0.38367150962221785],2018_Jul_09_1452,60.0767958332,go-nogo,001,41,
logos/2.jpg,properties2.xlsx,frogs/ab2.jpg,0,0,400,l,0,0,0,1,0,25,25,1,,,['l'],0,[0.05035182963365514],2018_Jul_09_1452,60.0767958332,go-nogo,001,41,
logos/2.jpg,properties2.xlsx,frogs/ab6.jpg,0,0,400,l,0,0,0,1,0,26,26,5,,,['l'],0,[0.10049373908805137],2018_Jul_09_1452,60.0767958332,go-nogo,001,41,
logos/2.jpg,properties2.xlsx,frogs/ab67.jpg,0,0,400,l,0,0,0,1,0,27,27,65,,,['l'],0,[0.2502441957640258],2018_Jul_09_1452,60.0767958332,go-nogo,001,41,
logos/2.jpg,properties2.xlsx,frogs/ab80.jpg,0,0,400,l,0,0,0,1,0,28,28,78,,,['l'],0,[0.01722426358719531],2018_Jul_09_1452,60.0767958332,go-nogo,001,41,
logos/2.jpg,properties2.xlsx,frogs/ab20.jpg,0,0,400,l,0,0,0,1,0,29,29,19,,,['l'],0,[2.848897293282789],2018_Jul_09_1452,60.0767958332,go-nogo,001,41,
logos/2.jpg,properties2.xlsx,frogs/ab28.jpg,0,0,400,l,0,0,0,1,0,30,30,27,,,['l'],0,[0.13386649645508442],2018_Jul_09_1452,60.0767958332,go-nogo,001,41,
logos/2.jpg,properties2.xlsx,frogs/ab33.jpg,0,0,400,l,0,0,0,1,0,31,31,32,,,['l'],0,[0.23395234186136804],2018_Jul_09_1452,60.0767958332,go-nogo,001,41,
logos/2.jpg,properties2.xlsx,frogs/ab14.jpg,0,0,400,l,0,0,0,1,0,32,32,13,,,['l'],0,[0.3669296642237896],2018_Jul_09_1452,60.0767958332,go-nogo,001,41,
logos/2.jpg,properties2.xlsx,frogs/ab60.jpg,0,0,400,l,0,0,0,1,0,33,33,58,,,['l'],0,[0.10038735677517252],2018_Jul_09_1452,60.0767958332,go-nogo,001,41,
logos/2.jpg,properties2.xlsx,frogs/ab62.jpg,0,0,400,l,0,0,0,1,0,34,34,60,,,['l'],0,[0.050413838574968395],2018_Jul_09_1452,60.0767958332,go-nogo,001,41,
logos/2.jpg,properties2.xlsx,frogs/ab81.jpg,0,0,400,l,0,0,0,1,0,35,35,79,,,['l'],0,[0.1170586598909722],2018_Jul_09_1452,60.0767958332,go-nogo,001,41,
logos/2.jpg,properties2.xlsx,frogs/ab19.jpg,0,0,400,l,0,0,0,1,0,36,36,18,,,['a'],0,[0.717180629771974],2018_Jul_09_1452,60.0767958332,go-nogo,001,41,
logos/2.jpg,properties2.xlsx,frogs/ab11.jpg,0,0,400,l,0,0,0,1,0,37,37,10,,,['l'],0,[0.0336355842591729],2018_Jul_09_1452,60.0767958332,go-nogo,001,41,
logos/2.jpg,properties2.xlsx,frogs/ab77.jpg,0,0,400,l,0,0,0,1,0,38,38,75,,,['l'],0,[0.5840980628745456],2018_Jul_09_1452,60.0767958332,go-nogo,001,41,
logos/2.jpg,properties2.xlsx,frogs/ab75.jpg,0,0,400,l,0,0,0,1,0,39,39,73,,,['l'],0,[0.033862002228488564],2018_Jul_09_1452,60.0767958332,go-nogo,001,41,
logos/2.jpg,properties2.xlsx,frogs/ab21.jpg,0,0,400,l,0,0,0,1,0,40,40,20,,,['l'],0,[0.0005711649318982381],2018_Jul_09_1452,60.0767958332,go-nogo,001,41,
logos/2.jpg,properties2.xlsx,frogs/ab56.jpg,0,0,400,l,0,0,0,1,0,41,41,55,,,['l'],0,[0.08384917377406964],2018_Jul_09_1452,60.0767958332,go-nogo,001,41,
logos/2.jpg,properties2.xlsx,frogs/ab68.jpg,0,0,400,l,0,0,0,1,0,42,42,66,,,['l'],0,[0.0005671827057085466],2018_Jul_09_1452,60.0767958332,go-nogo,001,41,
logos/2.jpg,properties2.xlsx,frogs/ab78.jpg,0,0,400,l,0,0,0,1,0,43,43,76,,,['l'],0,[0.450416455465529],2018_Jul_09_1452,60.0767958332,go-nogo,001,41,
logos/2.jpg,properties2.xlsx,frogs/ab26.jpg,0,0,400,l,0,0,0,1,0,44,44,25,,,['l'],0,[0.5002813157971104],2018_Jul_09_1452,60.0767958332,go-nogo,001,41,
logos/2.jpg,properties2.xlsx,frogs/ab73.jpg,0,0,400,l,0,0,0,1,0,45,45,71,,,['l'],0,[0.5006152538589959],2018_Jul_09_1452,60.0767958332,go-nogo,001,41,
logos/2.jpg,properties2.xlsx,frogs/ab45.jpg,0,0,400,l,0,0,0,1,0,46,46,44,,,['l'],0,[0.4173890139500145],2018_Jul_09_1452,60.0767958332,go-nogo,001,41,
logos/2.jpg,properties2.xlsx,frogs/ab15.jpg,0,0,400,l,0,0,0,1,0,47,47,14,,,['l'],0,[0.01721516135694401],2018_Jul_09_1452,60.0767958332,go-nogo,001,41,
logos/2.jpg,properties2.xlsx,frogs/ab74.jpg,0,0,400,l,0,0,0,1,0,48,48,72,,,['l'],0,[0.4835701904248708],2018_Jul_09_1452,60.0767958332,go-nogo,001,41,
logos/2.jpg,properties2.xlsx,frogs/ab3.jpg,0,0,400,l,0,0,0,1,0,49,49,2,,,['l'],0,[0.4669176606585097],2018_Jul_09_1452,60.0767958332,go-nogo,001,41,
logos/2.jpg,properties2.xlsx,frogs/ab34.jpg,0,0,400,l,0,0,0,1,0,50,50,33,,,['l'],0,[0.43359837889329356],2018_Jul_09_1452,60.0767958332,go-nogo,001,41,
logos/2.jpg,properties2.xlsx,frogs/ab40.jpg,0,0,400,l,0,0,0,1,0,51,51,39,,,['l'],0,[0.43364445893166703],2018_Jul_09_1452,60.0767958332,go-nogo,001,41,
logos/2.jpg,properties2.xlsx,frogs/ab5.jpg,0,0,400,l,0,0,0,1,0,52,52,4,,,['l'],0,[0.43357107220253965],2018_Jul_09_1452,60.0767958332,go-nogo,001,41,
logos/2.jpg,properties2.xlsx,frogs/ab46.jpg,0,0,400,l,0,0,0,1,0,53,53,45,,,['l'],0,[0.4335193032711686],2018_Jul_09_1452,60.0767958332,go-nogo,001,41,
logos/2.jpg,properties2.xlsx,frogs/ab53.jpg,0,0,400,l,0,0,0,1,0,54,54,52,,,['l'],0,[0.4668397228142567],2018_Jul_09_1452,60.0767958332,go-nogo,001,41,
logos/2.jpg,properties2.xlsx,frogs/ab66.jpg,0,0,400,l,0,0,0,1,0,55,55,64,,,['l'],0,[0.5336119753483217],2018_Jul_09_1452,60.0767958332,go-nogo,001,41,
logos/2.jpg,properties2.xlsx,frogs/ab31.jpg,0,0,400,l,0,0,0,1,0,56,56,30,,,['l'],0,[0.0005643382592097623],2018_Jul_09_1452,60.0767958332,go-nogo,001,41,
logos/2.jpg,properties2.xlsx,frogs/ab52.jpg,0,0,400,l,0,0,0,1,0,57,57,51,,,['l'],0,[0.4002529282151954],2018_Jul_09_1452,60.0767958332,go-nogo,001,41,
logos/2.jpg,properties2.xlsx,frogs/ab12.jpg,0,0,400,l,0,0,0,1,0,58,58,11,,,['l'],0,[0.3837295363391604],2018_Jul_09_1452,60.0767958332,go-nogo,001,41,
logos/2.jpg,properties2.xlsx,logos/2.jpg,0,0,400,a,0,0,0,1,0,59,59,80,,,['l'],0,[0.7167920783285808],2018_Jul_09_1452,60.0767958332,go-nogo,001,41,
logos/2.jpg,properties2.xlsx,frogs/ab65.jpg,0,0,400,l,0,0,0,1,0,60,60,63,,,['l'],0,[0.11718097110497183],2018_Jul_09_1452,60.0767958332,go-nogo,001,41,
logos/2.jpg,properties2.xlsx,frogs/ab9.jpg,0,0,400,l,0,0,0,1,0,61,61,8,,,['l'],0,[0.0005632004813378444],2018_Jul_09_1452,60.0767958332,go-nogo,001,41,
logos/2.jpg,properties2.xlsx,frogs/ab22.jpg,0,0,400,l,0,0,0,1,0,62,62,21,,,['l'],0,[0.4502622864474688],2018_Jul_09_1452,60.0767958332,go-nogo,001,41,
logos/2.jpg,properties2.xlsx,frogs/ab13.jpg,0,0,400,l,0,0,0,1,0,63,63,12,,,['l'],0,[0.35036189897618897],2018_Jul_09_1452,60.0767958332,go-nogo,001,41,
logos/2.jpg,properties2.xlsx,frogs/ab54.jpg,0,0,400,l,0,0,0,1,0,64,64,53,,,['l'],0,[0.3170073460696585],2018_Jul_09_1452,60.0767958332,go-nogo,001,41,
logos/2.jpg,properties2.xlsx,frogs/ab61.jpg,0,0,400,l,0,0,0,1,0,65,65,59,,,['l'],0,[0.350609365852506],2018_Jul_09_1452,60.0767958332,go-nogo,001,41,
logos/2.jpg,properties2.xlsx,frogs/ab42.jpg,0,0,400,l,0,0,0,1,0,66,66,41,,,['l'],0,[0.36695753980529844],2018_Jul_09_1452,60.0767958332,go-nogo,001,41,
logos/2.jpg,properties2.xlsx,frogs/ab29.jpg,0,0,400,l,0,0,0,1,0,67,67,28,,,['l'],0,[0.5169605833616515],2018_Jul_09_1452,60.0767958332,go-nogo,001,41,
logos/2.jpg,properties2.xlsx,frogs/ab36.jpg,0,0,400,l,0,0,0,1,0,68,68,35,,,['l'],0,[0.4336905389718595],2018_Jul_09_1452,60.0767958332,go-nogo,001,41,
logos/2.jpg,properties2.xlsx,logos/2.jpg,0,0,400,a,0,0,0,1,0,69,69,83,,,['a'],0,[0.05054980313616397],2018_Jul_09_1452,60.0767958332,go-nogo,001,41,
logos/2.jpg,properties2.xlsx,frogs/ab39.jpg,0,0,400,l,0,0,0,1,0,70,70,38,,,['l'],0,[0.017231659148819745],2018_Jul_09_1452,60.0767958332,go-nogo,001,41,
logos/2.jpg,properties2.xlsx,logos/2.jpg,0,0,400,a,0,0,0,1,0,71,71,88,,,['a'],0,[0.05047926085353538],2018_Jul_09_1452,60.0767958332,go-nogo,001,41,
logos/2.jpg,properties2.xlsx,frogs/ab47.jpg,0,0,400,l,0,0,0,1,0,72,72,46,,,['l'],0,[0.017100245704568806],2018_Jul_09_1452,60.0767958332,go-nogo,001,41,
logos/2.jpg,properties2.xlsx,frogs/ab50.jpg,0,0,400,l,0,0,0,1,0,73,73,49,,,['l'],0,[0.5834518045448931],2018_Jul_09_1452,60.0767958332,go-nogo,001,41,
logos/2.jpg,properties2.xlsx,logos/2.jpg,0,0,400,a,0,0,0,1,0,74,74,82,,,['l'],0,[0.4002375682030106],2018_Jul_09_1452,60.0767958332,go-nogo,001,41,
logos/2.jpg,properties2.xlsx,frogs/ab70.jpg,0,0,400,l,0,0,0,1,0,75,75,68,,,['l'],0,[0.40026942600707116],2018_Jul_09_1452,60.0767958332,go-nogo,001,41,
logos/2.jpg,properties2.xlsx,frogs/ab32.jpg,0,0,400,l,0,0,0,1,0,76,76,31,,,['l'],0,[0.46675268274157133],2018_Jul_09_1452,60.0767958332,go-nogo,001,41,
logos/2.jpg,properties2.xlsx,frogs/ab76.jpg,0,0,400,l,0,0,0,1,0,77,77,74,,,['l'],0,[0.4002347237565118],2018_Jul_09_1452,60.0767958332,go-nogo,001,41,
logos/2.jpg,properties2.xlsx,frogs/ab4.jpg,0,0,400,l,0,0,0,1,0,78,78,3,,,['l'],0,[0.3835309939458966],2018_Jul_09_1452,60.0767958332,go-nogo,001,41,
logos/2.jpg,properties2.xlsx,frogs/ab8.jpg,0,0,400,l,0,0,0,1,0,79,79,7,,,['l'],0,[0.050480967520343256],2018_Jul_09_1452,60.0767958332,go-nogo,001,41,
logos/2.jpg,properties2.xlsx,frogs/ab58.jpg,0,0,400,l,0,0,0,1,0,80,80,57,,,['l'],0,[0.4502952820294013],2018_Jul_09_1452,60.0767958332,go-nogo,001,41,
logos/2.jpg,properties2.xlsx,frogs/ab71.jpg,0,0,400,l,0,0,0,1,0,81,81,69,,,['l'],0,[0.5000025600020308],2018_Jul_09_1452,60.0767958332,go-nogo,001,41,
logos/2.jpg,properties2.xlsx,logos/2.jpg,0,0,400,a,0,0,0,1,0,82,82,81,,,['a'],0,[0.0505259097826638],2018_Jul_09_1452,60.0767958332,go-nogo,001,41,
logos/2.jpg,properties2.xlsx,frogs/ab18.jpg,0,0,400,l,0,0,0,1,0,83,83,17,,,['l'],0,[0.36709065991635725],2018_Jul_09_1452,60.0767958332,go-nogo,001,41,
logos/2.jpg,properties2.xlsx,frogs/ab1.jpg,0,0,400,l,0,0,0,1,0,84,84,0,,,['l'],0,[0.3670263754174812],2018_Jul_09_1452,60.0767958332,go-nogo,001,41,
logos/2.jpg,properties2.xlsx,frogs/ab51.jpg,0,0,400,l,0,0,0,1,0,85,85,50,,,['l'],0,[0.36721866002517345],2018_Jul_09_1452,60.0767958332,go-nogo,001,41,
logos/2.jpg,properties2.xlsx,frogs/ab49.jpg,0,0,400,l,0,0,0,1,0,86,86,48,,,['l'],0,[0.38365046071521647],2018_Jul_09_1452,60.0767958332,go-nogo,001,41,
logos/2.jpg,properties2.xlsx,frogs/ab57.jpg,0,0,400,l,0,0,0,1,0,87,87,56,,,['l'],0,[0.35037157009355724],2018_Jul_09_1452,60.0767958332,go-nogo,001,41,
logos/2.jpg,properties2.xlsx,frogs/ab30.jpg,0,0,400,l,0,0,0,1,0,88,88,29,,,['l'],0,[0.38341721607139334],2018_Jul_09_1452,60.0767958332,go-nogo,001,41,
logos/2.jpg,properties2.xlsx,frogs/ab37.jpg,0,0,400,l,0,0,0,1,0,89,89,36,,,['l'],0,[0.3835082383702684],2018_Jul_09_1452,60.0767958332,go-nogo,001,41,
logos/2.jpg,properties2.xlsx,,,,,,0,0,0,1,,,,,,,,,,2018_Jul_09_1452,60.0767958332,go-nogo,001,41,
logos/1.jpg,properties1.xlsx,frogs/ab77.jpg,0,0,400,l,0,1,1,0,0,0,0,75,space,8.40719337858,['l'],0,[0.8834197760734241],2018_Jul_09_1452,60.0767958332,go-nogo,001,41,
logos/1.jpg,properties1.xlsx,frogs/ab57.jpg,0,0,400,l,0,1,1,0,0,1,1,56,,,['l'],0,[0.3836447718240379],2018_Jul_09_1452,60.0767958332,go-nogo,001,41,
logos/1.jpg,properties1.xlsx,frogs/ab25.jpg,0,0,400,l,0,1,1,0,0,2,2,24,,,['l'],0,[0.43364275226485915],2018_Jul_09_1452,60.0767958332,go-nogo,001,41,
logos/1.jpg,properties1.xlsx,frogs/ab70.jpg,0,0,400,l,0,1,1,0,0,3,3,68,,,['l'],0,[0.38396505653872737],2018_Jul_09_1452,60.0767958332,go-nogo,001,41,
logos/1.jpg,properties1.xlsx,frogs/ab15.jpg,0,0,400,l,0,1,1,0,0,4,4,14,,,['l'],0,[0.367054819886107],2018_Jul_09_1452,60.0767958332,go-nogo,001,41,
logos/1.jpg,properties1.xlsx,logos/1.jpg,0,0,400,a,0,1,1,0,0,5,5,86,,,['l'],0,[0.36697688204367296],2018_Jul_09_1452,60.0767958332,go-nogo,001,41,
logos/1.jpg,properties1.xlsx,frogs/ab2.jpg,0,0,400,l,0,1,1,0,0,6,6,1,,,['l'],0,[0.40024041265132837],2018_Jul_09_1452,60.0767958332,go-nogo,001,41,
logos/1.jpg,properties1.xlsx,frogs/ab34.jpg,0,0,400,l,0,1,1,0,0,7,7,33,,,['l'],0,[0.0005666138167725876],2018_Jul_09_1452,60.0767958332,go-nogo,001,41,
logos/1.jpg,properties1.xlsx,logos/1.jpg,0,0,400,a,0,1,1,0,0,8,8,83,,,['l'],0,[0.3837244163332798],2018_Jul_09_1452,60.0767958332,go-nogo,001,41,
logos/1.jpg,properties1.xlsx,frogs/ab45.jpg,0,0,400,l,0,1,1,0,0,9,9,44,,,['l'],0,[0.400271132675698],2018_Jul_09_1452,60.0767958332,go-nogo,001,41,
logos/1.jpg,properties1.xlsx,frogs/ab67.jpg,0,0,400,l,0,1,1,0,0,10,10,65,,,['l'],0,[0.31727187963042525],2018_Jul_09_1452,60.0767958332,go-nogo,001,41,
logos/1.jpg,properties1.xlsx,logos/1.jpg,0,0,400,a,0,1,1,0,0,11,11,87,,,['a'],0,[0.000574009376578033],2018_Jul_09_1452,60.0767958332,go-nogo,001,41,
logos/1.jpg,properties1.xlsx,frogs/ab63.jpg,0,0,400,l,0,1,1,0,0,12,12,61,,,['l'],0,[0.31696923048002645],2018_Jul_09_1452,60.0767958332,go-nogo,001,41,
logos/1.jpg,properties1.xlsx,frogs/ab72.jpg,0,0,400,l,0,1,1,0,0,13,13,70,,,['l'],0,[0.35011158764973516],2018_Jul_09_1452,60.0767958332,go-nogo,001,41,
logos/1.jpg,properties1.xlsx,frogs/ab58.jpg,0,0,400,l,0,1,1,0,0,14,14,57,,,['l'],0,[0.34956602274178294],2018_Jul_09_1452,60.0767958332,go-nogo,001,41,
logos/1.jpg,properties1.xlsx,frogs/ab65.jpg,0,0,400,l,0,1,1,0,0,15,15,63,,,['l'],0,[0.3503215078271751],2018_Jul_09_1452,60.0767958332,go-nogo,001,41,
logos/1.jpg,properties1.xlsx,frogs/ab5.jpg,0,0,400,l,0,1,1,0,0,16,16,4,,,['a'],0,[0.0337049887602916],2018_Jul_09_1452,60.0767958332,go-nogo,001,41,
logos/1.jpg,properties1.xlsx,frogs/ab3.jpg,0,0,400,l,0,1,1,0,0,17,17,2,,,['l'],0,[0.4004452128247067],2018_Jul_09_1452,60.0767958332,go-nogo,001,41,
logos/1.jpg,properties1.xlsx,frogs/ab56.jpg,0,0,400,l,0,1,1,0,0,18,18,55,,,['l'],0,[0.01707464568244177],2018_Jul_09_1452,60.0767958332,go-nogo,001,41,
logos/1.jpg,properties1.xlsx,frogs/ab36.jpg,0,0,400,l,0,1,1,0,0,19,19,35,,,['l'],0,[0.38361803401858197],2018_Jul_09_1452,60.0767958332,go-nogo,001,41,
logos/1.jpg,properties1.xlsx,frogs/ab39.jpg,0,0,400,l,0,1,1,0,0,20,20,38,,,['l'],0,[0.33356202686263714],2018_Jul_09_1452,60.0767958332,go-nogo,001,41,
logos/1.jpg,properties1.xlsx,frogs/ab38.jpg,0,0,400,l,0,1,1,0,0,21,21,37,,,['l'],0,[0.3336228980260785],2018_Jul_09_1452,60.0767958332,go-nogo,001,41,
logos/1.jpg,properties1.xlsx,frogs/ab51.jpg,0,0,400,l,0,1,1,0,0,22,22,50,,,['l'],0,[0.3171279506168503],2018_Jul_09_1452,60.0767958332,go-nogo,001,41,
logos/1.jpg,properties1.xlsx,frogs/ab18.jpg,0,0,400,l,0,1,1,0,0,23,23,17,,,['l'],0,[0.35021740107549704],2018_Jul_09_1452,60.0767958332,go-nogo,001,41,
logos/1.jpg,properties1.xlsx,frogs/ab33.jpg,0,0,400,l,0,1,1,0,0,24,24,32,,,['l'],0,[0.3504688501780038],2018_Jul_09_1452,60.0767958332,go-nogo,001,41,
logos/1.jpg,properties1.xlsx,frogs/ab49.jpg,0,0,400,l,0,1,1,0,0,25,25,48,,,['a'],0,[0.017198094676132314],2018_Jul_09_1452,60.0767958332,go-nogo,001,41,
logos/1.jpg,properties1.xlsx,frogs/ab19.jpg,0,0,400,l,0,1,1,0,0,26,26,18,,,['l'],0,[0.0005711649318982381],2018_Jul_09_1452,60.0767958332,go-nogo,001,41,
logos/1.jpg,properties1.xlsx,frogs/ab54.jpg,0,0,400,l,0,1,1,0,0,27,27,53,,,['l'],0,[0.4002284659727593],2018_Jul_09_1452,60.0767958332,go-nogo,001,41,
logos/1.jpg,properties1.xlsx,logos/1.jpg,0,0,400,a,0,1,1,0,0,28,28,81,,,['a'],0,[0.017157703528937418],2018_Jul_09_1452,60.0767958332,go-nogo,001,41,
logos/1.jpg,properties1.xlsx,frogs/ab22.jpg,0,0,400,l,0,1,1,0,0,29,29,21,,,['l'],0,[0.3170118971829652],2018_Jul_09_1452,60.0767958332,go-nogo,001,41,
logos/1.jpg,properties1.xlsx,logos/1.jpg,0,0,400,a,0,1,1,0,0,30,30,82,,,['a'],0,[0.11688173529546475],2018_Jul_09_1452,60.0767958332,go-nogo,001,41,
logos/1.jpg,properties1.xlsx,frogs/ab50.jpg,0,0,400,l,0,1,1,0,0,31,31,49,,,['l'],0,[0.3169959682818444],2018_Jul_09_1452,60.0767958332,go-nogo,001,41,
logos/1.jpg,properties1.xlsx,frogs/ab27.jpg,0,0,400,l,0,1,1,0,0,32,32,26,,,['l'],0,[0.3004538030545518],2018_Jul_09_1452,60.0767958332,go-nogo,001,41,
logos/1.jpg,properties1.xlsx,frogs/ab20.jpg,0,0,400,l,0,1,1,0,0,33,33,19,,,['l'],0,[0.33370709365044604],2018_Jul_09_1452,60.0767958332,go-nogo,001,41,
logos/1.jpg,properties1.xlsx,frogs/ab7.jpg,0,0,400,l,0,1,1,0,0,34,34,6,,,['l'],0,[0.36696550425403984],2018_Jul_09_1452,60.0767958332,go-nogo,001,41,
logos/1.jpg,properties1.xlsx,frogs/ab53.jpg,0,0,400,l,0,1,1,0,0,35,35,52,,,['l'],0,[0.6499811413159478],2018_Jul_09_1452,60.0767958332,go-nogo,001,41,
logos/1.jpg,properties1.xlsx,frogs/ab79.jpg,0,0,400,l,0,1,1,0,0,36,36,77,,,['l'],0,[0.4335545744106639],2018_Jul_09_1452,60.0767958332,go-nogo,001,41,
logos/1.jpg,properties1.xlsx,frogs/ab16.jpg,0,0,400,l,0,1,1,0,0,37,37,15,,,['l'],0,[0.16697130692773499],2018_Jul_09_1452,60.0767958332,go-nogo,001,41,
logos/1.jpg,properties1.xlsx,frogs/ab64.jpg,0,0,400,l,0,1,1,0,0,38,38,62,,,['l'],0,[0.1171109977112792],2018_Jul_09_1452,60.0767958332,go-nogo,001,41,
logos/1.jpg,properties1.xlsx,frogs/ab13.jpg,0,0,400,l,0,1,1,0,0,39,39,12,,,['l'],0,[0.017173063544760225],2018_Jul_09_1452,60.0767958332,go-nogo,001,41,
logos/1.jpg,properties1.xlsx,frogs/ab23.jpg,0,0,400,l,0,1,1,0,0,40,40,22,,,['l'],0,[0.017150307965493994],2018_Jul_09_1452,60.0767958332,go-nogo,001,41,
logos/1.jpg,properties1.xlsx,frogs/ab42.jpg,0,0,400,l,0,1,1,0,0,41,41,41,,,['l'],0,[0.01725327694657608],2018_Jul_09_1452,60.0767958332,go-nogo,001,41,
logos/1.jpg,properties1.xlsx,logos/1.jpg,0,0,400,a,0,1,1,0,0,42,42,89,,,['a'],0,[0.0336748376248579],2018_Jul_09_1452,60.0767958332,go-nogo,001,41,
logos/1.jpg,properties1.xlsx,frogs/ab29.jpg,0,0,400,l,0,1,1,0,0,43,43,28,,,['l'],0,[0.4003809283240116],2018_Jul_09_1452,60.0767958332,go-nogo,001,41,
logos/1.jpg,properties1.xlsx,frogs/ab47.jpg,0,0,400,l,0,1,1,0,0,44,44,46,,,['l'],0,[0.10041750791060622],2018_Jul_09_1452,60.0767958332,go-nogo,001,41,
logos/1.jpg,properties1.xlsx,frogs/ab24.jpg,0,0,400,l,0,1,1,0,0,45,45,23,,,['l'],0,[0.46703485186662874],2018_Jul_09_1452,60.0767958332,go-nogo,001,41,
logos/1.jpg,properties1.xlsx,logos/1.jpg,0,0,400,a,0,1,1,0,0,46,46,84,,,['l'],0,[0.3837585496985412],2018_Jul_09_1452,60.0767958332,go-nogo,001,41,
logos/1.jpg,properties1.xlsx,frogs/ab30.jpg,0,0,400,l,0,1,1,0,0,47,47,29,,,['l'],0,[0.3170943861405249],2018_Jul_09_1452,60.0767958332,go-nogo,001,41,
logos/1.jpg,properties1.xlsx,frogs/ab37.jpg,0,0,400,l,0,1,1,0,0,48,48,36,,,['l'],0,[0.3505849036118889],2018_Jul_09_1452,60.0767958332,go-nogo,001,41,
logos/1.jpg,properties1.xlsx,frogs/ab52.jpg,0,0,400,l,0,1,1,0,0,49,49,51,,,['l'],0,[0.5669210171072336],2018_Jul_09_1452,60.0767958332,go-nogo,001,41,
logos/1.jpg,properties1.xlsx,frogs/ab40.jpg,0,0,400,l,0,1,1,0,0,50,50,39,,,['l'],0,[0.3499033741391031],2018_Jul_09_1452,60.0767958332,go-nogo,001,41,
logos/1.jpg,properties1.xlsx,frogs/ab6.jpg,0,0,400,l,0,1,1,0,0,51,51,5,,,['l'],0,[0.08371150254606619],2018_Jul_09_1452,60.0767958332,go-nogo,001,41,
logos/1.jpg,properties1.xlsx,frogs/ab44.jpg,0,0,400,l,0,1,1,0,0,52,52,43,,,['l'],0,[0.6335049672597961],2018_Jul_09_1452,60.0767958332,go-nogo,001,41,
logos/1.jpg,properties1.xlsx,frogs/ab21.jpg,0,0,400,l,0,1,1,0,0,53,53,20,,,['l'],0,[0.8001212872150063],2018_Jul_09_1452,60.0767958332,go-nogo,001,41,
logos/1.jpg,properties1.xlsx,frogs/ab32.jpg,0,0,400,l,0,1,1,0,0,54,54,31,,,['l'],0,[0.0005660449278366286],2018_Jul_09_1452,60.0767958332,go-nogo,001,41,
logos/1.jpg,properties1.xlsx,frogs/ab74.jpg,0,0,400,l,0,1,1,0,0,55,55,72,,,['l'],0,[0.13381017640494974],2018_Jul_09_1452,60.0767958332,go-nogo,001,41,
logos/1.jpg,properties1.xlsx,frogs/ab71.jpg,0,0,400,l,0,1,1,0,0,56,56,69,,,['l'],0,[0.866755299630313],2018_Jul_09_1452,60.0767958332,go-nogo,001,41,
logos/1.jpg,properties1.xlsx,frogs/ab11.jpg,0,0,400,l,0,1,1,0,0,57,57,10,,,['l'],0,[0.3338993782599573],2018_Jul_09_1452,60.0767958332,go-nogo,001,41,
logos/1.jpg,properties1.xlsx,frogs/ab60.jpg,0,0,400,l,0,1,1,0,0,58,58,58,,,['l'],0,[0.3337048180947022],2018_Jul_09_1452,60.0767958332,go-nogo,001,41,
logos/1.jpg,properties1.xlsx,frogs/ab62.jpg,0,0,400,l,0,1,1,0,0,59,59,60,,,['l'],0,[0.3335330135014374],2018_Jul_09_1452,60.0767958332,go-nogo,001,41,
logos/1.jpg,properties1.xlsx,frogs/ab14.jpg,0,0,400,l,0,1,1,0,0,60,60,13,,,['l'],0,[0.3169333904515952],2018_Jul_09_1452,60.0767958332,go-nogo,001,41,
logos/1.jpg,properties1.xlsx,frogs/ab76.jpg,0,0,400,l,0,1,1,0,0,61,61,74,,,['l'],0,[0.3006199187511811],2018_Jul_09_1452,60.0767958332,go-nogo,001,41,
logos/1.jpg,properties1.xlsx,frogs/ab43.jpg,0,0,400,l,0,1,1,0,0,62,62,42,,,['l'],0,[0.3004947630870447],2018_Jul_09_1452,60.0767958332,go-nogo,001,41,
logos/1.jpg,properties1.xlsx,frogs/ab68.jpg,0,0,400,l,0,1,1,0,0,63,63,66,,,['l'],0,[0.3171342083987838],2018_Jul_09_1452,60.0767958332,go-nogo,001,41,
logos/1.jpg,properties1.xlsx,frogs/ab73.jpg,0,0,400,l,0,1,1,0,0,64,64,71,,,['l'],0,[0.23371852832860895],2018_Jul_09_1452,60.0767958332,go-nogo,001,41,
logos/1.jpg,properties1.xlsx,frogs/ab41.jpg,0,0,400,l,0,1,1,0,0,65,65,40,,,['l'],0,[0.4167939556646161],2018_Jul_09_1452,60.0767958332,go-nogo,001,41,
logos/1.jpg,properties1.xlsx,frogs/ab31.jpg,0,0,400,l,0,1,1,0,0,66,66,30,,,['l'],0,[0.23378281282930402],2018_Jul_09_1452,60.0767958332,go-nogo,001,41,
logos/1.jpg,properties1.xlsx,frogs/ab66.jpg,0,0,400,l,0,1,1,0,0,67,67,64,,,['l'],0,[0.09992940082884161],2018_Jul_09_1452,60.0767958332,go-nogo,001,41,
logos/1.jpg,properties1.xlsx,frogs/ab4.jpg,0,0,400,l,0,1,1,0,0,68,68,3,,,['l'],0,[1.0667233280473738],2018_Jul_09_1452,60.0767958332,go-nogo,001,41,
logos/1.jpg,properties1.xlsx,frogs/ab78.jpg,0,0,400,l,0,1,1,0,0,69,69,76,,,['l'],0,[0.45029016202533967],2018_Jul_09_1452,60.0767958332,go-nogo,001,41,
logos/1.jpg,properties1.xlsx,frogs/ab48.jpg,0,0,400,l,0,1,1,0,0,70,70,47,,,['l'],0,[0.33339591116600786],2018_Jul_09_1452,60.0767958332,go-nogo,001,41,
logos/1.jpg,properties1.xlsx,frogs/ab46.jpg,0,0,400,l,0,1,1,0,0,71,71,45,,,['l'],0,[0.0005694582650903612],2018_Jul_09_1452,60.0767958332,go-nogo,001,41,
logos/1.jpg,properties1.xlsx,frogs/ab26.jpg,0,0,400,l,0,1,1,0,0,72,72,25,,,['l'],0,[0.3671697355384822],2018_Jul_09_1452,60.0767958332,go-nogo,001,41,
logos/1.jpg,properties1.xlsx,frogs/ab80.jpg,0,0,400,l,0,1,1,0,0,73,73,78,,,['l'],0,[0.3336211913592706],2018_Jul_09_1452,60.0767958332,go-nogo,001,41,
logos/1.jpg,properties1.xlsx,frogs/ab17.jpg,0,0,400,l,0,1,1,0,0,74,74,16,,,['l'],0,[0.36699394872266566],2018_Jul_09_1452,60.0767958332,go-nogo,001,41,
logos/1.jpg,properties1.xlsx,frogs/ab10.jpg,0,0,400,l,0,1,1,0,0,75,75,9,,,['l'],0,[0.3502469833219948],2018_Jul_09_1452,60.0767958332,go-nogo,001,41,
logos/1.jpg,properties1.xlsx,frogs/ab12.jpg,0,0,400,l,0,1,1,0,0,76,76,11,,,['l'],0,[0.3169385104520188],2018_Jul_09_1452,60.0767958332,go-nogo,001,41,
logos/1.jpg,properties1.xlsx,frogs/ab1.jpg,0,0,400,l,0,1,1,0,0,77,77,0,,,['l'],0,[0.3170716305685346],2018_Jul_09_1452,60.0767958332,go-nogo,001,41,
logos/1.jpg,properties1.xlsx,logos/1.jpg,0,0,400,a,0,1,1,0,0,78,78,80,,,['a'],0,[0.13373792745551327],2018_Jul_09_1452,60.0767958332,go-nogo,001,41,
logos/1.jpg,properties1.xlsx,frogs/ab28.jpg,0,0,400,l,0,1,1,0,0,79,79,27,,,['l'],0,[0.3503977390064392],2018_Jul_09_1452,60.0767958332,go-nogo,001,41,
logos/1.jpg,properties1.xlsx,logos/1.jpg,0,0,400,a,0,1,1,0,0,80,80,85,,,['a'],0,[0.10042319680724177],2018_Jul_09_1452,60.0767958332,go-nogo,001,41,
logos/1.jpg,properties1.xlsx,frogs/ab9.jpg,0,0,400,l,0,1,1,0,0,81,81,8,,,['l'],0,[0.03376585992373293],2018_Jul_09_1452,60.0767958332,go-nogo,001,41,
logos/1.jpg,properties1.xlsx,frogs/ab75.jpg,0,0,400,l,0,1,1,0,0,82,82,73,,,['l'],0,[0.3504734012931294],2018_Jul_09_1452,60.0767958332,go-nogo,001,41,
logos/1.jpg,properties1.xlsx,frogs/ab35.jpg,0,0,400,l,0,1,1,0,0,83,83,34,,,['l'],0,[0.36719874889968196],2018_Jul_09_1452,60.0767958332,go-nogo,001,41,
logos/1.jpg,properties1.xlsx,frogs/ab55.jpg,0,0,400,l,0,1,1,0,0,84,84,54,,,['l'],0,[0.3835924339982739],2018_Jul_09_1452,60.0767958332,go-nogo,001,41,
logos/1.jpg,properties1.xlsx,frogs/ab69.jpg,0,0,400,l,0,1,1,0,0,85,85,67,,,['l'],0,[0.38286482448893366],2018_Jul_09_1452,60.0767958332,go-nogo,001,41,
logos/1.jpg,properties1.xlsx,frogs/ab81.jpg,0,0,400,l,0,1,1,0,0,86,86,79,,,['l'],0,[0.36712194883148186],2018_Jul_09_1452,60.0767958332,go-nogo,001,41,
logos/1.jpg,properties1.xlsx,logos/1.jpg,0,0,400,a,0,1,1,0,0,87,87,88,,,['a'],0,[0.03406964685200364],2018_Jul_09_1452,60.0767958332,go-nogo,001,41,
logos/1.jpg,properties1.xlsx,frogs/ab61.jpg,0,0,400,l,0,1,1,0,0,88,88,59,,,['l'],0,[0.3165533723476983],2018_Jul_09_1452,60.0767958332,go-nogo,001,41,
logos/1.jpg,properties1.xlsx,frogs/ab8.jpg,0,0,400,l,0,1,1,0,0,89,89,7,,,['l'],0,[0.3171080394895398],2018_Jul_09_1452,60.0767958332,go-nogo,001,41,
logos/1.jpg,properties1.xlsx,,,,,,0,1,1,0,,,,,,,,,,2018_Jul_09_1452,60.0767958332,go-nogo,001,41,
logos/3.jpg,properties3.xlsx,frogs/ab16.jpg,0,0,400,l,0,2,2,2,0,0,0,15,space,6.22443368485,['l'],0,[0.017184441330755362],2018_Jul_09_1452,60.0767958332,go-nogo,001,41,
logos/3.jpg,properties3.xlsx,frogs/ab79.jpg,0,0,400,l,0,2,2,2,0,1,1,77,,,['l'],0,[0.36691032198723406],2018_Jul_09_1452,60.0767958332,go-nogo,001,41,
logos/3.jpg,properties3.xlsx,frogs/ab18.jpg,0,0,400,l,0,2,2,2,0,2,2,17,,,['l'],0,[0.33371847144007916],2018_Jul_09_1452,60.0767958332,go-nogo,001,41,
logos/3.jpg,properties3.xlsx,frogs/ab4.jpg,0,0,400,l,0,2,2,2,0,3,3,3,,,['l'],0,[0.35028111668361817],2018_Jul_09_1452,60.0767958332,go-nogo,001,41,
logos/3.jpg,properties3.xlsx,logos/3.jpg,0,0,400,a,0,2,2,2,0,4,4,85,,,['l'],0,[0.33366499584008125],2018_Jul_09_1452,60.0767958332,go-nogo,001,41,
logos/3.jpg,properties3.xlsx,frogs/ab24.jpg,0,0,400,l,0,2,2,2,0,5,5,23,,,['l'],0,[0.30041454968522885],2018_Jul_09_1452,60.0767958332,go-nogo,001,41,
logos/3.jpg,properties3.xlsx,logos/3.jpg,0,0,400,a,0,2,2,2,0,6,6,89,,,['l'],0,[0.38381657641366473],2018_Jul_09_1452,60.0767958332,go-nogo,001,41,
logos/3.jpg,properties3.xlsx,frogs/ab81.jpg,0,0,400,l,0,2,2,2,0,7,7,79,,,['l'],0,[0.38358048731970484],2018_Jul_09_1452,60.0767958332,go-nogo,001,41,
logos/3.jpg,properties3.xlsx,frogs/ab34.jpg,0,0,400,l,0,2,2,2,0,8,8,33,,,['l'],0,[0.00019683572099893354],2018_Jul_09_1452,60.0767958332,go-nogo,001,41,
logos/3.jpg,properties3.xlsx,frogs/ab9.jpg,0,0,400,l,0,2,2,2,0,9,9,8,,,['l'],0,[0.03384891777022858],2018_Jul_09_1452,60.0767958332,go-nogo,001,41,
logos/3.jpg,properties3.xlsx,frogs/ab65.jpg,0,0,400,l,0,2,2,2,0,10,10,63,,,['l'],0,[0.8667040995896969],2018_Jul_09_1452,60.0767958332,go-nogo,001,41,
logos/3.jpg,properties3.xlsx,frogs/ab49.jpg,0,0,400,l,0,2,2,2,0,11,11,48,,,['l'],0,[0.38382283419559826],2018_Jul_09_1452,60.0767958332,go-nogo,001,41,
logos/3.jpg,properties3.xlsx,frogs/ab61.jpg,0,0,400,l,0,2,2,2,0,12,12,59,,,['l'],0,[0.1837973479523498],2018_Jul_09_1452,60.0767958332,go-nogo,001,41,
logos/3.jpg,properties3.xlsx,frogs/ab58.jpg,0,0,400,l,0,2,2,2,0,13,13,57,,,['l'],0,[1.0667017102496175],2018_Jul_09_1452,60.0767958332,go-nogo,001,41,
logos/3.jpg,properties3.xlsx,frogs/ab42.jpg,0,0,400,l,0,2,2,2,0,14,14,41,,,['l'],0,[0.4833892836031737],2018_Jul_09_1452,60.0767958332,go-nogo,001,41,
logos/3.jpg,properties3.xlsx,frogs/ab68.jpg,0,0,400,l,0,2,2,2,0,15,15,66,,,['l'],0,[0.38364647849084577],2018_Jul_09_1452,60.0767958332,go-nogo,001,41,
logos/3.jpg,properties3.xlsx,frogs/ab45.jpg,0,0,400,l,0,2,2,2,0,16,16,44,,,['l'],0,[0.3836197406890278],2018_Jul_09_1452,60.0767958332,go-nogo,001,41,
logos/3.jpg,properties3.xlsx,frogs/ab63.jpg,0,0,400,l,0,2,2,2,0,17,17,61,,,['l'],0,[0.3500262542438577],2018_Jul_09_1452,60.0767958332,go-nogo,001,41,
logos/3.jpg,properties3.xlsx,frogs/ab37.jpg,0,0,400,l,0,2,2,2,0,18,18,36,,,['l'],0,[0.3502947700289951],2018_Jul_09_1452,60.0767958332,go-nogo,001,41,
logos/3.jpg,properties3.xlsx,frogs/ab62.jpg,0,0,400,l,0,2,2,2,0,19,19,60,,,['l'],0,[0.4002534971041314],2018_Jul_09_1452,60.0767958332,go-nogo,001,41,
logos/3.jpg,properties3.xlsx,frogs/ab57.jpg,0,0,400,l,0,2,2,2,0,20,20,56,,,['l'],0,[0.36695469535698066],2018_Jul_09_1452,60.0767958332,go-nogo,001,41,
logos/3.jpg,properties3.xlsx,frogs/ab75.jpg,0,0,400,l,0,2,2,2,0,21,21,73,,,['l'],0,[0.3003838296608592],2018_Jul_09_1452,60.0767958332,go-nogo,001,41,
logos/3.jpg,properties3.xlsx,frogs/ab2.jpg,0,0,400,l,0,2,2,2,0,22,22,1,,,['l'],0,[0.36689382419353933],2018_Jul_09_1452,60.0767958332,go-nogo,001,41,
logos/3.jpg,properties3.xlsx,logos/3.jpg,0,0,400,a,0,2,2,2,0,23,23,80,,,['l'],0,[0.35035734785924433],2018_Jul_09_1452,60.0767958332,go-nogo,001,41,
logos/3.jpg,properties3.xlsx,frogs/ab26.jpg,0,0,400,l,0,2,2,2,0,24,24,25,,,['l'],0,[0.26683585436694557],2018_Jul_09_1452,60.0767958332,go-nogo,001,41,
logos/3.jpg,properties3.xlsx,frogs/ab14.jpg,0,0,400,l,0,2,2,2,0,25,25,13,,,['l'],0,[0.21661031817347975],2018_Jul_09_1452,60.0767958332,go-nogo,001,41,
logos/3.jpg,properties3.xlsx,frogs/ab54.jpg,0,0,400,l,0,2,2,2,0,26,26,53,,,['l'],0,[0.33375146702383063],2018_Jul_09_1452,60.0767958332,go-nogo,001,41,
logos/3.jpg,properties3.xlsx,frogs/ab38.jpg,0,0,400,l,0,2,2,2,0,27,27,37,,,['l'],0,[0.3169720749283442],2018_Jul_09_1452,60.0767958332,go-nogo,001,41,
logos/3.jpg,properties3.xlsx,frogs/ab22.jpg,0,0,400,l,0,2,2,2,0,28,28,21,,,['l'],0,[0.3003781407678616],2018_Jul_09_1452,60.0767958332,go-nogo,001,41,
logos/3.jpg,properties3.xlsx,frogs/ab74.jpg,0,0,400,l,0,2,2,2,0,29,29,72,,,['l'],0,[0.3503903434429958],2018_Jul_09_1452,60.0767958332,go-nogo,001,41,
logos/3.jpg,properties3.xlsx,frogs/ab73.jpg,0,0,400,l,0,2,2,2,0,30,30,71,,,['l'],0,[0.3501855432696175],2018_Jul_09_1452,60.0767958332,go-nogo,001,41,
logos/3.jpg,properties3.xlsx,frogs/ab33.jpg,0,0,400,l,0,2,2,2,0,31,31,32,,,['l'],0,[0.3504256145861291],2018_Jul_09_1452,60.0767958332,go-nogo,001,41,
logos/3.jpg,properties3.xlsx,frogs/ab46.jpg,0,0,400,l,0,2,2,2,0,32,32,45,,,['l'],0,[0.3836095006809046],2018_Jul_09_1452,60.0767958332,go-nogo,001,41,
logos/3.jpg,properties3.xlsx,logos/3.jpg,0,0,400,a,0,2,2,2,0,33,33,87,,,['a'],0,[0.03383583331742557],2018_Jul_09_1452,60.0767958332,go-nogo,001,41,
logos/3.jpg,properties3.xlsx,logos/3.jpg,0,0,400,a,0,2,2,2,0,34,34,86,,,['l'],0,[0.30027346512360964],2018_Jul_09_1452,60.0767958332,go-nogo,001,41,
logos/3.jpg,properties3.xlsx,frogs/ab36.jpg,0,0,400,l,0,2,2,2,0,35,35,35,,,['l'],0,[0.017167943537060637],2018_Jul_09_1452,60.0767958332,go-nogo,001,41,
logos/3.jpg,properties3.xlsx,frogs/ab10.jpg,0,0,400,l,0,2,2,2,0,36,36,9,,,['l'],0,[0.3173611952588544],2018_Jul_09_1452,60.0767958332,go-nogo,001,41,
logos/3.jpg,properties3.xlsx,frogs/ab27.jpg,0,0,400,l,0,2,2,2,0,37,37,26,,,['l'],0,[0.28366018872111454],2018_Jul_09_1452,60.0767958332,go-nogo,001,41,
logos/3.jpg,properties3.xlsx,logos/3.jpg,0,0,400,a,0,2,2,2,0,38,38,84,,,['l'],0,[0.35033459228725405],2018_Jul_09_1452,60.0767958332,go-nogo,001,41,
logos/3.jpg,properties3.xlsx,frogs/ab12.jpg,0,0,400,l,0,2,2,2,0,39,39,11,,,['l'],0,[0.25036593809272745],2018_Jul_09_1452,60.0767958332,go-nogo,001,41,
logos/3.jpg,properties3.xlsx,frogs/ab56.jpg,0,0,400,l,0,2,2,2,0,40,40,55,,,['l'],0,[0.2835560819694365],2018_Jul_09_1452,60.0767958332,go-nogo,001,41,
logos/3.jpg,properties3.xlsx,frogs/ab3.jpg,0,0,400,l,0,2,2,2,0,41,41,2,,,['l'],0,[0.31816219149550307],2018_Jul_09_1452,60.0767958332,go-nogo,001,41,
logos/3.jpg,properties3.xlsx,frogs/ab78.jpg,0,0,400,l,0,2,2,2,0,42,42,76,,,['l'],0,[0.20052667778145405],2018_Jul_09_1452,60.0767958332,go-nogo,001,41,
logos/3.jpg,properties3.xlsx,frogs/ab5.jpg,0,0,400,l,0,2,2,2,0,43,43,4,,,['l'],0,[0.30033604295385885],2018_Jul_09_1452,60.0767958332,go-nogo,001,41,
logos/3.jpg,properties3.xlsx,frogs/ab66.jpg,0,0,400,l,0,2,2,2,0,44,44,64,,,['l'],0,[0.2670719434572675],2018_Jul_09_1452,60.0767958332,go-nogo,001,41,
logos/3.jpg,properties3.xlsx,frogs/ab53.jpg,0,0,400,l,0,2,2,2,0,45,45,52,,,['l'],0,[0.2671345212875167],2018_Jul_09_1452,60.0767958332,go-nogo,001,41,
logos/3.jpg,properties3.xlsx,frogs/ab64.jpg,0,0,400,l,0,2,2,2,0,46,46,62,,,['l'],0,[0.3503761212086829],2018_Jul_09_1452,60.0767958332,go-nogo,001,41,
logos/3.jpg,properties3.xlsx,logos/3.jpg,0,0,400,a,0,2,2,2,0,47,47,81,,,['l'],0,[0.2837665710358124],2018_Jul_09_1452,60.0767958332,go-nogo,001,41,
logos/3.jpg,properties3.xlsx,frogs/ab76.jpg,0,0,400,l,0,2,2,2,0,48,48,74,,,['l'],0,[0.3339192893872678],2018_Jul_09_1452,60.0767958332,go-nogo,001,41,
logos/3.jpg,properties3.xlsx,logos/3.jpg,0,0,400,a,0,2,2,2,0,49,49,88,,,['l'],0,[0.31701758607960073],2018_Jul_09_1452,60.0767958332,go-nogo,001,41,
logos/3.jpg,properties3.xlsx,frogs/ab80.jpg,0,0,400,l,0,2,2,2,0,50,50,78,,,['l'],0,[0.23373161278504995],2018_Jul_09_1452,60.0767958332,go-nogo,001,41,
logos/3.jpg,properties3.xlsx,frogs/ab30.jpg,0,0,400,l,0,2,2,2,0,51,51,29,,,['l'],0,[0.26712428127939347],2018_Jul_09_1452,60.0767958332,go-nogo,001,41,
logos/3.jpg,properties3.xlsx,frogs/ab40.jpg,0,0,400,l,0,2,2,2,0,52,52,39,,,['l'],0,[0.31701986163534457],2018_Jul_09_1452,60.0767958332,go-nogo,001,41,
logos/3.jpg,properties3.xlsx,frogs/ab21.jpg,0,0,400,l,0,2,2,2,0,53,53,20,,,['l'],0,[0.3004054474586155],2018_Jul_09_1452,60.0767958332,go-nogo,001,41,
logos/3.jpg,properties3.xlsx,logos/3.jpg,0,0,400,a,0,2,2,2,0,54,54,82,,,['l'],0,[0.3669734687064192],2018_Jul_09_1452,60.0767958332,go-nogo,001,41,
logos/3.jpg,properties3.xlsx,frogs/ab20.jpg,0,0,400,l,0,2,2,2,0,55,55,19,,,['l'],0,[0.250384711442166],2018_Jul_09_1452,60.0767958332,go-nogo,001,41,
logos/3.jpg,properties3.xlsx,frogs/ab13.jpg,0,0,400,l,0,2,2,2,0,56,56,12,,,['l'],0,[0.2671345212875167],2018_Jul_09_1452,60.0767958332,go-nogo,001,41,
logos/3.jpg,properties3.xlsx,logos/3.jpg,0,0,400,a,0,2,2,2,0,57,57,83,,,['l'],0,[0.38361006956984056],2018_Jul_09_1452,60.0767958332,go-nogo,001,41,
logos/3.jpg,properties3.xlsx,frogs/ab8.jpg,0,0,400,l,0,2,2,2,0,58,58,7,,,['l'],0,[0.26709185458457796],2018_Jul_09_1452,60.0767958332,go-nogo,001,41,
logos/3.jpg,properties3.xlsx,frogs/ab6.jpg,0,0,400,l,0,2,2,2,0,59,59,5,,,['l'],0,[0.3167820658782148],2018_Jul_09_1452,60.0767958332,go-nogo,001,41,
logos/3.jpg,properties3.xlsx,frogs/ab43.jpg,0,0,400,l,0,2,2,2,0,60,60,42,,,['l'],0,[0.29997309153259266],2018_Jul_09_1452,60.0767958332,go-nogo,001,41,
logos/3.jpg,properties3.xlsx,frogs/ab55.jpg,0,0,400,l,0,2,2,2,0,61,61,54,,,['l'],0,[0.28378363771844306],2018_Jul_09_1452,60.0767958332,go-nogo,001,41,
logos/3.jpg,properties3.xlsx,frogs/ab35.jpg,0,0,400,l,0,2,2,2,0,62,62,34,,,['l'],0,[0.26698092115839245],2018_Jul_09_1452,60.0767958332,go-nogo,001,41,
logos/3.jpg,properties3.xlsx,frogs/ab71.jpg,0,0,400,l,0,2,2,2,0,63,63,69,,,['l'],0,[0.23376972837286303],2018_Jul_09_1452,60.0767958332,go-nogo,001,41,
logos/3.jpg,properties3.xlsx,frogs/ab47.jpg,0,0,400,l,0,2,2,2,0,64,64,46,,,['l'],0,[0.3667299840526539],2018_Jul_09_1452,60.0767958332,go-nogo,001,41,
logos/3.jpg,properties3.xlsx,frogs/ab51.jpg,0,0,400,l,0,2,2,2,0,65,65,50,,,['l'],0,[0.31712681283897837],2018_Jul_09_1452,60.0767958332,go-nogo,001,41,
logos/3.jpg,properties3.xlsx,frogs/ab60.jpg,0,0,400,l,0,2,2,2,0,66,66,58,,,['l'],0,[0.28367042873287573],2018_Jul_09_1452,60.0767958332,go-nogo,001,41,
logos/3.jpg,properties3.xlsx,frogs/ab31.jpg,0,0,400,l,0,2,2,2,0,67,67,30,,,['l'],0,[0.017236210263945395],2018_Jul_09_1452,60.0767958332,go-nogo,001,41,
logos/3.jpg,properties3.xlsx,frogs/ab1.jpg,0,0,400,l,0,2,2,2,0,68,68,0,,,['l'],0,[0.1838678902349784],2018_Jul_09_1452,60.0767958332,go-nogo,001,41,
logos/3.jpg,properties3.xlsx,frogs/ab67.jpg,0,0,400,l,0,2,2,2,0,69,69,65,,,['l'],0,[0.2837819310479972],2018_Jul_09_1452,60.0767958332,go-nogo,001,41,
logos/3.jpg,properties3.xlsx,frogs/ab23.jpg,0,0,400,l,0,2,2,2,0,70,70,22,,,['l'],0,[0.2671851524391968],2018_Jul_09_1452,60.0767958332,go-nogo,001,41,
logos/3.jpg,properties3.xlsx,frogs/ab52.jpg,0,0,400,l,0,2,2,2,0,71,71,51,,,['a'],0,[0.0005649071499647107],2018_Jul_09_1452,60.0767958332,go-nogo,001,41,
logos/3.jpg,properties3.xlsx,frogs/ab70.jpg,0,0,400,l,0,2,2,2,0,72,72,68,,,['l'],0,[0.26704634343695943],2018_Jul_09_1452,60.0767958332,go-nogo,001,41,
logos/3.jpg,properties3.xlsx,frogs/ab32.jpg,0,0,400,l,0,2,2,2,0,73,73,31,,,['l'],0,[0.18378369460697286],2018_Jul_09_1452,60.0767958332,go-nogo,001,41,
logos/3.jpg,properties3.xlsx,frogs/ab44.jpg,0,0,400,l,0,2,2,2,0,74,74,43,,,['l'],0,[0.4168224001332419],2018_Jul_09_1452,60.0767958332,go-nogo,001,41,
logos/3.jpg,properties3.xlsx,frogs/ab41.jpg,0,0,400,l,0,2,2,2,0,75,75,40,,,['l'],0,[0.16721194713318255],2018_Jul_09_1452,60.0767958332,go-nogo,001,41,
logos/3.jpg,properties3.xlsx,frogs/ab50.jpg,0,0,400,l,0,2,2,2,0,76,76,49,,,['l'],0,[0.2004527221652097],2018_Jul_09_1452,60.0767958332,go-nogo,001,41,
logos/3.jpg,properties3.xlsx,frogs/ab19.jpg,0,0,400,l,0,2,2,2,0,77,77,18,,,['l'],0,[0.35015197879693005],2018_Jul_09_1452,60.0767958332,go-nogo,001,41,
logos/3.jpg,properties3.xlsx,frogs/ab48.jpg,0,0,400,l,0,2,2,2,0,78,78,47,,,['l'],0,[0.26709583681076765],2018_Jul_09_1452,60.0767958332,go-nogo,001,41,
logos/3.jpg,properties3.xlsx,frogs/ab25.jpg,0,0,400,l,0,2,2,2,0,79,79,24,,,['l'],0,[0.13379197194444714],2018_Jul_09_1452,60.0767958332,go-nogo,001,41,
logos/3.jpg,properties3.xlsx,frogs/ab28.jpg,0,0,400,l,0,2,2,2,0,80,80,27,,,['l'],0,[0.2668904677448154],2018_Jul_09_1452,60.0767958332,go-nogo,001,41,
logos/3.jpg,properties3.xlsx,frogs/ab69.jpg,0,0,400,l,0,2,2,2,0,81,81,67,,,['l'],0,[0.31707106167959864],2018_Jul_09_1452,60.0767958332,go-nogo,001,41,
logos/3.jpg,properties3.xlsx,frogs/ab77.jpg,0,0,400,l,0,2,2,2,0,82,82,75,,,['l'],0,[0.25011278231977485],2018_Jul_09_1452,60.0767958332,go-nogo,001,41,
logos/3.jpg,properties3.xlsx,frogs/ab39.jpg,0,0,400,l,0,2,2,2,0,83,83,38,,,['l'],0,[0.3002808606834151],2018_Jul_09_1452,60.0767958332,go-nogo,001,41,
logos/3.jpg,properties3.xlsx,frogs/ab15.jpg,0,0,400,l,0,2,2,2,0,84,84,14,,,['l'],0,[0.2668734010658227],2018_Jul_09_1452,60.0767958332,go-nogo,001,41,
logos/3.jpg,properties3.xlsx,frogs/ab29.jpg,0,0,400,l,0,2,2,2,0,85,85,28,,,['l'],0,[0.25038698699790984],2018_Jul_09_1452,60.0767958332,go-nogo,001,41,
logos/3.jpg,properties3.xlsx,frogs/ab17.jpg,0,0,400,l,0,2,2,2,0,86,86,16,,,['l'],0,[0.3004202385818644],2018_Jul_09_1452,60.0767958332,go-nogo,001,41,
logos/3.jpg,properties3.xlsx,frogs/ab11.jpg,0,0,400,l,0,2,2,2,0,87,87,10,,,['l'],0,[0.3669034953127266],2018_Jul_09_1452,60.0767958332,go-nogo,001,41,
logos/3.jpg,properties3.xlsx,frogs/ab72.jpg,0,0,400,l,0,2,2,2,0,88,88,70,,,['l'],0,[0.2837625888096227],2018_Jul_09_1452,60.0767958332,go-nogo,001,41,
logos/3.jpg,properties3.xlsx,frogs/ab7.jpg,0,0,400,l,0,2,2,2,0,89,89,6,,,['l'],0,[0.25046776928866166],2018_Jul_09_1452,60.0767958332,go-nogo,001,41,
logos/3.jpg,properties3.xlsx,,,,,,0,2,2,2,,,,,,,,,,2018_Jul_09_1452,60.0767958332,go-nogo,001,41,
logos/4.jpg,properties4.xlsx,frogs/ab30.jpg,0,0,400,l,0,3,3,3,0,0,0,29,space,8.48912198183,['l'],0,[0.4001920570517541],2018_Jul_09_1452,60.0767958332,go-nogo,001,41,
logos/4.jpg,properties4.xlsx,logos/4.jpg,0,0,400,a,0,3,3,3,0,1,1,89,,,['a'],0,[0.40051859955565305],2018_Jul_09_1452,60.0767958332,go-nogo,001,41,
logos/4.jpg,properties4.xlsx,frogs/ab25.jpg,0,0,400,l,0,3,3,3,0,2,2,24,,,['l'],0,[0.2671527257480193],2018_Jul_09_1452,60.0767958332,go-nogo,001,41,
logos/4.jpg,properties4.xlsx,frogs/ab13.jpg,0,0,400,l,0,3,3,3,0,3,3,12,,,['l'],0,[0.3338197337470774],2018_Jul_09_1452,60.0767958332,go-nogo,001,41,
logos/4.jpg,properties4.xlsx,frogs/ab51.jpg,0,0,400,l,0,3,3,3,0,4,4,50,,,['l'],0,[0.28372788655906334],2018_Jul_09_1452,60.0767958332,go-nogo,001,41,
logos/4.jpg,properties4.xlsx,frogs/ab50.jpg,0,0,400,l,0,3,3,3,0,5,5,49,,,['l'],0,[0.3003565229701053],2018_Jul_09_1452,60.0767958332,go-nogo,001,41,
logos/4.jpg,properties4.xlsx,frogs/ab52.jpg,0,0,400,l,0,3,3,3,0,6,6,51,,,['l'],0,[0.3168105103432026],2018_Jul_09_1452,60.0767958332,go-nogo,001,41,
logos/4.jpg,properties4.xlsx,frogs/ab60.jpg,0,0,400,l,0,3,3,3,0,7,7,58,,,['l'],0,[0.26688819218907156],2018_Jul_09_1452,60.0767958332,go-nogo,001,41,
logos/4.jpg,properties4.xlsx,frogs/ab35.jpg,0,0,400,l,0,3,3,3,0,8,8,34,,,['l'],0,[0.28336095291160746],2018_Jul_09_1452,60.0767958332,go-nogo,001,41,
logos/4.jpg,properties4.xlsx,frogs/ab22.jpg,0,0,400,l,0,3,3,3,0,9,9,21,,,['l'],0,[0.2675543616460345],2018_Jul_09_1452,60.0767958332,go-nogo,001,41,
logos/4.jpg,properties4.xlsx,frogs/ab28.jpg,0,0,400,l,0,3,3,3,0,10,10,27,,,['l'],0,[0.2671072145967628],2018_Jul_09_1452,60.0767958332,go-nogo,001,41,
logos/4.jpg,properties4.xlsx,frogs/ab41.jpg,0,0,400,l,0,3,3,3,0,11,11,40,,,['l'],0,[0.26709583681076765],2018_Jul_09_1452,60.0767958332,go-nogo,001,41,
logos/4.jpg,properties4.xlsx,logos/4.jpg,0,0,400,a,0,3,3,3,0,12,12,86,,,['a'],0,[0.08377180481693358],2018_Jul_09_1452,60.0767958332,go-nogo,001,41,
logos/4.jpg,properties4.xlsx,frogs/ab67.jpg,0,0,400,l,0,3,3,3,0,13,13,65,,,['l'],0,[0.20048116663019755],2018_Jul_09_1452,60.0767958332,go-nogo,001,41,
logos/4.jpg,properties4.xlsx,frogs/ab12.jpg,0,0,400,l,0,3,3,3,0,14,14,11,,,['l'],0,[0.25044558260196936],2018_Jul_09_1452,60.0767958332,go-nogo,001,41,
logos/4.jpg,properties4.xlsx,frogs/ab36.jpg,0,0,400,l,0,3,3,3,0,15,15,35,,,['l'],0,[0.3335455290689424],2018_Jul_09_1452,60.0767958332,go-nogo,001,41,
logos/4.jpg,properties4.xlsx,frogs/ab54.jpg,0,0,400,l,0,3,3,3,0,16,16,53,,,['l'],0,[0.2837142332136864],2018_Jul_09_1452,60.0767958332,go-nogo,001,41,
logos/4.jpg,properties4.xlsx,frogs/ab29.jpg,0,0,400,l,0,3,3,3,0,17,17,28,,,['l'],0,[0.30039975856198],2018_Jul_09_1452,60.0767958332,go-nogo,001,41,
logos/4.jpg,properties4.xlsx,frogs/ab71.jpg,0,0,400,l,0,3,3,3,0,18,18,69,,,['l'],0,[0.3002728962346737],2018_Jul_09_1452,60.0767958332,go-nogo,001,41,
logos/4.jpg,properties4.xlsx,frogs/ab65.jpg,0,0,400,l,0,3,3,3,0,19,19,63,,,['l'],0,[0.30034002517641056],2018_Jul_09_1452,60.0767958332,go-nogo,001,41,
logos/4.jpg,properties4.xlsx,frogs/ab23.jpg,0,0,400,l,0,3,3,3,0,20,20,22,,,['l'],0,[0.3003525407439156],2018_Jul_09_1452,60.0767958332,go-nogo,001,41,
logos/4.jpg,properties4.xlsx,frogs/ab58.jpg,0,0,400,l,0,3,3,3,0,21,21,57,,,['l'],0,[0.5668965548611595],2018_Jul_09_1452,60.0767958332,go-nogo,001,41,
logos/4.jpg,properties4.xlsx,frogs/ab81.jpg,0,0,400,l,0,3,3,3,0,22,22,79,,,['l'],0,[0.3670104465163604],2018_Jul_09_1452,60.0767958332,go-nogo,001,41,
logos/4.jpg,properties4.xlsx,frogs/ab68.jpg,0,0,400,l,0,3,3,3,0,23,23,66,,,['l'],0,[0.30152103952059406],2018_Jul_09_1452,60.0767958332,go-nogo,001,41,
logos/4.jpg,properties4.xlsx,frogs/ab5.jpg,0,0,400,l,0,3,3,3,0,24,24,4,,,['l'],0,[0.36709691770010977],2018_Jul_09_1452,60.0767958332,go-nogo,001,41,
logos/4.jpg,properties4.xlsx,frogs/ab63.jpg,0,0,400,l,0,3,3,3,0,25,25,61,,,['l'],0,[0.28381890886157635],2018_Jul_09_1452,60.0767958332,go-nogo,001,41,
logos/4.jpg,properties4.xlsx,frogs/ab17.jpg,0,0,400,l,0,3,3,3,0,26,26,16,,,['l'],0,[0.3170483061039704],2018_Jul_09_1452,60.0767958332,go-nogo,001,41,
logos/4.jpg,properties4.xlsx,frogs/ab18.jpg,0,0,400,l,0,3,3,3,0,27,27,17,,,['l'],0,[0.31704375498884474],2018_Jul_09_1452,60.0767958332,go-nogo,001,41,
logos/4.jpg,properties4.xlsx,frogs/ab40.jpg,0,0,400,l,0,3,3,3,0,28,28,39,,,['l'],0,[0.36697574426216306],2018_Jul_09_1452,60.0767958332,go-nogo,001,41,
logos/4.jpg,properties4.xlsx,logos/4.jpg,0,0,400,a,0,3,3,3,0,29,29,87,,,['a'],0,[0.08301176861277781],2018_Jul_09_1452,60.0767958332,go-nogo,001,41,
logos/4.jpg,properties4.xlsx,frogs/ab31.jpg,0,0,400,l,0,3,3,3,0,30,30,30,,,['l'],0,[0.283771122150938],2018_Jul_09_1452,60.0767958332,go-nogo,001,41,
logos/4.jpg,properties4.xlsx,frogs/ab34.jpg,0,0,400,l,0,3,3,3,0,31,31,33,,,['l'],0,[0.3171125906010275],2018_Jul_09_1452,60.0767958332,go-nogo,001,41,
logos/4.jpg,properties4.xlsx,frogs/ab74.jpg,0,0,400,l,0,3,3,3,0,32,32,72,,,['l'],0,[0.2834656285594974],2018_Jul_09_1452,60.0767958332,go-nogo,001,41,
logos/4.jpg,properties4.xlsx,logos/4.jpg,0,0,400,a,0,3,3,3,0,33,33,80,,,['l'],0,[0.34991873415128794],2018_Jul_09_1452,60.0767958332,go-nogo,001,41,
logos/4.jpg,properties4.xlsx,frogs/ab24.jpg,0,0,400,l,0,3,3,3,0,34,34,23,,,['l'],0,[0.36710260659310734],2018_Jul_09_1452,60.0767958332,go-nogo,001,41,
logos/4.jpg,properties4.xlsx,frogs/ab47.jpg,0,0,400,l,0,3,3,3,0,35,35,46,,,['l'],0,[0.3002336428653507],2018_Jul_09_1452,60.0767958332,go-nogo,001,41,
logos/4.jpg,properties4.xlsx,frogs/ab55.jpg,0,0,400,l,0,3,3,3,0,36,36,54,,,['l'],0,[0.3671151221606124],2018_Jul_09_1452,60.0767958332,go-nogo,001,41,
logos/4.jpg,properties4.xlsx,frogs/ab38.jpg,0,0,400,l,0,3,3,3,0,37,37,37,,,['l'],0,[0.0504070119059179],2018_Jul_09_1452,60.0767958332,go-nogo,001,41,
logos/4.jpg,properties4.xlsx,frogs/ab2.jpg,0,0,400,l,0,3,3,3,0,38,38,1,,,['l'],0,[0.100602965849248],2018_Jul_09_1452,60.0767958332,go-nogo,001,41,
logos/4.jpg,properties4.xlsx,frogs/ab27.jpg,0,0,400,l,0,3,3,3,0,39,39,26,,,['l'],0,[0.33365361805044813],2018_Jul_09_1452,60.0767958332,go-nogo,001,41,
logos/4.jpg,properties4.xlsx,frogs/ab39.jpg,0,0,400,l,0,3,3,3,0,40,40,38,,,['l'],0,[0.3167439502867637],2018_Jul_09_1452,60.0767958332,go-nogo,001,41,
logos/4.jpg,properties4.xlsx,frogs/ab69.jpg,0,0,400,l,0,3,3,3,0,41,41,67,,,['l'],0,[0.2838291488660616],2018_Jul_09_1452,60.0767958332,go-nogo,001,41,
logos/4.jpg,properties4.xlsx,frogs/ab37.jpg,0,0,400,l,0,3,3,3,0,42,42,36,,,['l'],0,[0.30036448742248467],2018_Jul_09_1452,60.0767958332,go-nogo,001,41,
logos/4.jpg,properties4.xlsx,frogs/ab7.jpg,0,0,400,l,0,3,3,3,0,43,43,6,,,['l'],0,[0.26706739234214183],2018_Jul_09_1452,60.0767958332,go-nogo,001,41,
logos/4.jpg,properties4.xlsx,frogs/ab1.jpg,0,0,400,l,0,3,3,3,0,44,44,0,,,['l'],0,[0.3001215716612933],2018_Jul_09_1452,60.0767958332,go-nogo,001,41,
logos/4.jpg,properties4.xlsx,frogs/ab64.jpg,0,0,400,l,0,3,3,3,0,45,45,62,,,['l'],0,[0.33352448016376],2018_Jul_09_1452,60.0767958332,go-nogo,001,41,
logos/4.jpg,properties4.xlsx,frogs/ab11.jpg,0,0,400,l,0,3,3,3,0,46,46,10,,,['l'],0,[0.2835953353351215],2018_Jul_09_1452,60.0767958332,go-nogo,001,41,
logos/4.jpg,properties4.xlsx,frogs/ab21.jpg,0,0,400,l,0,3,3,3,0,47,47,20,,,['l'],0,[0.30037415854167193],2018_Jul_09_1452,60.0767958332,go-nogo,001,41,
logos/4.jpg,properties4.xlsx,frogs/ab70.jpg,0,0,400,l,0,3,3,3,0,48,48,68,,,['l'],0,[0.2837779488254455],2018_Jul_09_1452,60.0767958332,go-nogo,001,41,
logos/4.jpg,properties4.xlsx,frogs/ab48.jpg,0,0,400,l,0,3,3,3,0,49,49,47,,,['l'],0,[0.3503914812245057],2018_Jul_09_1452,60.0767958332,go-nogo,001,41,
logos/4.jpg,properties4.xlsx,frogs/ab49.jpg,0,0,400,l,0,3,3,3,0,50,50,48,,,['l'],0,[0.2503625247554737],2018_Jul_09_1452,60.0767958332,go-nogo,001,41,
logos/4.jpg,properties4.xlsx,frogs/ab43.jpg,0,0,400,l,0,3,3,3,0,51,51,42,,,['l'],0,[0.26708957902519614],2018_Jul_09_1452,60.0767958332,go-nogo,001,41,
logos/4.jpg,properties4.xlsx,frogs/ab72.jpg,0,0,400,l,0,3,3,3,0,52,52,70,,,['l'],0,[0.2838837622475694],2018_Jul_09_1452,60.0767958332,go-nogo,001,41,
logos/4.jpg,properties4.xlsx,frogs/ab62.jpg,0,0,400,l,0,3,3,3,0,53,53,60,,,['l'],0,[0.23372876833673217],2018_Jul_09_1452,60.0767958332,go-nogo,001,41,
logos/4.jpg,properties4.xlsx,frogs/ab56.jpg,0,0,400,l,0,3,3,3,0,54,54,55,,,['l'],0,[0.250411449240346],2018_Jul_09_1452,60.0767958332,go-nogo,001,41,
logos/4.jpg,properties4.xlsx,logos/4.jpg,0,0,400,a,0,3,3,3,0,55,55,88,,,['a'],0,[0.06711529282620177],2018_Jul_09_1452,60.0767958332,go-nogo,001,41,
logos/4.jpg,properties4.xlsx,frogs/ab76.jpg,0,0,400,l,0,3,3,3,0,56,56,74,,,['l'],0,[0.1166422328678891],2018_Jul_09_1452,60.0767958332,go-nogo,001,41,
logos/4.jpg,properties4.xlsx,frogs/ab66.jpg,0,0,400,l,0,3,3,3,0,57,57,64,,,['l'],0,[0.01721459246982704],2018_Jul_09_1452,60.0767958332,go-nogo,001,41,
logos/4.jpg,properties4.xlsx,frogs/ab46.jpg,0,0,400,l,0,3,3,3,0,58,58,45,,,['l'],0,[0.05050713643504423],2018_Jul_09_1452,60.0767958332,go-nogo,001,41,
logos/4.jpg,properties4.xlsx,frogs/ab26.jpg,0,0,400,l,0,3,3,3,0,59,59,25,,,['l'],0,[0.15042117724806303],2018_Jul_09_1452,60.0767958332,go-nogo,001,41,
logos/4.jpg,properties4.xlsx,frogs/ab57.jpg,0,0,400,l,0,3,3,3,0,60,60,56,,,['l'],0,[0.08380309373387718],2018_Jul_09_1452,60.0767958332,go-nogo,001,41,
logos/4.jpg,properties4.xlsx,frogs/ab14.jpg,0,0,400,l,0,3,3,3,0,61,61,13,,,['l'],0,[0.21690500287149916],2018_Jul_09_1452,60.0767958332,go-nogo,001,41,
logos/4.jpg,properties4.xlsx,frogs/ab53.jpg,0,0,400,l,0,3,3,3,0,62,62,52,,,['l'],0,[0.05026820289276657],2018_Jul_09_1452,60.0767958332,go-nogo,001,41,
logos/4.jpg,properties4.xlsx,frogs/ab42.jpg,0,0,400,l,0,3,3,3,0,63,63,41,,,['l'],0,[0.18383489465122693],2018_Jul_09_1452,60.0767958332,go-nogo,001,41,
logos/4.jpg,properties4.xlsx,frogs/ab32.jpg,0,0,400,l,0,3,3,3,0,64,64,31,,,['l'],0,[0.28379956661956385],2018_Jul_09_1452,60.0767958332,go-nogo,001,41,
logos/4.jpg,properties4.xlsx,frogs/ab33.jpg,0,0,400,l,0,3,3,3,0,65,65,32,,,['l'],0,[0.0005723027097701561],2018_Jul_09_1452,60.0767958332,go-nogo,001,41,
logos/4.jpg,properties4.xlsx,frogs/ab6.jpg,0,0,400,l,0,3,3,3,0,66,66,5,,,['l'],0,[0.333681493630138],2018_Jul_09_1452,60.0767958332,go-nogo,001,41,
logos/4.jpg,properties4.xlsx,logos/4.jpg,0,0,400,a,0,3,3,3,0,67,67,81,,,['a'],0,[0.017149739080196014],2018_Jul_09_1452,60.0767958332,go-nogo,001,41,
logos/4.jpg,properties4.xlsx,frogs/ab20.jpg,0,0,400,l,0,3,3,3,0,68,68,19,,,['l'],0,[0.28375234880149947],2018_Jul_09_1452,60.0767958332,go-nogo,001,41,
logos/4.jpg,properties4.xlsx,frogs/ab78.jpg,0,0,400,l,0,3,3,3,0,69,69,76,,,['l'],0,[0.26698774782926193],2018_Jul_09_1452,60.0767958332,go-nogo,001,41,
logos/4.jpg,properties4.xlsx,logos/4.jpg,0,0,400,a,0,3,3,3,0,70,70,83,,,['a'],0,[0.06782526676397538],2018_Jul_09_1452,60.0767958332,go-nogo,001,41,
logos/4.jpg,properties4.xlsx,frogs/ab75.jpg,0,0,400,l,0,3,3,3,0,71,71,73,,,['l'],0,[0.30021998952361173],2018_Jul_09_1452,60.0767958332,go-nogo,001,41,
logos/4.jpg,properties4.xlsx,frogs/ab73.jpg,0,0,400,l,0,3,3,3,0,72,72,71,,,['l'],0,[0.05052875422916259],2018_Jul_09_1452,60.0767958332,go-nogo,001,41,
logos/4.jpg,properties4.xlsx,frogs/ab80.jpg,0,0,400,l,0,3,3,3,0,73,73,78,,,['l'],0,[0.05093892346849316],2018_Jul_09_1452,60.0767958332,go-nogo,001,41,
logos/4.jpg,properties4.xlsx,logos/4.jpg,0,0,400,a,0,3,3,3,0,74,74,82,,,['a'],0,[0.017187285779073136],2018_Jul_09_1452,60.0767958332,go-nogo,001,41,
logos/4.jpg,properties4.xlsx,frogs/ab44.jpg,0,0,400,l,0,3,3,3,0,75,75,43,,,['l'],0,[0.017228245811566012],2018_Jul_09_1452,60.0767958332,go-nogo,001,41,
logos/4.jpg,properties4.xlsx,frogs/ab4.jpg,0,0,400,l,0,3,3,3,0,76,76,3,,,['l'],0,[0.13395353652958875],2018_Jul_09_1452,60.0767958332,go-nogo,001,41,
logos/4.jpg,properties4.xlsx,frogs/ab10.jpg,0,0,400,l,0,3,3,3,0,77,77,9,,,['l'],0,[0.03382616219823831],2018_Jul_09_1452,60.0767958332,go-nogo,001,41,
logos/4.jpg,properties4.xlsx,frogs/ab79.jpg,0,0,400,l,0,3,3,3,0,78,78,77,,,['l'],0,[0.05044512749373098],2018_Jul_09_1452,60.0767958332,go-nogo,001,41,
logos/4.jpg,properties4.xlsx,frogs/ab45.jpg,0,0,400,l,0,3,3,3,0,79,79,44,,,['l'],0,[0.06720915957339457],2018_Jul_09_1452,60.0767958332,go-nogo,001,41,
logos/4.jpg,properties4.xlsx,frogs/ab19.jpg,0,0,400,l,0,3,3,3,0,80,80,18,,,['l'],0,[0.13373565189613146],2018_Jul_09_1452,60.0767958332,go-nogo,001,41,
logos/4.jpg,properties4.xlsx,logos/4.jpg,0,0,400,a,0,3,3,3,0,81,81,85,,,['a'],0,[0.017240761379071046],2018_Jul_09_1452,60.0767958332,go-nogo,001,41,
logos/4.jpg,properties4.xlsx,frogs/ab16.jpg,0,0,400,l,0,3,3,3,0,82,82,15,,,['l'],0,[0.01716054797725519],2018_Jul_09_1452,60.0767958332,go-nogo,001,41,
logos/4.jpg,properties4.xlsx,frogs/ab9.jpg,0,0,400,l,0,3,3,3,0,83,83,8,,,['l'],0,[0.16712661372730508],2018_Jul_09_1452,60.0767958332,go-nogo,001,41,
logos/4.jpg,properties4.xlsx,frogs/ab15.jpg,0,0,400,l,0,3,3,3,0,84,84,14,,,['l'],0,[0.16703331586904824],2018_Jul_09_1452,60.0767958332,go-nogo,001,41,
logos/4.jpg,properties4.xlsx,logos/4.jpg,0,0,400,a,0,3,3,3,0,85,85,84,,,['l'],0,[0.2836385709269962],2018_Jul_09_1452,60.0767958332,go-nogo,001,41,
logos/4.jpg,properties4.xlsx,frogs/ab3.jpg,0,0,400,l,0,3,3,3,0,86,86,2,,,['l'],0,[0.18389633470360423],2018_Jul_09_1452,60.0767958332,go-nogo,001,41,
logos/4.jpg,properties4.xlsx,frogs/ab77.jpg,0,0,400,l,0,3,3,3,0,87,87,75,,,['l'],0,[0.2005966511751467],2018_Jul_09_1452,60.0767958332,go-nogo,001,41,
logos/4.jpg,properties4.xlsx,frogs/ab8.jpg,0,0,400,l,0,3,3,3,0,88,88,7,,,['l'],0,[0.4003302971723315],2018_Jul_09_1452,60.0767958332,go-nogo,001,41,
logos/4.jpg,properties4.xlsx,frogs/ab61.jpg,0,0,400,l,0,3,3,3,0,89,89,59,,,['l'],0,[0.2837335754520609],2018_Jul_09_1452,60.0767958332,go-nogo,001,41,
logos/4.jpg,properties4.xlsx,,,,,,0,3,3,3,,,,,,,,,,2018_Jul_09_1452,60.0767958332,go-nogo,001,41,
