pix,source,image1,x,y,size,answer,trials_2.thisRepN,trials_2.thisTrialN,trials_2.thisN,trials_2.thisIndex,trials.thisRepN,trials.thisTrialN,trials.thisN,trials.thisIndex,key_resp_3.keys,key_resp_3.rt,key_resp_2.keys,key_resp_2.corr,key_resp_2.rt,date,frameRate,expName,session,participant,
logos/2.jpg,properties2.xlsx,frogs/ab58.jpg,0,0,400,l,0,0,0,1,0,0,0,57,space,3.29352649934,['l'],0,[0.8178008438553661],2018_Jul_09_0754,60.0313697954,go-nogo,001,42,
logos/2.jpg,properties2.xlsx,frogs/ab25.jpg,0,0,400,l,0,0,0,1,0,1,1,24,,,['l'],0,[0.251081148016965],2018_Jul_09_0754,60.0313697954,go-nogo,001,42,
logos/2.jpg,properties2.xlsx,frogs/ab42.jpg,0,0,400,l,0,0,0,1,0,2,2,41,,,['l'],0,[0.3345924972309149],2018_Jul_09_0754,60.0313697954,go-nogo,001,42,
logos/2.jpg,properties2.xlsx,frogs/ab35.jpg,0,0,400,l,0,0,0,1,0,3,3,34,,,['l'],0,[0.28426684754231246],2018_Jul_09_0754,60.0313697954,go-nogo,001,42,
logos/2.jpg,properties2.xlsx,frogs/ab46.jpg,0,0,400,l,0,0,0,1,0,4,4,45,,,['l'],0,[0.31779392700991593],2018_Jul_09_0754,60.0313697954,go-nogo,001,42,
logos/2.jpg,properties2.xlsx,frogs/ab55.jpg,0,0,400,l,0,0,0,1,0,5,5,54,,,['l'],0,[0.3009761681096279],2018_Jul_09_0754,60.0313697954,go-nogo,001,42,
logos/2.jpg,properties2.xlsx,frogs/ab5.jpg,0,0,400,l,0,0,0,1,0,6,6,4,,,['l'],0,[0.4675012996958685],2018_Jul_09_0754,60.0313697954,go-nogo,001,42,
logos/2.jpg,properties2.xlsx,logos/2.jpg,0,0,400,a,0,0,0,1,0,7,7,80,,,['a'],0,[0.4677494137431495],2018_Jul_09_0754,60.0313697954,go-nogo,001,42,
logos/2.jpg,properties2.xlsx,logos/2.jpg,0,0,400,a,0,0,0,1,0,8,8,89,,,['a'],0,[0.43421519430557964],2018_Jul_09_0754,60.0313697954,go-nogo,001,42,
logos/2.jpg,properties2.xlsx,frogs/ab33.jpg,0,0,400,l,0,0,0,1,0,9,9,32,,,['l'],0,[0.46773691879207036],2018_Jul_09_0754,60.0313697954,go-nogo,001,42,
logos/2.jpg,properties2.xlsx,frogs/ab6.jpg,0,0,400,l,0,0,0,1,0,10,10,5,,,['l'],0,[0.4510347381947213],2018_Jul_09_0754,60.0313697954,go-nogo,001,42,
logos/2.jpg,properties2.xlsx,frogs/ab68.jpg,0,0,400,l,0,0,0,1,0,11,11,66,,,['l'],0,[0.4675517257564934],2018_Jul_09_0754,60.0313697954,go-nogo,001,42,
logos/2.jpg,properties2.xlsx,frogs/ab43.jpg,0,0,400,l,0,0,0,1,0,12,12,42,,,['l'],0,[0.6009049915082869],2018_Jul_09_0754,60.0313697954,go-nogo,001,42,
logos/2.jpg,properties2.xlsx,logos/2.jpg,0,0,400,a,0,0,0,1,0,13,13,85,,,['a'],0,[0.5008712997660041],2018_Jul_09_0754,60.0313697954,go-nogo,001,42,
logos/2.jpg,properties2.xlsx,frogs/ab80.jpg,0,0,400,l,0,0,0,1,0,14,14,78,,,['l'],0,[0.48422847019537585],2018_Jul_09_0754,60.0313697954,go-nogo,001,42,
logos/2.jpg,properties2.xlsx,frogs/ab7.jpg,0,0,400,l,0,0,0,1,0,15,15,6,,,['l'],0,[0.5176390788546996],2018_Jul_09_0754,60.0313697954,go-nogo,001,42,
logos/2.jpg,properties2.xlsx,frogs/ab61.jpg,0,0,400,l,0,0,0,1,0,16,16,59,,,['l'],0,[0.7173021614071331],2018_Jul_09_0754,60.0313697954,go-nogo,001,42,
logos/2.jpg,properties2.xlsx,frogs/ab50.jpg,0,0,400,l,0,0,0,1,0,17,17,49,,,['l'],0,[0.5841590785857989],2018_Jul_09_0754,60.0313697954,go-nogo,001,42,
logos/2.jpg,properties2.xlsx,logos/2.jpg,0,0,400,a,0,0,0,1,0,18,18,86,,,['a'],0,[0.5008074862635112],2018_Jul_09_0754,60.0313697954,go-nogo,001,42,
logos/2.jpg,properties2.xlsx,frogs/ab72.jpg,0,0,400,l,0,0,0,1,0,19,19,70,,,['l'],0,[0.5008663910339237],2018_Jul_09_0754,60.0313697954,go-nogo,001,42,
logos/2.jpg,properties2.xlsx,frogs/ab36.jpg,0,0,400,l,0,0,0,1,0,20,20,35,,,['l'],0,[0.484238733908569],2018_Jul_09_0754,60.0313697954,go-nogo,001,42,
logos/2.jpg,properties2.xlsx,logos/2.jpg,0,0,400,a,0,0,0,1,0,21,21,81,,,['a'],0,[0.4676396366630797],2018_Jul_09_0754,60.0313697954,go-nogo,001,42,
logos/2.jpg,properties2.xlsx,frogs/ab29.jpg,0,0,400,l,0,0,0,1,0,22,22,28,,,['l'],0,[0.45079064038873184],2018_Jul_09_0754,60.0313697954,go-nogo,001,42,
logos/2.jpg,properties2.xlsx,frogs/ab8.jpg,0,0,400,l,0,0,0,1,0,23,23,7,,,['l'],0,[0.4674687235747115],2018_Jul_09_0754,60.0313697954,go-nogo,001,42,
logos/2.jpg,properties2.xlsx,frogs/ab62.jpg,0,0,400,l,0,0,0,1,0,24,24,60,,,['l'],0,[0.418035570452048],2018_Jul_09_0754,60.0313697954,go-nogo,001,42,
logos/2.jpg,properties2.xlsx,frogs/ab51.jpg,0,0,400,l,0,0,0,1,0,25,25,50,,,['l'],0,[0.45118021513917483],2018_Jul_09_0754,60.0313697954,go-nogo,001,42,
logos/2.jpg,properties2.xlsx,frogs/ab56.jpg,0,0,400,l,0,0,0,1,0,26,26,55,,,['l'],0,[0.5037081000773469],2018_Jul_09_0754,60.0313697954,go-nogo,001,42,
logos/2.jpg,properties2.xlsx,frogs/ab3.jpg,0,0,400,l,0,0,0,1,0,27,27,2,,,['l'],0,[0.4508584701252403],2018_Jul_09_0754,60.0313697954,go-nogo,001,42,
logos/2.jpg,properties2.xlsx,frogs/ab11.jpg,0,0,400,l,0,0,0,1,0,28,28,10,,,['l'],0,[0.45081384529476054],2018_Jul_09_0754,60.0313697954,go-nogo,001,42,
logos/2.jpg,properties2.xlsx,frogs/ab16.jpg,0,0,400,l,0,0,0,1,0,29,29,15,,,['l'],0,[0.6675182571270852],2018_Jul_09_0754,60.0313697954,go-nogo,001,42,
logos/2.jpg,properties2.xlsx,frogs/ab24.jpg,0,0,400,l,0,0,0,1,0,30,30,23,,,['l'],0,[0.6004618669685442],2018_Jul_09_0754,60.0313697954,go-nogo,001,42,
logos/2.jpg,properties2.xlsx,frogs/ab57.jpg,0,0,400,l,0,0,0,1,0,31,31,56,,,['l'],0,[0.46797566161694704],2018_Jul_09_0754,60.0313697954,go-nogo,001,42,
logos/2.jpg,properties2.xlsx,frogs/ab10.jpg,0,0,400,l,0,0,0,1,0,32,32,9,,,['l'],0,[0.45100528580951504],2018_Jul_09_0754,60.0313697954,go-nogo,001,42,
logos/2.jpg,properties2.xlsx,frogs/ab32.jpg,0,0,400,l,0,0,0,1,0,33,33,31,,,['l'],0,[0.5341770400846144],2018_Jul_09_0754,60.0313697954,go-nogo,001,42,
logos/2.jpg,properties2.xlsx,frogs/ab54.jpg,0,0,400,l,0,0,0,1,0,34,34,53,,,['l'],0,[0.4841793828891241],2018_Jul_09_0754,60.0313697954,go-nogo,001,42,
logos/2.jpg,properties2.xlsx,frogs/ab78.jpg,0,0,400,l,0,0,0,1,0,35,35,76,,,['l'],0,[0.5008962896681624],2018_Jul_09_0754,60.0313697954,go-nogo,001,42,
logos/2.jpg,properties2.xlsx,frogs/ab81.jpg,0,0,400,l,0,0,0,1,0,36,36,79,,,['l'],0,[0.45102001200575614],2018_Jul_09_0754,60.0313697954,go-nogo,001,42,
logos/2.jpg,properties2.xlsx,frogs/ab73.jpg,0,0,400,l,0,0,0,1,0,37,37,71,,,['l'],0,[0.4494947353814496],2018_Jul_09_0754,60.0313697954,go-nogo,001,42,
logos/2.jpg,properties2.xlsx,frogs/ab17.jpg,0,0,400,l,0,0,0,1,0,38,38,16,,,['l'],0,[0.48478003306809114],2018_Jul_09_0754,60.0313697954,go-nogo,001,42,
logos/2.jpg,properties2.xlsx,frogs/ab49.jpg,0,0,400,l,0,0,0,1,0,39,39,48,,,['l'],0,[0.46775923120003426],2018_Jul_09_0754,60.0313697954,go-nogo,001,42,
logos/2.jpg,properties2.xlsx,frogs/ab22.jpg,0,0,400,l,0,0,0,1,0,40,40,21,,,['l'],0,[0.40112766940001165],2018_Jul_09_0754,60.0313697954,go-nogo,001,42,
logos/2.jpg,properties2.xlsx,frogs/ab31.jpg,0,0,400,l,0,0,0,1,0,41,41,30,,,['l'],0,[0.4508879225177225],2018_Jul_09_0754,60.0313697954,go-nogo,001,42,
logos/2.jpg,properties2.xlsx,frogs/ab21.jpg,0,0,400,l,0,0,0,1,0,42,42,20,,,['l'],0,[0.46774227376590716],2018_Jul_09_0754,60.0313697954,go-nogo,001,42,
logos/2.jpg,properties2.xlsx,frogs/ab30.jpg,0,0,400,l,0,0,0,1,0,43,43,29,,,['l'],0,[0.5009476082195761],2018_Jul_09_0754,60.0313697954,go-nogo,001,42,
logos/2.jpg,properties2.xlsx,frogs/ab67.jpg,0,0,400,l,0,0,0,1,0,44,44,65,,,['l'],0,[0.4223503450557473],2018_Jul_09_0754,60.0313697954,go-nogo,001,42,
logos/2.jpg,properties2.xlsx,logos/2.jpg,0,0,400,a,0,0,0,1,0,45,45,82,,,['a'],0,[0.5161008610375575],2018_Jul_09_0754,60.0313697954,go-nogo,001,42,
logos/2.jpg,properties2.xlsx,frogs/ab15.jpg,0,0,400,l,0,0,0,1,0,46,46,14,,,['l'],0,[0.42750138894916745],2018_Jul_09_0754,60.0313697954,go-nogo,001,42,
logos/2.jpg,properties2.xlsx,logos/2.jpg,0,0,400,a,0,0,0,1,0,47,47,88,,,['a'],0,[0.5447607105161296],2018_Jul_09_0754,60.0313697954,go-nogo,001,42,
logos/2.jpg,properties2.xlsx,frogs/ab19.jpg,0,0,400,l,0,0,0,1,0,48,48,18,,,['l'],0,[0.48417938288184814],2018_Jul_09_0754,60.0313697954,go-nogo,001,42,
logos/2.jpg,properties2.xlsx,frogs/ab79.jpg,0,0,400,l,0,0,0,1,0,49,49,77,,,['l'],0,[0.512389860348776],2018_Jul_09_0754,60.0313697954,go-nogo,001,42,
logos/2.jpg,properties2.xlsx,logos/2.jpg,0,0,400,a,0,0,0,1,0,50,50,84,,,['a'],0,[0.45482160109531833],2018_Jul_09_0754,60.0313697954,go-nogo,001,42,
logos/2.jpg,properties2.xlsx,frogs/ab60.jpg,0,0,400,l,0,0,0,1,0,51,51,58,,,['l'],0,[0.4530089405889157],2018_Jul_09_0754,60.0313697954,go-nogo,001,42,
logos/2.jpg,properties2.xlsx,frogs/ab70.jpg,0,0,400,l,0,0,0,1,0,52,52,68,,,['l'],0,[0.4258944488974521],2018_Jul_09_0754,60.0313697954,go-nogo,001,42,
logos/2.jpg,properties2.xlsx,frogs/ab48.jpg,0,0,400,l,0,0,0,1,0,53,53,47,,,['l'],0,[0.364221151721722],2018_Jul_09_0754,60.0313697954,go-nogo,001,42,
logos/2.jpg,properties2.xlsx,frogs/ab23.jpg,0,0,400,l,0,0,0,1,0,54,54,22,,,['l'],0,[0.42565525981626706],2018_Jul_09_0754,60.0313697954,go-nogo,001,42,
logos/2.jpg,properties2.xlsx,frogs/ab45.jpg,0,0,400,l,0,0,0,1,0,55,55,44,,,['l'],0,[0.39691776313702576],2018_Jul_09_0754,60.0313697954,go-nogo,001,42,
logos/2.jpg,properties2.xlsx,frogs/ab38.jpg,0,0,400,l,0,0,0,1,0,56,56,37,,,['l'],0,[0.3969222256127978],2018_Jul_09_0754,60.0313697954,go-nogo,001,42,
logos/2.jpg,properties2.xlsx,frogs/ab76.jpg,0,0,400,l,0,0,0,1,0,57,57,74,,,['l'],0,[0.3918867600368685],2018_Jul_09_0754,60.0313697954,go-nogo,001,42,
logos/2.jpg,properties2.xlsx,frogs/ab41.jpg,0,0,400,l,0,0,0,1,0,58,58,40,,,['l'],0,[0.48943618760677055],2018_Jul_09_0754,60.0313697954,go-nogo,001,42,
logos/2.jpg,properties2.xlsx,frogs/ab37.jpg,0,0,400,l,0,0,0,1,0,59,59,36,,,['l'],0,[0.49684569404053036],2018_Jul_09_0754,60.0313697954,go-nogo,001,42,
logos/2.jpg,properties2.xlsx,frogs/ab9.jpg,0,0,400,l,0,0,0,1,0,60,60,8,,,['l'],0,[1.3457794953355915],2018_Jul_09_0754,60.0313697954,go-nogo,001,42,
logos/2.jpg,properties2.xlsx,frogs/ab64.jpg,0,0,400,l,0,0,0,1,0,61,61,62,,,['l'],0,[0.4280882054299582],2018_Jul_09_0754,60.0313697954,go-nogo,001,42,
logos/2.jpg,properties2.xlsx,frogs/ab13.jpg,0,0,400,l,0,0,0,1,0,62,62,12,,,['l'],0,[0.4230174862386775],2018_Jul_09_0754,60.0313697954,go-nogo,001,42,
logos/2.jpg,properties2.xlsx,logos/2.jpg,0,0,400,a,0,0,0,1,0,63,63,87,,,['a'],0,[0.42551736909808824],2018_Jul_09_0754,60.0313697954,go-nogo,001,42,
logos/2.jpg,properties2.xlsx,frogs/ab77.jpg,0,0,400,l,0,0,0,1,0,64,64,75,,,['l'],0,[0.42516349421202904],2018_Jul_09_0754,60.0313697954,go-nogo,001,42,
logos/2.jpg,properties2.xlsx,frogs/ab4.jpg,0,0,400,l,0,0,0,1,0,65,65,3,,,['l'],0,[0.3931532126516686],2018_Jul_09_0754,60.0313697954,go-nogo,001,42,
logos/2.jpg,properties2.xlsx,frogs/ab52.jpg,0,0,400,l,0,0,0,1,0,66,66,51,,,['l'],0,[0.5150142464699456],2018_Jul_09_0754,60.0313697954,go-nogo,001,42,
logos/2.jpg,properties2.xlsx,frogs/ab44.jpg,0,0,400,l,0,0,0,1,0,67,67,43,,,['l'],0,[0.4229942813326488],2018_Jul_09_0754,60.0313697954,go-nogo,001,42,
logos/2.jpg,properties2.xlsx,frogs/ab75.jpg,0,0,400,l,0,0,0,1,0,68,68,73,,,['l'],0,[0.4520820829056902],2018_Jul_09_0754,60.0313697954,go-nogo,001,42,
logos/2.jpg,properties2.xlsx,frogs/ab63.jpg,0,0,400,l,0,0,0,1,0,69,69,61,,,['l'],0,[0.42316742566617904],2018_Jul_09_0754,60.0313697954,go-nogo,001,42,
logos/2.jpg,properties2.xlsx,frogs/ab65.jpg,0,0,400,l,0,0,0,1,0,70,70,63,,,['l'],0,[0.4234829231936601],2018_Jul_09_0754,60.0313697954,go-nogo,001,42,
logos/2.jpg,properties2.xlsx,frogs/ab71.jpg,0,0,400,l,0,0,0,1,0,71,71,69,,,['l'],0,[0.5156488115317188],2018_Jul_09_0754,60.0313697954,go-nogo,001,42,
logos/2.jpg,properties2.xlsx,frogs/ab47.jpg,0,0,400,l,0,0,0,1,0,72,72,46,,,['l'],0,[0.3050035588312312],2018_Jul_09_0754,60.0313697954,go-nogo,001,42,
logos/2.jpg,properties2.xlsx,frogs/ab26.jpg,0,0,400,l,0,0,0,1,0,73,73,25,,,['l'],0,[0.37542912350181723],2018_Jul_09_0754,60.0313697954,go-nogo,001,42,
logos/2.jpg,properties2.xlsx,frogs/ab39.jpg,0,0,400,l,0,0,0,1,0,74,74,38,,,['l'],0,[0.5136969215527643],2018_Jul_09_0754,60.0313697954,go-nogo,001,42,
logos/2.jpg,properties2.xlsx,logos/2.jpg,0,0,400,a,0,0,0,1,0,75,75,83,,,['a'],0,[0.3972475406189915],2018_Jul_09_0754,60.0313697954,go-nogo,001,42,
logos/2.jpg,properties2.xlsx,frogs/ab18.jpg,0,0,400,l,0,0,0,1,0,76,76,17,,,['l'],0,[0.39361284838378197],2018_Jul_09_0754,60.0313697954,go-nogo,001,42,
logos/2.jpg,properties2.xlsx,frogs/ab34.jpg,0,0,400,l,0,0,0,1,0,77,77,33,,,['l'],0,[0.45574310379015515],2018_Jul_09_0754,60.0313697954,go-nogo,001,42,
logos/2.jpg,properties2.xlsx,frogs/ab66.jpg,0,0,400,l,0,0,0,1,0,78,78,64,,,['l'],0,[0.4514256516849855],2018_Jul_09_0754,60.0313697954,go-nogo,001,42,
logos/2.jpg,properties2.xlsx,frogs/ab40.jpg,0,0,400,l,0,0,0,1,0,79,79,39,,,['l'],0,[0.45139441431092564],2018_Jul_09_0754,60.0313697954,go-nogo,001,42,
logos/2.jpg,properties2.xlsx,frogs/ab53.jpg,0,0,400,l,0,0,0,1,0,80,80,52,,,['l'],0,[0.3514548809544067],2018_Jul_09_0754,60.0313697954,go-nogo,001,42,
logos/2.jpg,properties2.xlsx,frogs/ab2.jpg,0,0,400,l,0,0,0,1,0,81,81,1,,,['l'],0,[0.4175616547727259],2018_Jul_09_0754,60.0313697954,go-nogo,001,42,
logos/2.jpg,properties2.xlsx,frogs/ab14.jpg,0,0,400,l,0,0,0,1,0,82,82,13,,,['l'],0,[0.35141025612392696],2018_Jul_09_0754,60.0313697954,go-nogo,001,42,
logos/2.jpg,properties2.xlsx,frogs/ab69.jpg,0,0,400,l,0,0,0,1,0,83,83,67,,,['l'],0,[0.4015069804372615],2018_Jul_09_0754,60.0313697954,go-nogo,001,42,
logos/2.jpg,properties2.xlsx,frogs/ab20.jpg,0,0,400,l,0,0,0,1,0,84,84,19,,,['l'],0,[0.4179204383981414],2018_Jul_09_0754,60.0313697954,go-nogo,001,42,
logos/2.jpg,properties2.xlsx,frogs/ab27.jpg,0,0,400,l,0,0,0,1,0,85,85,26,,,['l'],0,[0.3679250124405371],2018_Jul_09_0754,60.0313697954,go-nogo,001,42,
logos/2.jpg,properties2.xlsx,frogs/ab74.jpg,0,0,400,l,0,0,0,1,0,86,86,72,,,['l'],0,[0.28483402910933364],2018_Jul_09_0754,60.0313697954,go-nogo,001,42,
logos/2.jpg,properties2.xlsx,frogs/ab28.jpg,0,0,400,l,0,0,0,1,0,87,87,27,,,['l'],0,[0.45119628007523715],2018_Jul_09_0754,60.0313697954,go-nogo,001,42,
logos/2.jpg,properties2.xlsx,frogs/ab1.jpg,0,0,400,l,0,0,0,1,0,88,88,0,,,['l'],0,[0.36806468814756954],2018_Jul_09_0754,60.0313697954,go-nogo,001,42,
logos/2.jpg,properties2.xlsx,frogs/ab12.jpg,0,0,400,l,0,0,0,1,0,89,89,11,,,['l'],0,[0.41779058014799375],2018_Jul_09_0754,60.0313697954,go-nogo,001,42,
logos/2.jpg,properties2.xlsx,,,,,,0,0,0,1,,,,,,,,,,2018_Jul_09_0754,60.0313697954,go-nogo,001,42,
logos/1.jpg,properties1.xlsx,frogs/ab25.jpg,0,0,400,l,0,1,1,0,0,0,0,24,space,2.06015649927,['l'],0,[0.3845642720189062],2018_Jul_09_0754,60.0313697954,go-nogo,001,42,
logos/1.jpg,properties1.xlsx,frogs/ab16.jpg,0,0,400,l,0,1,1,0,0,1,1,15,,,['l'],0,[0.3344363103242358],2018_Jul_09_0754,60.0313697954,go-nogo,001,42,
logos/1.jpg,properties1.xlsx,frogs/ab23.jpg,0,0,400,l,0,1,1,0,0,2,2,22,,,['l'],0,[0.384305894272984],2018_Jul_09_0754,60.0313697954,go-nogo,001,42,
logos/1.jpg,properties1.xlsx,frogs/ab13.jpg,0,0,400,l,0,1,1,0,0,3,3,12,,,['l'],0,[0.3676304885739228],2018_Jul_09_0754,60.0313697954,go-nogo,001,42,
logos/1.jpg,properties1.xlsx,logos/1.jpg,0,0,400,a,0,1,1,0,0,4,4,82,,,['a'],0,[0.4179307021040586],2018_Jul_09_0754,60.0313697954,go-nogo,001,42,
logos/1.jpg,properties1.xlsx,frogs/ab21.jpg,0,0,400,l,0,1,1,0,0,5,5,20,,,['l'],0,[0.385342082772695],2018_Jul_09_0754,60.0313697954,go-nogo,001,42,
logos/1.jpg,properties1.xlsx,frogs/ab53.jpg,0,0,400,l,0,1,1,0,0,6,6,52,,,['l'],0,[0.4012918887674459],2018_Jul_09_0754,60.0313697954,go-nogo,001,42,
logos/1.jpg,properties1.xlsx,frogs/ab63.jpg,0,0,400,l,0,1,1,0,0,7,7,61,,,['l'],0,[0.3493762564685312],2018_Jul_09_0754,60.0313697954,go-nogo,001,42,
logos/1.jpg,properties1.xlsx,frogs/ab40.jpg,0,0,400,l,0,1,1,0,0,8,8,39,,,['l'],0,[0.38477847119793296],2018_Jul_09_0754,60.0313697954,go-nogo,001,42,
logos/1.jpg,properties1.xlsx,logos/1.jpg,0,0,400,a,0,1,1,0,0,9,9,84,,,['a'],0,[0.3845696270072949],2018_Jul_09_0754,60.0313697954,go-nogo,001,42,
logos/1.jpg,properties1.xlsx,frogs/ab56.jpg,0,0,400,l,0,1,1,0,0,10,10,55,,,['l'],0,[0.43670079721778166],2018_Jul_09_0754,60.0313697954,go-nogo,001,42,
logos/1.jpg,properties1.xlsx,frogs/ab80.jpg,0,0,400,l,0,1,1,0,0,11,11,78,,,['l'],0,[0.33439480923698284],2018_Jul_09_0754,60.0313697954,go-nogo,001,42,
logos/1.jpg,properties1.xlsx,frogs/ab17.jpg,0,0,400,l,0,1,1,0,0,12,12,16,,,['l'],0,[0.4502274750630022],2018_Jul_09_0754,60.0313697954,go-nogo,001,42,
logos/1.jpg,properties1.xlsx,frogs/ab46.jpg,0,0,400,l,0,1,1,0,0,13,13,45,,,['l'],0,[0.33426718223199714],2018_Jul_09_0754,60.0313697954,go-nogo,001,42,
logos/1.jpg,properties1.xlsx,frogs/ab6.jpg,0,0,400,l,0,1,1,0,0,14,14,5,,,['l'],0,[0.3507042913479381],2018_Jul_09_0754,60.0313697954,go-nogo,001,42,
logos/1.jpg,properties1.xlsx,frogs/ab45.jpg,0,0,400,l,0,1,1,0,0,15,15,44,,,['l'],0,[0.4508611476121587],2018_Jul_09_0754,60.0313697954,go-nogo,001,42,
logos/1.jpg,properties1.xlsx,frogs/ab7.jpg,0,0,400,l,0,1,1,0,0,16,16,6,,,['l'],0,[0.35097739529737737],2018_Jul_09_0754,60.0313697954,go-nogo,001,42,
logos/1.jpg,properties1.xlsx,frogs/ab76.jpg,0,0,400,l,0,1,1,0,0,17,17,74,,,['l'],0,[0.3642760402581189],2018_Jul_09_0754,60.0313697954,go-nogo,001,42,
logos/1.jpg,properties1.xlsx,frogs/ab22.jpg,0,0,400,l,0,1,1,0,0,18,18,21,,,['l'],0,[0.5145657669563661],2018_Jul_09_0754,60.0313697954,go-nogo,001,42,
logos/1.jpg,properties1.xlsx,frogs/ab19.jpg,0,0,400,l,0,1,1,0,0,19,19,18,,,['l'],0,[0.45317539118696004],2018_Jul_09_0754,60.0313697954,go-nogo,001,42,
logos/1.jpg,properties1.xlsx,frogs/ab69.jpg,0,0,400,l,0,1,1,0,0,20,20,67,,,['l'],0,[0.3010676490084734],2018_Jul_09_0754,60.0313697954,go-nogo,001,42,
logos/1.jpg,properties1.xlsx,frogs/ab29.jpg,0,0,400,l,0,1,1,0,0,21,21,28,,,['l'],0,[0.4288204988624784],2018_Jul_09_0754,60.0313697954,go-nogo,001,42,
logos/1.jpg,properties1.xlsx,frogs/ab26.jpg,0,0,400,l,0,1,1,0,0,22,22,25,,,['l'],0,[0.5455657424172387],2018_Jul_09_0754,60.0313697954,go-nogo,001,42,
logos/1.jpg,properties1.xlsx,frogs/ab36.jpg,0,0,400,l,0,1,1,0,0,23,23,35,,,['l'],0,[0.30171426276501734],2018_Jul_09_0754,60.0313697954,go-nogo,001,42,
logos/1.jpg,properties1.xlsx,frogs/ab4.jpg,0,0,400,l,0,1,1,0,0,24,24,3,,,['l'],0,[0.30236667775170645],2018_Jul_09_0754,60.0313697954,go-nogo,001,42,
logos/1.jpg,properties1.xlsx,frogs/ab47.jpg,0,0,400,l,0,1,1,0,0,25,25,46,,,['l'],0,[0.0943368862135685],2018_Jul_09_0754,60.0313697954,go-nogo,001,42,
logos/1.jpg,properties1.xlsx,frogs/ab50.jpg,0,0,400,l,0,1,1,0,0,26,26,49,,,['l'],0,[0.3631644358029007],2018_Jul_09_0754,60.0313697954,go-nogo,001,42,
logos/1.jpg,properties1.xlsx,frogs/ab11.jpg,0,0,400,l,0,1,1,0,0,27,27,10,,,['l'],0,[0.3319239325210219],2018_Jul_09_0754,60.0313697954,go-nogo,001,42,
logos/1.jpg,properties1.xlsx,logos/1.jpg,0,0,400,a,0,1,1,0,0,28,28,88,,,['a'],0,[0.575768272188725],2018_Jul_09_0754,60.0313697954,go-nogo,001,42,
logos/1.jpg,properties1.xlsx,frogs/ab18.jpg,0,0,400,l,0,1,1,0,0,29,29,17,,,['l'],0,[0.6032344075283618],2018_Jul_09_0754,60.0313697954,go-nogo,001,42,
logos/1.jpg,properties1.xlsx,logos/1.jpg,0,0,400,a,0,1,1,0,0,30,30,83,,,['a'],0,[0.4249452787989867],2018_Jul_09_0754,60.0313697954,go-nogo,001,42,
logos/1.jpg,properties1.xlsx,frogs/ab24.jpg,0,0,400,l,0,1,1,0,0,31,31,23,,,['l'],0,[0.6046030509969569],2018_Jul_09_0754,60.0313697954,go-nogo,001,42,
logos/1.jpg,properties1.xlsx,frogs/ab75.jpg,0,0,400,l,0,1,1,0,0,32,32,73,,,['l'],0,[0.39472177535208175],2018_Jul_09_0754,60.0313697954,go-nogo,001,42,
logos/1.jpg,properties1.xlsx,frogs/ab9.jpg,0,0,400,l,0,1,1,0,0,33,33,8,,,['l'],0,[0.6672049908374902],2018_Jul_09_0754,60.0313697954,go-nogo,001,42,
logos/1.jpg,properties1.xlsx,frogs/ab15.jpg,0,0,400,l,0,1,1,0,0,34,34,14,,,['l'],0,[0.4556560853816336],2018_Jul_09_0754,60.0313697954,go-nogo,001,42,
logos/1.jpg,properties1.xlsx,frogs/ab38.jpg,0,0,400,l,0,1,1,0,0,35,35,37,,,['l'],0,[0.3092554124305025],2018_Jul_09_0754,60.0313697954,go-nogo,001,42,
logos/1.jpg,properties1.xlsx,frogs/ab62.jpg,0,0,400,l,0,1,1,0,0,36,36,60,,,['l'],0,[0.3952791394549422],2018_Jul_09_0754,60.0313697954,go-nogo,001,42,
logos/1.jpg,properties1.xlsx,frogs/ab27.jpg,0,0,400,l,0,1,1,0,0,37,37,26,,,['l'],0,[0.4558595745911589],2018_Jul_09_0754,60.0313697954,go-nogo,001,42,
logos/1.jpg,properties1.xlsx,frogs/ab5.jpg,0,0,400,l,0,1,1,0,0,38,38,4,,,['l'],0,[0.3632438679924235],2018_Jul_09_0754,60.0313697954,go-nogo,001,42,
logos/1.jpg,properties1.xlsx,frogs/ab72.jpg,0,0,400,l,0,1,1,0,0,39,39,70,,,['l'],0,[0.3332140362908831],2018_Jul_09_0754,60.0313697954,go-nogo,001,42,
logos/1.jpg,properties1.xlsx,frogs/ab78.jpg,0,0,400,l,0,1,1,0,0,40,40,76,,,['l'],0,[0.2712578177161049],2018_Jul_09_0754,60.0313697954,go-nogo,001,42,
logos/1.jpg,properties1.xlsx,frogs/ab44.jpg,0,0,400,l,0,1,1,0,0,41,41,43,,,['l'],0,[0.3036099254604778],2018_Jul_09_0754,60.0313697954,go-nogo,001,42,
logos/1.jpg,properties1.xlsx,logos/1.jpg,0,0,400,a,0,1,1,0,0,42,42,81,,,['a'],0,[0.5167889758813544],2018_Jul_09_0754,60.0313697954,go-nogo,001,42,
logos/1.jpg,properties1.xlsx,frogs/ab3.jpg,0,0,400,l,0,1,1,0,0,43,43,2,,,['l'],0,[0.3335500612447504],2018_Jul_09_0754,60.0313697954,go-nogo,001,42,
logos/1.jpg,properties1.xlsx,frogs/ab12.jpg,0,0,400,l,0,1,1,0,0,44,44,11,,,['l'],0,[0.3035563756566262],2018_Jul_09_0754,60.0313697954,go-nogo,001,42,
logos/1.jpg,properties1.xlsx,frogs/ab52.jpg,0,0,400,l,0,1,1,0,0,45,45,51,,,['l'],0,[0.21545759413857013],2018_Jul_09_0754,60.0313697954,go-nogo,001,42,
logos/1.jpg,properties1.xlsx,frogs/ab2.jpg,0,0,400,l,0,1,1,0,0,46,46,1,,,['l'],0,[0.5480941851637908],2018_Jul_09_0754,60.0313697954,go-nogo,001,42,
logos/1.jpg,properties1.xlsx,frogs/ab81.jpg,0,0,400,l,0,1,1,0,0,47,47,79,,,['l'],0,[0.3342564722770476],2018_Jul_09_0754,60.0313697954,go-nogo,001,42,
logos/1.jpg,properties1.xlsx,frogs/ab8.jpg,0,0,400,l,0,1,1,0,0,48,48,7,,,['l'],0,[0.3015072035632329],2018_Jul_09_0754,60.0313697954,go-nogo,001,42,
logos/1.jpg,properties1.xlsx,logos/1.jpg,0,0,400,a,0,1,1,0,0,49,49,85,,,['a'],0,[0.2847733393427916],2018_Jul_09_0754,60.0313697954,go-nogo,001,42,
logos/1.jpg,properties1.xlsx,frogs/ab28.jpg,0,0,400,l,0,1,1,0,0,50,50,27,,,['l'],0,[0.3183173762372462],2018_Jul_09_0754,60.0313697954,go-nogo,001,42,
logos/1.jpg,properties1.xlsx,frogs/ab71.jpg,0,0,400,l,0,1,1,0,0,51,51,69,,,['l'],0,[0.3015446884164703],2018_Jul_09_0754,60.0313697954,go-nogo,001,42,
logos/1.jpg,properties1.xlsx,frogs/ab54.jpg,0,0,400,l,0,1,1,0,0,52,52,53,,,['l'],0,[0.30145008378167404],2018_Jul_09_0754,60.0313697954,go-nogo,001,42,
logos/1.jpg,properties1.xlsx,frogs/ab41.jpg,0,0,400,l,0,1,1,0,0,53,53,40,,,['l'],0,[0.30146436372888274],2018_Jul_09_0754,60.0313697954,go-nogo,001,42,
logos/1.jpg,properties1.xlsx,frogs/ab68.jpg,0,0,400,l,0,1,1,0,0,54,54,66,,,['l'],0,[0.2837603557491093],2018_Jul_09_0754,60.0313697954,go-nogo,001,42,
logos/1.jpg,properties1.xlsx,frogs/ab51.jpg,0,0,400,l,0,1,1,0,0,55,55,50,,,['l'],0,[0.3349668995288084],2018_Jul_09_0754,60.0313697954,go-nogo,001,42,
logos/1.jpg,properties1.xlsx,frogs/ab35.jpg,0,0,400,l,0,1,1,0,0,56,56,34,,,['l'],0,[0.351042101297935],2018_Jul_09_0754,60.0313697954,go-nogo,001,42,
logos/1.jpg,properties1.xlsx,frogs/ab34.jpg,0,0,400,l,0,1,1,0,0,57,57,33,,,['l'],0,[0.2677364725386724],2018_Jul_09_0754,60.0313697954,go-nogo,001,42,
logos/1.jpg,properties1.xlsx,frogs/ab1.jpg,0,0,400,l,0,1,1,0,0,58,58,0,,,['l'],0,[0.26777395739918575],2018_Jul_09_0754,60.0313697954,go-nogo,001,42,
logos/1.jpg,properties1.xlsx,logos/1.jpg,0,0,400,a,0,1,1,0,0,59,59,86,,,['a'],0,[0.16780943414050853],2018_Jul_09_0754,60.0313697954,go-nogo,001,42,
logos/1.jpg,properties1.xlsx,frogs/ab48.jpg,0,0,400,l,0,1,1,0,0,60,60,47,,,['l'],0,[0.36779247670347104],2018_Jul_09_0754,60.0313697954,go-nogo,001,42,
logos/1.jpg,properties1.xlsx,frogs/ab49.jpg,0,0,400,l,0,1,1,0,0,61,61,48,,,['l'],0,[0.21783431247604312],2018_Jul_09_0754,60.0313697954,go-nogo,001,42,
logos/1.jpg,properties1.xlsx,frogs/ab10.jpg,0,0,400,l,0,1,1,0,0,62,62,9,,,['l'],0,[0.2676753365303739],2018_Jul_09_0754,60.0313697954,go-nogo,001,42,
logos/1.jpg,properties1.xlsx,frogs/ab60.jpg,0,0,400,l,0,1,1,0,0,63,63,58,,,['l'],0,[0.201097324519651],2018_Jul_09_0754,60.0313697954,go-nogo,001,42,
logos/1.jpg,properties1.xlsx,frogs/ab70.jpg,0,0,400,l,0,1,1,0,0,64,64,68,,,['l'],0,[0.300751705224684],2018_Jul_09_0754,60.0313697954,go-nogo,001,42,
logos/1.jpg,properties1.xlsx,frogs/ab65.jpg,0,0,400,l,0,1,1,0,0,65,65,63,,,['l'],0,[0.2502158726056223],2018_Jul_09_0754,60.0313697954,go-nogo,001,42,
logos/1.jpg,properties1.xlsx,frogs/ab20.jpg,0,0,400,l,0,1,1,0,0,66,66,19,,,['l'],0,[0.2506759545794921],2018_Jul_09_0754,60.0313697954,go-nogo,001,42,
logos/1.jpg,properties1.xlsx,frogs/ab14.jpg,0,0,400,l,0,1,1,0,0,67,67,13,,,['l'],0,[0.2010825983234099],2018_Jul_09_0754,60.0313697954,go-nogo,001,42,
logos/1.jpg,properties1.xlsx,logos/1.jpg,0,0,400,a,0,1,1,0,0,68,68,80,,,['a'],0,[0.13442292287800228],2018_Jul_09_0754,60.0313697954,go-nogo,001,42,
logos/1.jpg,properties1.xlsx,frogs/ab32.jpg,0,0,400,l,0,1,1,0,0,69,69,31,,,['l'],0,[0.5846383492389577],2018_Jul_09_0754,60.0313697954,go-nogo,001,42,
logos/1.jpg,properties1.xlsx,frogs/ab66.jpg,0,0,400,l,0,1,1,0,0,70,70,64,,,['l'],0,[0.03459450534865027],2018_Jul_09_0754,60.0313697954,go-nogo,001,42,
logos/1.jpg,properties1.xlsx,logos/1.jpg,0,0,400,a,0,1,1,0,0,71,71,87,,,['a'],0,[0.20150028671196196],2018_Jul_09_0754,60.0313697954,go-nogo,001,42,
logos/1.jpg,properties1.xlsx,frogs/ab57.jpg,0,0,400,l,0,1,1,0,0,72,72,56,,,['l'],0,[0.05126232481416082],2018_Jul_09_0754,60.0313697954,go-nogo,001,42,
logos/1.jpg,properties1.xlsx,frogs/ab64.jpg,0,0,400,l,0,1,1,0,0,73,73,62,,,['l'],0,[0.25151445509982295],2018_Jul_09_0754,60.0313697954,go-nogo,001,42,
logos/1.jpg,properties1.xlsx,frogs/ab61.jpg,0,0,400,l,0,1,1,0,0,74,74,59,,,['l'],0,[0.11801660489436472],2018_Jul_09_0754,60.0313697954,go-nogo,001,42,
logos/1.jpg,properties1.xlsx,frogs/ab74.jpg,0,0,400,l,0,1,1,0,0,75,75,72,,,['l'],0,[0.06790113815804943],2018_Jul_09_0754,60.0313697954,go-nogo,001,42,
logos/1.jpg,properties1.xlsx,frogs/ab33.jpg,0,0,400,l,0,1,1,0,0,76,76,32,,,['l'],0,[0.01797711192193674],2018_Jul_09_0754,60.0313697954,go-nogo,001,42,
logos/1.jpg,properties1.xlsx,frogs/ab37.jpg,0,0,400,l,0,1,1,0,0,77,77,36,,,['l'],0,[0.20052344923169585],2018_Jul_09_0754,60.0313697954,go-nogo,001,42,
logos/1.jpg,properties1.xlsx,logos/1.jpg,0,0,400,a,0,1,1,0,0,78,78,89,,,['a'],0,[0.1346143633927568],2018_Jul_09_0754,60.0313697954,go-nogo,001,42,
logos/1.jpg,properties1.xlsx,frogs/ab58.jpg,0,0,400,l,0,1,1,0,0,79,79,57,,,['l'],0,[0.01721447362069739],2018_Jul_09_0754,60.0313697954,go-nogo,001,42,
logos/1.jpg,properties1.xlsx,frogs/ab42.jpg,0,0,400,l,0,1,1,0,0,80,80,41,,,['l'],0,[0.5843924664368387],2018_Jul_09_0754,60.0313697954,go-nogo,001,42,
logos/1.jpg,properties1.xlsx,frogs/ab43.jpg,0,0,400,l,0,1,1,0,0,81,81,42,,,['a'],0,[0.3009949105398846],2018_Jul_09_0754,60.0313697954,go-nogo,001,42,
logos/1.jpg,properties1.xlsx,frogs/ab39.jpg,0,0,400,l,0,1,1,0,0,82,82,38,,,['l'],0,[0.15166551013680873],2018_Jul_09_0754,60.0313697954,go-nogo,001,42,
logos/1.jpg,properties1.xlsx,frogs/ab31.jpg,0,0,400,l,0,1,1,0,0,83,83,30,,,['l'],0,[0.18227992708125385],2018_Jul_09_0754,60.0313697954,go-nogo,001,42,
logos/1.jpg,properties1.xlsx,frogs/ab73.jpg,0,0,400,l,0,1,1,0,0,84,84,71,,,['l'],0,[0.5764336283755256],2018_Jul_09_0754,60.0313697954,go-nogo,001,42,
logos/1.jpg,properties1.xlsx,frogs/ab79.jpg,0,0,400,l,0,1,1,0,0,85,85,77,,,['l'],0,[0.3343506306555355],2018_Jul_09_0754,60.0313697954,go-nogo,001,42,
logos/1.jpg,properties1.xlsx,frogs/ab30.jpg,0,0,400,l,0,1,1,0,0,86,86,29,,,['l'],0,[0.24103386801289162],2018_Jul_09_0754,60.0313697954,go-nogo,001,42,
logos/1.jpg,properties1.xlsx,frogs/ab67.jpg,0,0,400,l,0,1,1,0,0,87,87,65,,,['l'],0,[0.1832750607500202],2018_Jul_09_0754,60.0313697954,go-nogo,001,42,
logos/1.jpg,properties1.xlsx,frogs/ab55.jpg,0,0,400,l,0,1,1,0,0,88,88,54,,,['l'],0,[0.30212257993844105],2018_Jul_09_0754,60.0313697954,go-nogo,001,42,
logos/1.jpg,properties1.xlsx,frogs/ab77.jpg,0,0,400,l,0,1,1,0,0,89,89,75,,,['l'],0,[0.24166530933143804],2018_Jul_09_0754,60.0313697954,go-nogo,001,42,
logos/1.jpg,properties1.xlsx,,,,,,0,1,1,0,,,,,,,,,,2018_Jul_09_0754,60.0313697954,go-nogo,001,42,
logos/3.jpg,properties3.xlsx,frogs/ab48.jpg,0,0,400,l,0,2,2,2,0,0,0,47,space,2.29318110317,['l'],0,[0.8464722957942286],2018_Jul_09_0754,60.0313697954,go-nogo,001,42,
logos/3.jpg,properties3.xlsx,frogs/ab2.jpg,0,0,400,l,0,2,2,2,0,1,1,1,,,['l'],0,[0.9401701544629759],2018_Jul_09_0754,60.0313697954,go-nogo,001,42,
logos/3.jpg,properties3.xlsx,frogs/ab46.jpg,0,0,400,l,0,2,2,2,0,2,2,45,,,['l'],0,[0.33377943286905065],2018_Jul_09_0754,60.0313697954,go-nogo,001,42,
logos/3.jpg,properties3.xlsx,frogs/ab23.jpg,0,0,400,l,0,2,2,2,0,3,3,22,,,['l'],0,[0.061007494739897083],2018_Jul_09_0754,60.0313697954,go-nogo,001,42,
logos/3.jpg,properties3.xlsx,frogs/ab71.jpg,0,0,400,l,0,2,2,2,0,4,4,69,,,['l'],0,[0.33267898461053846],2018_Jul_09_0754,60.0313697954,go-nogo,001,42,
logos/3.jpg,properties3.xlsx,frogs/ab16.jpg,0,0,400,l,0,2,2,2,0,5,5,15,,,['l'],0,[0.09136710391612723],2018_Jul_09_0754,60.0313697954,go-nogo,001,42,
logos/3.jpg,properties3.xlsx,frogs/ab73.jpg,0,0,400,l,0,2,2,2,0,6,6,71,,,['l'],0,[0.15126344044256257],2018_Jul_09_0754,60.0313697954,go-nogo,001,42,
logos/3.jpg,properties3.xlsx,frogs/ab65.jpg,0,0,400,l,0,2,2,2,0,7,7,63,,,['l'],0,[0.09147420350200264],2018_Jul_09_0754,60.0313697954,go-nogo,001,42,
logos/3.jpg,properties3.xlsx,frogs/ab60.jpg,0,0,400,l,0,2,2,2,0,8,8,58,,,['l'],0,[0.0010701033752411604],2018_Jul_09_0754,60.0313697954,go-nogo,001,42,
logos/3.jpg,properties3.xlsx,frogs/ab34.jpg,0,0,400,l,0,2,2,2,0,9,9,33,,,['l'],0,[0.0010665333902579732],2018_Jul_09_0754,60.0313697954,go-nogo,001,42,
logos/3.jpg,properties3.xlsx,frogs/ab63.jpg,0,0,400,l,0,2,2,2,0,10,10,61,,,['l'],0,[0.06283532769157318],2018_Jul_09_0754,60.0313697954,go-nogo,001,42,
logos/3.jpg,properties3.xlsx,frogs/ab28.jpg,0,0,400,l,0,2,2,2,0,11,11,27,,,['l'],0,[0.03003652542247437],2018_Jul_09_0754,60.0313697954,go-nogo,001,42,
logos/3.jpg,properties3.xlsx,frogs/ab68.jpg,0,0,400,l,0,2,2,2,0,12,12,66,,,['l'],0,[0.6383595020743087],2018_Jul_09_0754,60.0313697954,go-nogo,001,42,
logos/3.jpg,properties3.xlsx,frogs/ab14.jpg,0,0,400,l,0,2,2,2,0,13,13,13,,,['l'],0,[0.0301538887215429],2018_Jul_09_0754,60.0313697954,go-nogo,001,42,
logos/3.jpg,properties3.xlsx,frogs/ab30.jpg,0,0,400,l,0,2,2,2,0,14,14,29,,,['l'],0,[0.0010611784091452137],2018_Jul_09_0754,60.0313697954,go-nogo,001,42,
logos/3.jpg,properties3.xlsx,logos/3.jpg,0,0,400,a,0,2,2,2,0,15,15,87,,,['a'],0,[0.03182151853980031],2018_Jul_09_0754,60.0313697954,go-nogo,001,42,
logos/3.jpg,properties3.xlsx,frogs/ab51.jpg,0,0,400,l,0,2,2,2,0,16,16,50,,,['l'],0,[0.42526033009198727],2018_Jul_09_0754,60.0313697954,go-nogo,001,42,
logos/3.jpg,properties3.xlsx,frogs/ab4.jpg,0,0,400,l,0,2,2,2,0,17,17,3,,,['l'],0,[0.09285266443475848],2018_Jul_09_0754,60.0313697954,go-nogo,001,42,
logos/3.jpg,properties3.xlsx,frogs/ab33.jpg,0,0,400,l,0,2,2,2,0,18,18,32,,,['l'],0,[0.4257168420808739],2018_Jul_09_0754,60.0313697954,go-nogo,001,42,
logos/3.jpg,properties3.xlsx,frogs/ab67.jpg,0,0,400,l,0,2,2,2,0,19,19,65,,,['l'],0,[0.09175757115735905],2018_Jul_09_0754,60.0313697954,go-nogo,001,42,
logos/3.jpg,properties3.xlsx,frogs/ab15.jpg,0,0,400,l,0,2,2,2,0,20,20,14,,,['l'],0,[0.27333331845875364],2018_Jul_09_0754,60.0313697954,go-nogo,001,42,
logos/3.jpg,properties3.xlsx,frogs/ab42.jpg,0,0,400,l,0,2,2,2,0,21,21,41,,,['l'],0,[0.45354577725811396],2018_Jul_09_0754,60.0313697954,go-nogo,001,42,
logos/3.jpg,properties3.xlsx,frogs/ab70.jpg,0,0,400,l,0,2,2,2,0,22,22,68,,,['l'],0,[0.305614026474359],2018_Jul_09_0754,60.0313697954,go-nogo,001,42,
logos/3.jpg,properties3.xlsx,frogs/ab37.jpg,0,0,400,l,0,2,2,2,0,23,23,36,,,['l'],0,[0.33565233688568696],2018_Jul_09_0754,60.0313697954,go-nogo,001,42,
logos/3.jpg,properties3.xlsx,frogs/ab40.jpg,0,0,400,l,0,2,2,2,0,24,24,39,,,['l'],0,[0.3018459060112946],2018_Jul_09_0754,60.0313697954,go-nogo,001,42,
logos/3.jpg,properties3.xlsx,frogs/ab62.jpg,0,0,400,l,0,2,2,2,0,25,25,60,,,['l'],0,[0.3900656208061264],2018_Jul_09_0754,60.0313697954,go-nogo,001,42,
logos/3.jpg,properties3.xlsx,frogs/ab3.jpg,0,0,400,l,0,2,2,2,0,26,26,2,,,['l'],0,[0.3015522746354691],2018_Jul_09_0754,60.0313697954,go-nogo,001,42,
logos/3.jpg,properties3.xlsx,frogs/ab45.jpg,0,0,400,l,0,2,2,2,0,27,27,44,,,['l'],0,[0.28489248763071373],2018_Jul_09_0754,60.0313697954,go-nogo,001,42,
logos/3.jpg,properties3.xlsx,frogs/ab19.jpg,0,0,400,l,0,2,2,2,0,28,28,18,,,['l'],0,[0.2850192221449106],2018_Jul_09_0754,60.0313697954,go-nogo,001,42,
logos/3.jpg,properties3.xlsx,frogs/ab35.jpg,0,0,400,l,0,2,2,2,0,29,29,34,,,['l'],0,[0.3014956011029426],2018_Jul_09_0754,60.0313697954,go-nogo,001,42,
logos/3.jpg,properties3.xlsx,logos/3.jpg,0,0,400,a,0,2,2,2,0,30,30,85,,,['l'],0,[0.684522101561015],2018_Jul_09_0754,60.0313697954,go-nogo,001,42,
logos/3.jpg,properties3.xlsx,frogs/ab76.jpg,0,0,400,l,0,2,2,2,0,31,31,74,,,['l'],0,[0.4347823758726008],2018_Jul_09_0754,60.0313697954,go-nogo,001,42,
logos/3.jpg,properties3.xlsx,frogs/ab44.jpg,0,0,400,l,0,2,2,2,0,32,32,43,,,['l'],0,[0.4010286022821674],2018_Jul_09_0754,60.0313697954,go-nogo,001,42,
logos/3.jpg,properties3.xlsx,frogs/ab78.jpg,0,0,400,l,0,2,2,2,0,33,33,76,,,['l'],0,[0.25177015535882674],2018_Jul_09_0754,60.0313697954,go-nogo,001,42,
logos/3.jpg,properties3.xlsx,frogs/ab72.jpg,0,0,400,l,0,2,2,2,0,34,34,70,,,['l'],0,[0.26777440364821814],2018_Jul_09_0754,60.0313697954,go-nogo,001,42,
logos/3.jpg,properties3.xlsx,frogs/ab38.jpg,0,0,400,l,0,2,2,2,0,35,35,37,,,['l'],0,[0.3178537242783932],2018_Jul_09_0754,60.0313697954,go-nogo,001,42,
logos/3.jpg,properties3.xlsx,frogs/ab25.jpg,0,0,400,l,0,2,2,2,0,36,36,24,,,['l'],0,[0.2844520405778894],2018_Jul_09_0754,60.0313697954,go-nogo,001,42,
logos/3.jpg,properties3.xlsx,frogs/ab43.jpg,0,0,400,l,0,2,2,2,0,37,37,42,,,['l'],0,[0.51792021527217],2018_Jul_09_0754,60.0313697954,go-nogo,001,42,
logos/3.jpg,properties3.xlsx,frogs/ab75.jpg,0,0,400,l,0,2,2,2,0,38,38,73,,,['l'],0,[0.31781266943289666],2018_Jul_09_0754,60.0313697954,go-nogo,001,42,
logos/3.jpg,properties3.xlsx,frogs/ab13.jpg,0,0,400,l,0,2,2,2,0,39,39,12,,,['l'],0,[0.2678083185091964],2018_Jul_09_0754,60.0313697954,go-nogo,001,42,
logos/3.jpg,properties3.xlsx,frogs/ab6.jpg,0,0,400,l,0,2,2,2,0,40,40,5,,,['l'],0,[0.33467862314137165],2018_Jul_09_0754,60.0313697954,go-nogo,001,42,
logos/3.jpg,properties3.xlsx,frogs/ab20.jpg,0,0,400,l,0,2,2,2,0,41,41,19,,,['l'],0,[0.3014661487250123],2018_Jul_09_0754,60.0313697954,go-nogo,001,42,
logos/3.jpg,properties3.xlsx,logos/3.jpg,0,0,400,a,0,2,2,2,0,42,42,80,,,['a'],0,[0.1504093212352018],2018_Jul_09_0754,60.0313697954,go-nogo,001,42,
logos/3.jpg,properties3.xlsx,logos/3.jpg,0,0,400,a,0,2,2,2,0,43,43,83,,,['l'],0,[0.4835809639407671],2018_Jul_09_0754,60.0313697954,go-nogo,001,42,
logos/3.jpg,properties3.xlsx,frogs/ab69.jpg,0,0,400,l,0,2,2,2,0,44,44,67,,,['l'],0,[0.4509731559373904],2018_Jul_09_0754,60.0313697954,go-nogo,001,42,
logos/3.jpg,properties3.xlsx,frogs/ab22.jpg,0,0,400,l,0,2,2,2,0,45,45,21,,,['l'],0,[0.5171330333105288],2018_Jul_09_0754,60.0313697954,go-nogo,001,42,
logos/3.jpg,properties3.xlsx,frogs/ab29.jpg,0,0,400,l,0,2,2,2,0,46,46,28,,,['l'],0,[0.3679214424555539],2018_Jul_09_0754,60.0313697954,go-nogo,001,42,
logos/3.jpg,properties3.xlsx,frogs/ab80.jpg,0,0,400,l,0,2,2,2,0,47,47,78,,,['l'],0,[0.38474098634469556],2018_Jul_09_0754,60.0313697954,go-nogo,001,42,
logos/3.jpg,properties3.xlsx,logos/3.jpg,0,0,400,a,0,2,2,2,0,48,48,82,,,['a'],0,[0.451183785124158],2018_Jul_09_0754,60.0313697954,go-nogo,001,42,
logos/3.jpg,properties3.xlsx,frogs/ab56.jpg,0,0,400,l,0,2,2,2,0,49,49,55,,,['l'],0,[0.3840448390255915],2018_Jul_09_0754,60.0313697954,go-nogo,001,42,
logos/3.jpg,properties3.xlsx,frogs/ab49.jpg,0,0,400,l,0,2,2,2,0,50,50,48,,,['l'],0,[0.3178126694401726],2018_Jul_09_0754,60.0313697954,go-nogo,001,42,
logos/3.jpg,properties3.xlsx,frogs/ab17.jpg,0,0,400,l,0,2,2,2,0,51,51,16,,,['l'],0,[0.41788696977164363],2018_Jul_09_0754,60.0313697954,go-nogo,001,42,
logos/3.jpg,properties3.xlsx,logos/3.jpg,0,0,400,a,0,2,2,2,0,52,52,86,,,['a'],0,[0.46763517418003175],2018_Jul_09_0754,60.0313697954,go-nogo,001,42,
logos/3.jpg,properties3.xlsx,frogs/ab53.jpg,0,0,400,l,0,2,2,2,0,53,53,52,,,['l'],0,[0.3838154674085672],2018_Jul_09_0754,60.0313697954,go-nogo,001,42,
logos/3.jpg,properties3.xlsx,frogs/ab74.jpg,0,0,400,l,0,2,2,2,0,54,54,72,,,['l'],0,[0.4175388961157296],2018_Jul_09_0754,60.0313697954,go-nogo,001,42,
logos/3.jpg,properties3.xlsx,logos/3.jpg,0,0,400,a,0,2,2,2,0,55,55,88,,,['a'],0,[0.43435487001988804],2018_Jul_09_0754,60.0313697954,go-nogo,001,42,
logos/3.jpg,properties3.xlsx,frogs/ab32.jpg,0,0,400,l,0,2,2,2,0,56,56,31,,,['l'],0,[0.367511786535033],2018_Jul_09_0754,60.0313697954,go-nogo,001,42,
logos/3.jpg,properties3.xlsx,frogs/ab5.jpg,0,0,400,l,0,2,2,2,0,57,57,4,,,['l'],0,[0.28344351947453106],2018_Jul_09_0754,60.0313697954,go-nogo,001,42,
logos/3.jpg,properties3.xlsx,frogs/ab77.jpg,0,0,400,l,0,2,2,2,0,58,58,75,,,['l'],0,[0.3675604275922524],2018_Jul_09_0754,60.0313697954,go-nogo,001,42,
logos/3.jpg,properties3.xlsx,logos/3.jpg,0,0,400,a,0,2,2,2,0,59,59,84,,,['a'],0,[0.43042967015935574],2018_Jul_09_0754,60.0313697954,go-nogo,001,42,
logos/3.jpg,properties3.xlsx,frogs/ab81.jpg,0,0,400,l,0,2,2,2,0,60,60,79,,,['l'],0,[0.39403276801022],2018_Jul_09_0754,60.0313697954,go-nogo,001,42,
logos/3.jpg,properties3.xlsx,frogs/ab50.jpg,0,0,400,l,0,2,2,2,0,61,61,49,,,['l'],0,[0.3612179008050589],2018_Jul_09_0754,60.0313697954,go-nogo,001,42,
logos/3.jpg,properties3.xlsx,frogs/ab24.jpg,0,0,400,l,0,2,2,2,0,62,62,23,,,['l'],0,[0.4523743755344185],2018_Jul_09_0754,60.0313697954,go-nogo,001,42,
logos/3.jpg,properties3.xlsx,frogs/ab1.jpg,0,0,400,l,0,2,2,2,0,63,63,0,,,['l'],0,[0.27219627784506883],2018_Jul_09_0754,60.0313697954,go-nogo,001,42,
logos/3.jpg,properties3.xlsx,frogs/ab31.jpg,0,0,400,l,0,2,2,2,0,64,64,30,,,['l'],0,[0.4213953737416887],2018_Jul_09_0754,60.0313697954,go-nogo,001,42,
logos/3.jpg,properties3.xlsx,frogs/ab9.jpg,0,0,400,l,0,2,2,2,0,65,65,8,,,['l'],0,[0.6085242346307496],2018_Jul_09_0754,60.0313697954,go-nogo,001,42,
logos/3.jpg,properties3.xlsx,frogs/ab10.jpg,0,0,400,l,0,2,2,2,0,66,66,9,,,['l'],0,[0.3321015393376001],2018_Jul_09_0754,60.0313697954,go-nogo,001,42,
logos/3.jpg,properties3.xlsx,frogs/ab61.jpg,0,0,400,l,0,2,2,2,0,67,67,59,,,['l'],0,[0.27169781851262087],2018_Jul_09_0754,60.0313697954,go-nogo,001,42,
logos/3.jpg,properties3.xlsx,frogs/ab47.jpg,0,0,400,l,0,2,2,2,0,68,68,46,,,['l'],0,[1.2119942612407613],2018_Jul_09_0754,60.0313697954,go-nogo,001,42,
logos/3.jpg,properties3.xlsx,frogs/ab27.jpg,0,0,400,l,0,2,2,2,0,69,69,26,,,['l'],0,[0.4216162666489254],2018_Jul_09_0754,60.0313697954,go-nogo,001,42,
logos/3.jpg,properties3.xlsx,frogs/ab36.jpg,0,0,400,l,0,2,2,2,0,70,70,35,,,['l'],0,[0.3330292895043385],2018_Jul_09_0754,60.0313697954,go-nogo,001,42,
logos/3.jpg,properties3.xlsx,frogs/ab55.jpg,0,0,400,l,0,2,2,2,0,71,71,54,,,['l'],0,[0.36205060008796863],2018_Jul_09_0754,60.0313697954,go-nogo,001,42,
logos/3.jpg,properties3.xlsx,logos/3.jpg,0,0,400,a,0,2,2,2,0,72,72,81,,,['a'],0,[0.33348312400630675],2018_Jul_09_0754,60.0313697954,go-nogo,001,42,
logos/3.jpg,properties3.xlsx,frogs/ab8.jpg,0,0,400,l,0,2,2,2,0,73,73,7,,,['l'],0,[0.33321582128701266],2018_Jul_09_0754,60.0313697954,go-nogo,001,42,
logos/3.jpg,properties3.xlsx,frogs/ab7.jpg,0,0,400,l,0,2,2,2,0,74,74,6,,,['l'],0,[0.3049625039930106],2018_Jul_09_0754,60.0313697954,go-nogo,001,42,
logos/3.jpg,properties3.xlsx,frogs/ab64.jpg,0,0,400,l,0,2,2,2,0,75,75,62,,,['l'],0,[0.30318866707966663],2018_Jul_09_0754,60.0313697954,go-nogo,001,42,
logos/3.jpg,properties3.xlsx,frogs/ab26.jpg,0,0,400,l,0,2,2,2,0,76,76,25,,,['l'],0,[0.3031101273809327],2018_Jul_09_0754,60.0313697954,go-nogo,001,42,
logos/3.jpg,properties3.xlsx,frogs/ab79.jpg,0,0,400,l,0,2,2,2,0,77,77,77,,,['l'],0,[0.27380634164001094],2018_Jul_09_0754,60.0313697954,go-nogo,001,42,
logos/3.jpg,properties3.xlsx,frogs/ab39.jpg,0,0,400,l,0,2,2,2,0,78,78,38,,,['l'],0,[0.3021498010857613],2018_Jul_09_0754,60.0313697954,go-nogo,001,42,
logos/3.jpg,properties3.xlsx,frogs/ab12.jpg,0,0,400,l,0,2,2,2,0,79,79,11,,,['l'],0,[0.3942367034687777],2018_Jul_09_0754,60.0313697954,go-nogo,001,42,
logos/3.jpg,properties3.xlsx,frogs/ab54.jpg,0,0,400,l,0,2,2,2,0,80,80,53,,,['l'],0,[0.36433226754161296],2018_Jul_09_0754,60.0313697954,go-nogo,001,42,
logos/3.jpg,properties3.xlsx,frogs/ab57.jpg,0,0,400,l,0,2,2,2,0,81,81,56,,,['l'],0,[0.3622411481119343],2018_Jul_09_0754,60.0313697954,go-nogo,001,42,
logos/3.jpg,properties3.xlsx,frogs/ab21.jpg,0,0,400,l,0,2,2,2,0,82,82,20,,,['l'],0,[0.36405246987123974],2018_Jul_09_0754,60.0313697954,go-nogo,001,42,
logos/3.jpg,properties3.xlsx,frogs/ab58.jpg,0,0,400,l,0,2,2,2,0,83,83,57,,,['l'],0,[0.5197931192960823],2018_Jul_09_0754,60.0313697954,go-nogo,001,42,
logos/3.jpg,properties3.xlsx,logos/3.jpg,0,0,400,a,0,2,2,2,0,84,84,89,,,['a'],0,[0.3647655746244709],2018_Jul_09_0754,60.0313697954,go-nogo,001,42,
logos/3.jpg,properties3.xlsx,frogs/ab52.jpg,0,0,400,l,0,2,2,2,0,85,85,51,,,['l'],0,[0.3955401947023347],2018_Jul_09_0754,60.0313697954,go-nogo,001,42,
logos/3.jpg,properties3.xlsx,frogs/ab18.jpg,0,0,400,l,0,2,2,2,0,86,86,17,,,['l'],0,[0.3023599840234965],2018_Jul_09_0754,60.0313697954,go-nogo,001,42,
logos/3.jpg,properties3.xlsx,frogs/ab41.jpg,0,0,400,l,0,2,2,2,0,87,87,40,,,['l'],0,[0.4257387082470814],2018_Jul_09_0754,60.0313697954,go-nogo,001,42,
logos/3.jpg,properties3.xlsx,frogs/ab11.jpg,0,0,400,l,0,2,2,2,0,88,88,10,,,['l'],0,[0.30353718698461307],2018_Jul_09_0754,60.0313697954,go-nogo,001,42,
logos/3.jpg,properties3.xlsx,frogs/ab66.jpg,0,0,400,l,0,2,2,2,0,89,89,64,,,['l'],0,[0.30596879385848297],2018_Jul_09_0754,60.0313697954,go-nogo,001,42,
logos/3.jpg,properties3.xlsx,,,,,,0,2,2,2,,,,,,,,,,2018_Jul_09_0754,60.0313697954,go-nogo,001,42,
logos/4.jpg,properties4.xlsx,logos/4.jpg,0,0,400,a,0,3,3,3,0,0,0,82,space,2.36225855179,['a'],0,[0.12082306032971246],2018_Jul_09_0754,60.0313697954,go-nogo,001,42,
logos/4.jpg,properties4.xlsx,frogs/ab28.jpg,0,0,400,l,0,3,3,3,0,1,1,27,,,['l'],0,[1.0355356429645326],2018_Jul_09_0754,60.0313697954,go-nogo,001,42,
logos/4.jpg,properties4.xlsx,frogs/ab58.jpg,0,0,400,l,0,3,3,3,0,2,2,57,,,['l'],0,[0.4016149725212017],2018_Jul_09_0754,60.0313697954,go-nogo,001,42,
logos/4.jpg,properties4.xlsx,frogs/ab43.jpg,0,0,400,l,0,3,3,3,0,3,3,42,,,['l'],0,[0.26821931317681447],2018_Jul_09_0754,60.0313697954,go-nogo,001,42,
logos/4.jpg,properties4.xlsx,frogs/ab25.jpg,0,0,400,l,0,3,3,3,0,4,4,24,,,['l'],0,[0.21824307589849923],2018_Jul_09_0754,60.0313697954,go-nogo,001,42,
logos/4.jpg,properties4.xlsx,frogs/ab12.jpg,0,0,400,l,0,3,3,3,0,5,5,11,,,['l'],0,[0.28388798276137095],2018_Jul_09_0754,60.0313697954,go-nogo,001,42,
logos/4.jpg,properties4.xlsx,frogs/ab39.jpg,0,0,400,l,0,3,3,3,0,6,6,38,,,['l'],0,[0.317752425915387],2018_Jul_09_0754,60.0313697954,go-nogo,001,42,
logos/4.jpg,properties4.xlsx,frogs/ab19.jpg,0,0,400,l,0,3,3,3,0,7,7,18,,,['l'],0,[0.46777975861914456],2018_Jul_09_0754,60.0313697954,go-nogo,001,42,
logos/4.jpg,properties4.xlsx,frogs/ab75.jpg,0,0,400,l,0,3,3,3,0,8,8,73,,,['l'],0,[0.3513834812256391],2018_Jul_09_0754,60.0313697954,go-nogo,001,42,
logos/4.jpg,properties4.xlsx,frogs/ab72.jpg,0,0,400,l,0,3,3,3,0,9,9,70,,,['l'],0,[0.3181263819715241],2018_Jul_09_0754,60.0313697954,go-nogo,001,42,
logos/4.jpg,properties4.xlsx,frogs/ab68.jpg,0,0,400,l,0,3,3,3,0,10,10,66,,,['l'],0,[0.31834236614668043],2018_Jul_09_0754,60.0313697954,go-nogo,001,42,
logos/4.jpg,properties4.xlsx,frogs/ab22.jpg,0,0,400,l,0,3,3,3,0,11,11,21,,,['l'],0,[0.30105426155932946],2018_Jul_09_0754,60.0313697954,go-nogo,001,42,
logos/4.jpg,properties4.xlsx,frogs/ab48.jpg,0,0,400,l,0,3,3,3,0,12,12,47,,,['l'],0,[0.35104076254356187],2018_Jul_09_0754,60.0313697954,go-nogo,001,42,
logos/4.jpg,properties4.xlsx,frogs/ab54.jpg,0,0,400,l,0,3,3,3,0,13,13,53,,,['l'],0,[0.25136451567232143],2018_Jul_09_0754,60.0313697954,go-nogo,001,42,
logos/4.jpg,properties4.xlsx,frogs/ab27.jpg,0,0,400,l,0,3,3,3,0,14,14,26,,,['l'],0,[0.25091246617375873],2018_Jul_09_0754,60.0313697954,go-nogo,001,42,
logos/4.jpg,properties4.xlsx,frogs/ab30.jpg,0,0,400,l,0,3,3,3,0,15,15,29,,,['l'],0,[0.23429998147912556],2018_Jul_09_0754,60.0313697954,go-nogo,001,42,
logos/4.jpg,properties4.xlsx,frogs/ab81.jpg,0,0,400,l,0,3,3,3,0,16,16,79,,,['l'],0,[0.3010181154459133],2018_Jul_09_0754,60.0313697954,go-nogo,001,42,
logos/4.jpg,properties4.xlsx,frogs/ab66.jpg,0,0,400,l,0,3,3,3,0,17,17,64,,,['l'],0,[0.2843270910670981],2018_Jul_09_0754,60.0313697954,go-nogo,001,42,
logos/4.jpg,properties4.xlsx,frogs/ab73.jpg,0,0,400,l,0,3,3,3,0,18,18,71,,,['l'],0,[0.28466802475304576],2018_Jul_09_0754,60.0313697954,go-nogo,001,42,
logos/4.jpg,properties4.xlsx,frogs/ab74.jpg,0,0,400,l,0,3,3,3,0,19,19,72,,,['l'],0,[0.2842547988402657],2018_Jul_09_0754,60.0313697954,go-nogo,001,42,
logos/4.jpg,properties4.xlsx,logos/4.jpg,0,0,400,a,0,3,3,3,0,20,20,89,,,['a'],0,[0.7507533786556451],2018_Jul_09_0754,60.0313697954,go-nogo,001,42,
logos/4.jpg,properties4.xlsx,frogs/ab26.jpg,0,0,400,l,0,3,3,3,0,21,21,25,,,['l'],0,[0.3335268563387217],2018_Jul_09_0754,60.0313697954,go-nogo,001,42,
logos/4.jpg,properties4.xlsx,frogs/ab4.jpg,0,0,400,l,0,3,3,3,0,22,22,3,,,['l'],0,[0.2674102650489658],2018_Jul_09_0754,60.0313697954,go-nogo,001,42,
logos/4.jpg,properties4.xlsx,frogs/ab2.jpg,0,0,400,l,0,3,3,3,0,23,23,1,,,['l'],0,[0.4008010156612727],2018_Jul_09_0754,60.0313697954,go-nogo,001,42,
logos/4.jpg,properties4.xlsx,frogs/ab9.jpg,0,0,400,l,0,3,3,3,0,24,24,8,,,['l'],0,[0.3345014625811018],2018_Jul_09_0754,60.0313697954,go-nogo,001,42,
logos/4.jpg,properties4.xlsx,frogs/ab46.jpg,0,0,400,l,0,3,3,3,0,25,25,45,,,['l'],0,[0.3513058340322459],2018_Jul_09_0754,60.0313697954,go-nogo,001,42,
logos/4.jpg,properties4.xlsx,frogs/ab13.jpg,0,0,400,l,0,3,3,3,0,26,26,12,,,['l'],0,[0.43370111628610175],2018_Jul_09_0754,60.0313697954,go-nogo,001,42,
logos/4.jpg,properties4.xlsx,frogs/ab77.jpg,0,0,400,l,0,3,3,3,0,27,27,75,,,['l'],0,[0.36782594532269286],2018_Jul_09_0754,60.0313697954,go-nogo,001,42,
logos/4.jpg,properties4.xlsx,logos/4.jpg,0,0,400,a,0,3,3,3,0,28,28,87,,,['a'],0,[0.48468587468232727],2018_Jul_09_0754,60.0313697954,go-nogo,001,42,
logos/4.jpg,properties4.xlsx,logos/4.jpg,0,0,400,a,0,3,3,3,0,29,29,84,,,['l'],0,[0.31763997134839883],2018_Jul_09_0754,60.0313697954,go-nogo,001,42,
logos/4.jpg,properties4.xlsx,frogs/ab37.jpg,0,0,400,l,0,3,3,3,0,30,30,36,,,['l'],0,[0.3185239891972742],2018_Jul_09_0754,60.0313697954,go-nogo,001,42,
logos/4.jpg,properties4.xlsx,frogs/ab31.jpg,0,0,400,l,0,3,3,3,0,31,31,30,,,['l'],0,[0.33426762848102953],2018_Jul_09_0754,60.0313697954,go-nogo,001,42,
logos/4.jpg,properties4.xlsx,frogs/ab57.jpg,0,0,400,l,0,3,3,3,0,32,32,56,,,['l'],0,[0.3679682985166437],2018_Jul_09_0754,60.0313697954,go-nogo,001,42,
logos/4.jpg,properties4.xlsx,frogs/ab61.jpg,0,0,400,l,0,3,3,3,0,33,33,59,,,['l'],0,[0.4011780954533606],2018_Jul_09_0754,60.0313697954,go-nogo,001,42,
logos/4.jpg,properties4.xlsx,frogs/ab49.jpg,0,0,400,l,0,3,3,3,0,34,34,48,,,['l'],0,[0.3510871723701712],2018_Jul_09_0754,60.0313697954,go-nogo,001,42,
logos/4.jpg,properties4.xlsx,frogs/ab3.jpg,0,0,400,l,0,3,3,3,0,35,35,2,,,['l'],0,[0.3677822129902779],2018_Jul_09_0754,60.0313697954,go-nogo,001,42,
logos/4.jpg,properties4.xlsx,frogs/ab11.jpg,0,0,400,l,0,3,3,3,0,36,36,10,,,['l'],0,[0.2842534601004445],2018_Jul_09_0754,60.0313697954,go-nogo,001,42,
logos/4.jpg,properties4.xlsx,frogs/ab34.jpg,0,0,400,l,0,3,3,3,0,37,37,33,,,['l'],0,[0.4526287370463251],2018_Jul_09_0754,60.0313697954,go-nogo,001,42,
logos/4.jpg,properties4.xlsx,frogs/ab5.jpg,0,0,400,l,0,3,3,3,0,38,38,4,,,['l'],0,[0.4828727679196163],2018_Jul_09_0754,60.0313697954,go-nogo,001,42,
logos/4.jpg,properties4.xlsx,frogs/ab60.jpg,0,0,400,l,0,3,3,3,0,39,39,58,,,['l'],0,[0.273690763329796],2018_Jul_09_0754,60.0313697954,go-nogo,001,42,
logos/4.jpg,properties4.xlsx,frogs/ab38.jpg,0,0,400,l,0,3,3,3,0,40,40,37,,,['l'],0,[0.3312924912024755],2018_Jul_09_0754,60.0313697954,go-nogo,001,42,
logos/4.jpg,properties4.xlsx,frogs/ab36.jpg,0,0,400,l,0,3,3,3,0,41,41,35,,,['l'],0,[0.27107440966938157],2018_Jul_09_0754,60.0313697954,go-nogo,001,42,
logos/4.jpg,properties4.xlsx,frogs/ab65.jpg,0,0,400,l,0,3,3,3,0,42,42,63,,,['l'],0,[0.4550478489691159],2018_Jul_09_0754,60.0313697954,go-nogo,001,42,
logos/4.jpg,properties4.xlsx,frogs/ab69.jpg,0,0,400,l,0,3,3,3,0,43,43,67,,,['l'],0,[0.24148457877890905],2018_Jul_09_0754,60.0313697954,go-nogo,001,42,
logos/4.jpg,properties4.xlsx,frogs/ab32.jpg,0,0,400,l,0,3,3,3,0,44,44,31,,,['l'],0,[0.3013465541880578],2018_Jul_09_0754,60.0313697954,go-nogo,001,42,
logos/4.jpg,properties4.xlsx,frogs/ab1.jpg,0,0,400,l,0,3,3,3,0,45,45,0,,,['l'],0,[0.4210852311953204],2018_Jul_09_0754,60.0313697954,go-nogo,001,42,
logos/4.jpg,properties4.xlsx,frogs/ab52.jpg,0,0,400,l,0,3,3,3,0,46,46,51,,,['l'],0,[0.4230906709562987],2018_Jul_09_0754,60.0313697954,go-nogo,001,42,
logos/4.jpg,properties4.xlsx,frogs/ab63.jpg,0,0,400,l,0,3,3,3,0,47,47,61,,,['l'],0,[0.39532331803638954],2018_Jul_09_0754,60.0313697954,go-nogo,001,42,
logos/4.jpg,properties4.xlsx,frogs/ab10.jpg,0,0,400,l,0,3,3,3,0,48,48,9,,,['l'],0,[0.7840385915551451],2018_Jul_09_0754,60.0313697954,go-nogo,001,42,
logos/4.jpg,properties4.xlsx,frogs/ab20.jpg,0,0,400,l,0,3,3,3,0,49,49,19,,,['l'],0,[0.33373793176724575],2018_Jul_09_0754,60.0313697954,go-nogo,001,42,
logos/4.jpg,properties4.xlsx,frogs/ab35.jpg,0,0,400,l,0,3,3,3,0,50,50,34,,,['l'],0,[0.36349956825142726],2018_Jul_09_0754,60.0313697954,go-nogo,001,42,
logos/4.jpg,properties4.xlsx,frogs/ab62.jpg,0,0,400,l,0,3,3,3,0,51,51,60,,,['l'],0,[0.5439650498374249],2018_Jul_09_0754,60.0313697954,go-nogo,001,42,
logos/4.jpg,properties4.xlsx,frogs/ab16.jpg,0,0,400,l,0,3,3,3,0,52,52,15,,,['l'],0,[0.873195873988152],2018_Jul_09_0754,60.0313697954,go-nogo,001,42,
logos/4.jpg,properties4.xlsx,frogs/ab17.jpg,0,0,400,l,0,3,3,3,0,53,53,16,,,['l'],0,[0.4809494378423551],2018_Jul_09_0754,60.0313697954,go-nogo,001,42,
logos/4.jpg,properties4.xlsx,frogs/ab33.jpg,0,0,400,l,0,3,3,3,0,54,54,32,,,['l'],0,[0.5119311171147274],2018_Jul_09_0754,60.0313697954,go-nogo,001,42,
logos/4.jpg,properties4.xlsx,frogs/ab50.jpg,0,0,400,l,0,3,3,3,0,55,55,49,,,['l'],0,[0.24388227077724878],2018_Jul_09_0754,60.0313697954,go-nogo,001,42,
logos/4.jpg,properties4.xlsx,logos/4.jpg,0,0,400,a,0,3,3,3,0,56,56,80,,,['a'],0,[0.3330145633153734],2018_Jul_09_0754,60.0313697954,go-nogo,001,42,
logos/4.jpg,properties4.xlsx,frogs/ab51.jpg,0,0,400,l,0,3,3,3,0,57,57,50,,,['l'],0,[0.27216593295452185],2018_Jul_09_0754,60.0313697954,go-nogo,001,42,
logos/4.jpg,properties4.xlsx,frogs/ab8.jpg,0,0,400,l,0,3,3,3,0,58,58,7,,,['l'],0,[0.3016807941457955],2018_Jul_09_0754,60.0313697954,go-nogo,001,42,
logos/4.jpg,properties4.xlsx,frogs/ab78.jpg,0,0,400,l,0,3,3,3,0,59,59,76,,,['l'],0,[0.33292352865828434],2018_Jul_09_0754,60.0313697954,go-nogo,001,42,
logos/4.jpg,properties4.xlsx,frogs/ab7.jpg,0,0,400,l,0,3,3,3,0,60,60,6,,,['l'],0,[0.33740832386683905],2018_Jul_09_0754,60.0313697954,go-nogo,001,42,
logos/4.jpg,properties4.xlsx,frogs/ab47.jpg,0,0,400,l,0,3,3,3,0,61,61,46,,,['l'],0,[0.18389177587232552],2018_Jul_09_0754,60.0313697954,go-nogo,001,42,
logos/4.jpg,properties4.xlsx,frogs/ab70.jpg,0,0,400,l,0,3,3,3,0,62,62,68,,,['l'],0,[0.363124273448193],2018_Jul_09_0754,60.0313697954,go-nogo,001,42,
logos/4.jpg,properties4.xlsx,frogs/ab44.jpg,0,0,400,l,0,3,3,3,0,63,63,43,,,['l'],0,[0.3617498287494527],2018_Jul_09_0754,60.0313697954,go-nogo,001,42,
logos/4.jpg,properties4.xlsx,frogs/ab41.jpg,0,0,400,l,0,3,3,3,0,64,64,40,,,['l'],0,[0.30783321917260764],2018_Jul_09_0754,60.0313697954,go-nogo,001,42,
logos/4.jpg,properties4.xlsx,frogs/ab71.jpg,0,0,400,l,0,3,3,3,0,65,65,69,,,['l'],0,[0.2731164417928085],2018_Jul_09_0754,60.0313697954,go-nogo,001,42,
logos/4.jpg,properties4.xlsx,frogs/ab64.jpg,0,0,400,l,0,3,3,3,0,66,66,62,,,['l'],0,[0.30503077997855144],2018_Jul_09_0754,60.0313697954,go-nogo,001,42,
logos/4.jpg,properties4.xlsx,frogs/ab6.jpg,0,0,400,l,0,3,3,3,0,67,67,5,,,['l'],0,[0.331910545071878],2018_Jul_09_0754,60.0313697954,go-nogo,001,42,
logos/4.jpg,properties4.xlsx,logos/4.jpg,0,0,400,a,0,3,3,3,0,68,68,85,,,['a'],0,[0.36172885508131003],2018_Jul_09_0754,60.0313697954,go-nogo,001,42,
logos/4.jpg,properties4.xlsx,frogs/ab40.jpg,0,0,400,l,0,3,3,3,0,69,69,39,,,['l'],0,[0.3659360838573775],2018_Jul_09_0754,60.0313697954,go-nogo,001,42,
logos/4.jpg,properties4.xlsx,frogs/ab23.jpg,0,0,400,l,0,3,3,3,0,70,70,22,,,['l'],0,[0.27207177457603393],2018_Jul_09_0754,60.0313697954,go-nogo,001,42,
logos/4.jpg,properties4.xlsx,logos/4.jpg,0,0,400,a,0,3,3,3,0,71,71,83,,,['a'],0,[0.3331113991953316],2018_Jul_09_0754,60.0313697954,go-nogo,001,42,
logos/4.jpg,properties4.xlsx,frogs/ab29.jpg,0,0,400,l,0,3,3,3,0,72,72,28,,,['l'],0,[0.2720075148245087],2018_Jul_09_0754,60.0313697954,go-nogo,001,42,
logos/4.jpg,properties4.xlsx,frogs/ab76.jpg,0,0,400,l,0,3,3,3,0,73,73,74,,,['l'],0,[0.27303210087120533],2018_Jul_09_0754,60.0313697954,go-nogo,001,42,
logos/4.jpg,properties4.xlsx,frogs/ab42.jpg,0,0,400,l,0,3,3,3,0,74,74,41,,,['l'],0,[0.3347906314666034],2018_Jul_09_0754,60.0313697954,go-nogo,001,42,
logos/4.jpg,properties4.xlsx,frogs/ab56.jpg,0,0,400,l,0,3,3,3,0,75,75,55,,,['l'],0,[0.8472219928953564],2018_Jul_09_0754,60.0313697954,go-nogo,001,42,
logos/4.jpg,properties4.xlsx,frogs/ab79.jpg,0,0,400,l,0,3,3,3,0,76,76,77,,,['l'],0,[0.42304693862388376],2018_Jul_09_0754,60.0313697954,go-nogo,001,42,
logos/4.jpg,properties4.xlsx,frogs/ab18.jpg,0,0,400,l,0,3,3,3,0,77,77,17,,,['l'],0,[0.5426914572453825],2018_Jul_09_0754,60.0313697954,go-nogo,001,42,
logos/4.jpg,properties4.xlsx,frogs/ab67.jpg,0,0,400,l,0,3,3,3,0,78,78,65,,,['l'],0,[0.45115567148604896],2018_Jul_09_0754,60.0313697954,go-nogo,001,42,
logos/4.jpg,properties4.xlsx,logos/4.jpg,0,0,400,a,0,3,3,3,0,79,79,88,,,['a'],0,[0.3847137651973753],2018_Jul_09_0754,60.0313697954,go-nogo,001,42,
logos/4.jpg,properties4.xlsx,frogs/ab80.jpg,0,0,400,l,0,3,3,3,0,80,80,78,,,['l'],0,[0.31809782208438264],2018_Jul_09_0754,60.0313697954,go-nogo,001,42,
logos/4.jpg,properties4.xlsx,frogs/ab21.jpg,0,0,400,l,0,3,3,3,0,81,81,20,,,['l'],0,[0.3015317472163588],2018_Jul_09_0754,60.0313697954,go-nogo,001,42,
logos/4.jpg,properties4.xlsx,frogs/ab14.jpg,0,0,400,l,0,3,3,3,0,82,82,13,,,['l'],0,[0.33479821768560214],2018_Jul_09_0754,60.0313697954,go-nogo,001,42,
logos/4.jpg,properties4.xlsx,frogs/ab53.jpg,0,0,400,l,0,3,3,3,0,83,83,52,,,['l'],0,[0.11792423150473041],2018_Jul_09_0754,60.0313697954,go-nogo,001,42,
logos/4.jpg,properties4.xlsx,frogs/ab45.jpg,0,0,400,l,0,3,3,3,0,84,84,44,,,['l'],0,[0.2848264428830589],2018_Jul_09_0754,60.0313697954,go-nogo,001,42,
logos/4.jpg,properties4.xlsx,logos/4.jpg,0,0,400,a,0,3,3,3,0,85,85,86,,,['a'],0,[0.4182154085065122],2018_Jul_09_0754,60.0313697954,go-nogo,001,42,
logos/4.jpg,properties4.xlsx,frogs/ab55.jpg,0,0,400,l,0,3,3,3,0,86,86,54,,,['l'],0,[0.26799485029187053],2018_Jul_09_0754,60.0313697954,go-nogo,001,42,
logos/4.jpg,properties4.xlsx,frogs/ab15.jpg,0,0,400,l,0,3,3,3,0,87,87,14,,,['l'],0,[0.33488657484122086],2018_Jul_09_0754,60.0313697954,go-nogo,001,42,
logos/4.jpg,properties4.xlsx,logos/4.jpg,0,0,400,a,0,3,3,3,0,88,88,81,,,['a'],0,[0.7175498291981057],2018_Jul_09_0754,60.0313697954,go-nogo,001,42,
logos/4.jpg,properties4.xlsx,frogs/ab24.jpg,0,0,400,l,0,3,3,3,0,89,89,23,,,['l'],0,[0.6175562998032547],2018_Jul_09_0754,60.0313697954,go-nogo,001,42,
logos/4.jpg,properties4.xlsx,,,,,,0,3,3,3,,,,,,,,,,2018_Jul_09_0754,60.0313697954,go-nogo,001,42,
