pix,source,image1,x,y,size,answer,trials_2.thisRepN,trials_2.thisTrialN,trials_2.thisN,trials_2.thisIndex,trials.thisRepN,trials.thisTrialN,trials.thisN,trials.thisIndex,key_resp_3.keys,key_resp_3.rt,key_resp_2.keys,key_resp_2.corr,key_resp_2.rt,date,frameRate,expName,session,participant,
logos/4.jpg,properties4.xlsx,frogs/ab60.jpg,0,0,400,l,0,0,0,3,0,0,0,58,space,8.68865837686,['a'],0,[1.5839038245685515],2018_Jul_09_0800,60.0553411587,go-nogo,001,43,
logos/4.jpg,properties4.xlsx,logos/4.jpg,0,0,400,a,0,0,0,3,0,1,1,80,,,['l'],0,[1.200672942402889],2018_Jul_09_0800,60.0553411587,go-nogo,001,43,
logos/4.jpg,properties4.xlsx,frogs/ab24.jpg,0,0,400,l,0,0,0,3,0,2,2,23,,,['l'],0,[0.7841470298881177],2018_Jul_09_0800,60.0553411587,go-nogo,001,43,
logos/4.jpg,properties4.xlsx,frogs/ab54.jpg,0,0,400,l,0,0,0,3,0,3,3,53,,,['l'],0,[0.21760270962113282],2018_Jul_09_0800,60.0553411587,go-nogo,001,43,
logos/4.jpg,properties4.xlsx,frogs/ab37.jpg,0,0,400,l,0,0,0,3,0,4,4,36,,,['l'],0,[0.1844116551146726],2018_Jul_09_0800,60.0553411587,go-nogo,001,43,
logos/4.jpg,properties4.xlsx,frogs/ab2.jpg,0,0,400,l,0,0,0,3,0,5,5,1,,,['l'],0,[0.3502321606647456],2018_Jul_09_0800,60.0553411587,go-nogo,001,43,
logos/4.jpg,properties4.xlsx,logos/4.jpg,0,0,400,a,0,0,0,3,0,6,6,89,,,['a'],0,[0.2177655902414699],2018_Jul_09_0800,60.0553411587,go-nogo,001,43,
logos/4.jpg,properties4.xlsx,frogs/ab30.jpg,0,0,400,l,0,0,0,3,0,7,7,29,,,['l'],0,[0.2843270910670981],2018_Jul_09_0800,60.0553411587,go-nogo,001,43,
logos/4.jpg,properties4.xlsx,frogs/ab47.jpg,0,0,400,l,0,0,0,3,0,8,8,46,,,['l'],0,[0.334071725490503],2018_Jul_09_0800,60.0553411587,go-nogo,001,43,
logos/4.jpg,properties4.xlsx,frogs/ab80.jpg,0,0,400,l,0,0,0,3,0,9,9,78,,,['l'],0,[0.03455434300121851],2018_Jul_09_0800,60.0553411587,go-nogo,001,43,
logos/4.jpg,properties4.xlsx,logos/4.jpg,0,0,400,a,0,0,0,3,0,10,10,83,,,['a'],0,[0.10101766919979127],2018_Jul_09_0800,60.0553411587,go-nogo,001,43,
logos/4.jpg,properties4.xlsx,frogs/ab53.jpg,0,0,400,l,0,0,0,3,0,11,11,52,,,['l'],0,[1.017481330090959],2018_Jul_09_0800,60.0553411587,go-nogo,001,43,
logos/4.jpg,properties4.xlsx,logos/4.jpg,0,0,400,a,0,0,0,3,0,12,12,85,,,['a'],0,[1.983776197557745],2018_Jul_09_0800,60.0553411587,go-nogo,001,43,
logos/4.jpg,properties4.xlsx,frogs/ab77.jpg,0,0,400,l,0,0,0,3,0,13,13,75,,,['l'],0,[0.350981411524117],2018_Jul_09_0800,60.0553411587,go-nogo,001,43,
logos/4.jpg,properties4.xlsx,frogs/ab29.jpg,0,0,400,l,0,0,0,3,0,14,14,28,,,['l'],0,[0.6507205794041511],2018_Jul_09_0800,60.0553411587,go-nogo,001,43,
logos/4.jpg,properties4.xlsx,frogs/ab42.jpg,0,0,400,l,0,0,0,3,0,15,15,41,,,['l'],0,[0.2677489674897515],2018_Jul_09_0800,60.0553411587,go-nogo,001,43,
logos/4.jpg,properties4.xlsx,frogs/ab63.jpg,0,0,400,l,0,0,0,3,0,16,16,61,,,['l'],0,[0.20042259711772203],2018_Jul_09_0800,60.0553411587,go-nogo,001,43,
logos/4.jpg,properties4.xlsx,frogs/ab78.jpg,0,0,400,l,0,0,0,3,0,17,17,76,,,['l'],0,[0.2686178128933534],2018_Jul_09_0800,60.0553411587,go-nogo,001,43,
logos/4.jpg,properties4.xlsx,frogs/ab56.jpg,0,0,400,l,0,0,0,3,0,18,18,55,,,['l'],0,[0.1676068374144961],2018_Jul_09_0800,60.0553411587,go-nogo,001,43,
logos/4.jpg,properties4.xlsx,frogs/ab51.jpg,0,0,400,l,0,0,0,3,0,19,19,50,,,['l'],0,[0.10126756823592586],2018_Jul_09_0800,60.0553411587,go-nogo,001,43,
logos/4.jpg,properties4.xlsx,frogs/ab57.jpg,0,0,400,l,0,0,0,3,0,20,20,56,,,['l'],0,[0.13488523609703407],2018_Jul_09_0800,60.0553411587,go-nogo,001,43,
logos/4.jpg,properties4.xlsx,frogs/ab68.jpg,0,0,400,l,0,0,0,3,0,21,21,66,,,['l'],0,[0.017152891348814592],2018_Jul_09_0800,60.0553411587,go-nogo,001,43,
logos/4.jpg,properties4.xlsx,frogs/ab11.jpg,0,0,400,l,0,0,0,3,0,22,22,10,,,['l'],0,[0.9176993223736645],2018_Jul_09_0800,60.0553411587,go-nogo,001,43,
logos/4.jpg,properties4.xlsx,frogs/ab65.jpg,0,0,400,l,0,0,0,3,0,23,23,63,,,['l'],0,[0.30026395585446153],2018_Jul_09_0800,60.0553411587,go-nogo,001,43,
logos/4.jpg,properties4.xlsx,frogs/ab8.jpg,0,0,400,l,0,0,0,3,0,24,24,7,,,['l'],0,[0.30107166524248896],2018_Jul_09_0800,60.0553411587,go-nogo,001,43,
logos/4.jpg,properties4.xlsx,frogs/ab52.jpg,0,0,400,l,0,0,0,3,0,25,25,51,,,['l'],0,[0.2842864824706339],2018_Jul_09_0800,60.0553411587,go-nogo,001,43,
logos/4.jpg,properties4.xlsx,logos/4.jpg,0,0,400,a,0,0,0,3,0,26,26,86,,,['a'],0,[0.15054944319126662],2018_Jul_09_0800,60.0553411587,go-nogo,001,43,
logos/4.jpg,properties4.xlsx,frogs/ab27.jpg,0,0,400,l,0,0,0,3,0,27,27,26,,,['l'],0,[0.1669660248880973],2018_Jul_09_0800,60.0553411587,go-nogo,001,43,
logos/4.jpg,properties4.xlsx,frogs/ab34.jpg,0,0,400,l,0,0,0,3,0,28,28,33,,,['l'],0,[0.11839636218792293],2018_Jul_09_0800,60.0553411587,go-nogo,001,43,
logos/4.jpg,properties4.xlsx,frogs/ab55.jpg,0,0,400,l,0,0,0,3,0,29,29,54,,,['l'],0,[0.16766395719605498],2018_Jul_09_0800,60.0553411587,go-nogo,001,43,
logos/4.jpg,properties4.xlsx,frogs/ab73.jpg,0,0,400,l,0,0,0,3,0,30,30,71,,,['l'],0,[0.034245092938363086],2018_Jul_09_0800,60.0553411587,go-nogo,001,43,
logos/4.jpg,properties4.xlsx,frogs/ab12.jpg,0,0,400,l,0,0,0,3,0,31,31,11,,,['l'],0,[0.16690801260847365],2018_Jul_09_0800,60.0553411587,go-nogo,001,43,
logos/4.jpg,properties4.xlsx,frogs/ab69.jpg,0,0,400,l,0,0,0,3,0,32,32,67,,,['l'],0,[0.05094861227553338],2018_Jul_09_0800,60.0553411587,go-nogo,001,43,
logos/4.jpg,properties4.xlsx,frogs/ab33.jpg,0,0,400,l,0,0,0,3,0,33,33,32,,,['l'],0,[0.03460610780166462],2018_Jul_09_0800,60.0553411587,go-nogo,001,43,
logos/4.jpg,properties4.xlsx,frogs/ab46.jpg,0,0,400,l,0,0,0,3,0,34,34,45,,,['l'],0,[0.06776280119083822],2018_Jul_09_0800,60.0553411587,go-nogo,001,43,
logos/4.jpg,properties4.xlsx,frogs/ab35.jpg,0,0,400,l,0,0,0,3,0,35,35,34,,,['l'],0,[0.001101340756576974],2018_Jul_09_0800,60.0553411587,go-nogo,001,43,
logos/4.jpg,properties4.xlsx,frogs/ab48.jpg,0,0,400,l,0,0,0,3,0,36,36,47,,,['l'],0,[0.017251065975870006],2018_Jul_09_0800,60.0553411587,go-nogo,001,43,
logos/4.jpg,properties4.xlsx,frogs/ab20.jpg,0,0,400,l,0,0,0,3,0,37,37,19,,,['l'],0,[0.0010674258810468018],2018_Jul_09_0800,60.0553411587,go-nogo,001,43,
logos/4.jpg,properties4.xlsx,frogs/ab62.jpg,0,0,400,l,0,0,0,3,0,38,38,60,,,['l'],0,[0.017890093506139237],2018_Jul_09_0800,60.0553411587,go-nogo,001,43,
logos/4.jpg,properties4.xlsx,frogs/ab25.jpg,0,0,400,l,0,0,0,3,0,39,39,24,,,['l'],0,[0.4010705496184528],2018_Jul_09_0800,60.0553411587,go-nogo,001,43,
logos/4.jpg,properties4.xlsx,frogs/ab36.jpg,0,0,400,l,0,0,0,3,0,40,40,35,,,['l'],0,[0.16898217461130116],2018_Jul_09_0800,60.0553411587,go-nogo,001,43,
logos/4.jpg,properties4.xlsx,frogs/ab3.jpg,0,0,400,l,0,0,0,3,0,41,41,2,,,['l'],0,[0.08462518491433002],2018_Jul_09_0800,60.0553411587,go-nogo,001,43,
logos/4.jpg,properties4.xlsx,frogs/ab19.jpg,0,0,400,l,0,0,0,3,0,42,42,18,,,['l'],0,[0.18458167570497608],2018_Jul_09_0800,60.0553411587,go-nogo,001,43,
logos/4.jpg,properties4.xlsx,frogs/ab58.jpg,0,0,400,l,0,0,0,3,0,43,43,57,,,['l'],0,[0.5512281868286664],2018_Jul_09_0800,60.0553411587,go-nogo,001,43,
logos/4.jpg,properties4.xlsx,frogs/ab38.jpg,0,0,400,l,0,0,0,3,0,44,44,37,,,['l'],0,[0.20060288142849458],2018_Jul_09_0800,60.0553411587,go-nogo,001,43,
logos/4.jpg,properties4.xlsx,frogs/ab61.jpg,0,0,400,l,0,0,0,3,0,45,45,59,,,['l'],0,[0.2511936025839532],2018_Jul_09_0800,60.0553411587,go-nogo,001,43,
logos/4.jpg,properties4.xlsx,logos/4.jpg,0,0,400,a,0,0,0,3,0,46,46,81,,,['a'],0,[0.2681452359611285],2018_Jul_09_0800,60.0553411587,go-nogo,001,43,
logos/4.jpg,properties4.xlsx,frogs/ab31.jpg,0,0,400,l,0,0,0,3,0,47,47,30,,,['l'],0,[0.21779325763782253],2018_Jul_09_0800,60.0553411587,go-nogo,001,43,
logos/4.jpg,properties4.xlsx,frogs/ab13.jpg,0,0,400,l,0,0,0,3,0,48,48,12,,,['l'],0,[0.1674890278663952],2018_Jul_09_0800,60.0553411587,go-nogo,001,43,
logos/4.jpg,properties4.xlsx,frogs/ab39.jpg,0,0,400,l,0,0,0,3,0,49,49,38,,,['l'],0,[0.2011548905429663],2018_Jul_09_0800,60.0553411587,go-nogo,001,43,
logos/4.jpg,properties4.xlsx,frogs/ab32.jpg,0,0,400,l,0,0,0,3,0,50,50,31,,,['l'],0,[0.13435553939052625],2018_Jul_09_0800,60.0553411587,go-nogo,001,43,
logos/4.jpg,properties4.xlsx,frogs/ab76.jpg,0,0,400,l,0,0,0,3,0,51,51,74,,,['l'],0,[0.09231582775828429],2018_Jul_09_0800,60.0553411587,go-nogo,001,43,
logos/4.jpg,properties4.xlsx,frogs/ab71.jpg,0,0,400,l,0,0,0,3,0,52,52,69,,,['l'],0,[0.12462777315522544],2018_Jul_09_0800,60.0553411587,go-nogo,001,43,
logos/4.jpg,properties4.xlsx,logos/4.jpg,0,0,400,a,0,0,0,3,0,53,53,84,,,['a'],0,[0.06168043713842053],2018_Jul_09_0800,60.0553411587,go-nogo,001,43,
logos/4.jpg,properties4.xlsx,frogs/ab64.jpg,0,0,400,l,0,0,0,3,0,54,54,62,,,['l'],0,[0.06236542825354263],2018_Jul_09_0800,60.0553411587,go-nogo,001,43,
logos/4.jpg,properties4.xlsx,frogs/ab26.jpg,0,0,400,l,0,0,0,3,0,55,55,25,,,['l'],0,[0.06319411130971275],2018_Jul_09_0800,60.0553411587,go-nogo,001,43,
logos/4.jpg,properties4.xlsx,frogs/ab72.jpg,0,0,400,l,0,0,0,3,0,56,56,70,,,['l'],0,[0.0015774876665091142],2018_Jul_09_0800,60.0553411587,go-nogo,001,43,
logos/4.jpg,properties4.xlsx,logos/4.jpg,0,0,400,a,0,0,0,3,0,57,57,87,,,['a'],0,[0.05975532207230572],2018_Jul_09_0800,60.0553411587,go-nogo,001,43,
logos/4.jpg,properties4.xlsx,frogs/ab9.jpg,0,0,400,l,0,0,0,3,0,58,58,8,,,['l'],0,[0.1259669642386143],2018_Jul_09_0800,60.0553411587,go-nogo,001,43,
logos/4.jpg,properties4.xlsx,frogs/ab79.jpg,0,0,400,l,0,0,0,3,0,59,59,77,,,['l'],0,[0.7566858032805612],2018_Jul_09_0800,60.0553411587,go-nogo,001,43,
logos/4.jpg,properties4.xlsx,frogs/ab67.jpg,0,0,400,l,0,0,0,3,0,60,60,65,,,['l'],0,[0.21416927535756258],2018_Jul_09_0800,60.0553411587,go-nogo,001,43,
logos/4.jpg,properties4.xlsx,frogs/ab43.jpg,0,0,400,l,0,0,0,3,0,61,61,42,,,['l'],0,[0.09342832471884321],2018_Jul_09_0800,60.0553411587,go-nogo,001,43,
logos/4.jpg,properties4.xlsx,frogs/ab21.jpg,0,0,400,l,0,0,0,3,0,62,62,20,,,['l'],0,[0.63955321622052],2018_Jul_09_0800,60.0553411587,go-nogo,001,43,
logos/4.jpg,properties4.xlsx,frogs/ab44.jpg,0,0,400,l,0,0,0,3,0,63,63,43,,,['l'],0,[1.0010379734958406],2018_Jul_09_0800,60.0553411587,go-nogo,001,43,
logos/4.jpg,properties4.xlsx,frogs/ab50.jpg,0,0,400,l,0,0,0,3,0,64,64,49,,,['l'],0,[0.15206579484220129],2018_Jul_09_0800,60.0553411587,go-nogo,001,43,
logos/4.jpg,properties4.xlsx,frogs/ab4.jpg,0,0,400,l,0,0,0,3,0,65,65,3,,,['l'],0,[0.0013387448416324332],2018_Jul_09_0800,60.0553411587,go-nogo,001,43,
logos/4.jpg,properties4.xlsx,frogs/ab28.jpg,0,0,400,l,0,0,0,3,0,66,66,27,,,['l'],0,[0.21406396076781675],2018_Jul_09_0800,60.0553411587,go-nogo,001,43,
logos/4.jpg,properties4.xlsx,frogs/ab75.jpg,0,0,400,l,0,0,0,3,0,67,67,73,,,['l'],0,[0.0011209756776224822],2018_Jul_09_0800,60.0553411587,go-nogo,001,43,
logos/4.jpg,properties4.xlsx,frogs/ab45.jpg,0,0,400,l,0,0,0,3,0,68,68,44,,,['l'],0,[0.03265644906787202],2018_Jul_09_0800,60.0553411587,go-nogo,001,43,
logos/4.jpg,properties4.xlsx,frogs/ab41.jpg,0,0,400,l,0,0,0,3,0,69,69,40,,,['l'],0,[0.1234059453709051],2018_Jul_09_0800,60.0553411587,go-nogo,001,43,
logos/4.jpg,properties4.xlsx,frogs/ab66.jpg,0,0,400,l,0,0,0,3,0,70,70,64,,,['l'],0,[0.21530363848432899],2018_Jul_09_0800,60.0553411587,go-nogo,001,43,
logos/4.jpg,properties4.xlsx,logos/4.jpg,0,0,400,a,0,0,0,3,0,71,71,88,,,['a'],0,[0.09299144765100209],2018_Jul_09_0800,60.0553411587,go-nogo,001,43,
logos/4.jpg,properties4.xlsx,frogs/ab81.jpg,0,0,400,l,0,0,0,3,0,72,72,79,,,['l'],0,[0.031854094660957344],2018_Jul_09_0800,60.0553411587,go-nogo,001,43,
logos/4.jpg,properties4.xlsx,frogs/ab74.jpg,0,0,400,l,0,0,0,3,0,73,73,72,,,['l'],0,[0.06227305486390833],2018_Jul_09_0800,60.0553411587,go-nogo,001,43,
logos/4.jpg,properties4.xlsx,frogs/ab7.jpg,0,0,400,l,0,0,0,3,0,74,74,6,,,['l'],0,[0.15416985547926743],2018_Jul_09_0800,60.0553411587,go-nogo,001,43,
logos/4.jpg,properties4.xlsx,frogs/ab17.jpg,0,0,400,l,0,0,0,3,0,75,75,16,,,['l'],0,[0.18300865052151494],2018_Jul_09_0800,60.0553411587,go-nogo,001,43,
logos/4.jpg,properties4.xlsx,frogs/ab16.jpg,0,0,400,l,0,0,0,3,0,76,76,15,,,['l'],0,[0.21307284333306598],2018_Jul_09_0800,60.0553411587,go-nogo,001,43,
logos/4.jpg,properties4.xlsx,frogs/ab49.jpg,0,0,400,l,0,0,0,3,0,77,77,48,,,['l'],0,[0.15270437613071408],2018_Jul_09_0800,60.0553411587,go-nogo,001,43,
logos/4.jpg,properties4.xlsx,frogs/ab40.jpg,0,0,400,l,0,0,0,3,0,78,78,39,,,['l'],0,[0.12438546033808962],2018_Jul_09_0800,60.0553411587,go-nogo,001,43,
logos/4.jpg,properties4.xlsx,logos/4.jpg,0,0,400,a,0,0,0,3,0,79,79,82,,,['a'],0,[0.09258580796449678],2018_Jul_09_0800,60.0553411587,go-nogo,001,43,
logos/4.jpg,properties4.xlsx,frogs/ab70.jpg,0,0,400,l,0,0,0,3,0,80,80,68,,,['l'],0,[0.03234898400842212],2018_Jul_09_0800,60.0553411587,go-nogo,001,43,
logos/4.jpg,properties4.xlsx,frogs/ab14.jpg,0,0,400,l,0,0,0,3,0,81,81,13,,,['l'],0,[0.03032078557589557],2018_Jul_09_0800,60.0553411587,go-nogo,001,43,
logos/4.jpg,properties4.xlsx,frogs/ab5.jpg,0,0,400,l,0,0,0,3,0,82,82,4,,,['a'],0,[0.061405101951095276],2018_Jul_09_0800,60.0553411587,go-nogo,001,43,
logos/4.jpg,properties4.xlsx,frogs/ab22.jpg,0,0,400,l,0,0,0,3,0,83,83,21,,,['l'],0,[0.3968619820952881],2018_Jul_09_0800,60.0553411587,go-nogo,001,43,
logos/4.jpg,properties4.xlsx,frogs/ab18.jpg,0,0,400,l,0,0,0,3,0,84,84,17,,,['l'],0,[0.09265274520294042],2018_Jul_09_0800,60.0553411587,go-nogo,001,43,
logos/4.jpg,properties4.xlsx,frogs/ab15.jpg,0,0,400,l,0,0,0,3,0,85,85,14,,,['l'],0,[0.302664771596028],2018_Jul_09_0800,60.0553411587,go-nogo,001,43,
logos/4.jpg,properties4.xlsx,frogs/ab23.jpg,0,0,400,l,0,0,0,3,0,86,86,22,,,['l'],0,[0.30787025777681265],2018_Jul_09_0800,60.0553411587,go-nogo,001,43,
logos/4.jpg,properties4.xlsx,frogs/ab1.jpg,0,0,400,l,0,0,0,3,0,87,87,0,,,['l'],0,[0.4241589893354103],2018_Jul_09_0800,60.0553411587,go-nogo,001,43,
logos/4.jpg,properties4.xlsx,frogs/ab6.jpg,0,0,400,l,0,0,0,3,0,88,88,5,,,['l'],0,[0.3025014447339345],2018_Jul_09_0800,60.0553411587,go-nogo,001,43,
logos/4.jpg,properties4.xlsx,frogs/ab10.jpg,0,0,400,l,0,0,0,3,0,89,89,9,,,['l'],0,[0.18306487780500902],2018_Jul_09_0800,60.0553411587,go-nogo,001,43,
logos/4.jpg,properties4.xlsx,,,,,,0,0,0,3,,,,,,,,,,2018_Jul_09_0800,60.0553411587,go-nogo,001,43,
logos/2.jpg,properties2.xlsx,frogs/ab57.jpg,0,0,400,l,0,1,1,1,0,0,0,56,space,10.0059368871,['l'],0,[0.349706033943221],2018_Jul_09_0800,60.0553411587,go-nogo,001,43,
logos/2.jpg,properties2.xlsx,frogs/ab67.jpg,0,0,400,l,0,1,1,1,0,1,1,65,,,['l'],0,[0.38406982892774977],2018_Jul_09_0800,60.0553411587,go-nogo,001,43,
logos/2.jpg,properties2.xlsx,frogs/ab40.jpg,0,0,400,l,0,1,1,1,0,2,2,39,,,['l'],0,[0.2841798291337909],2018_Jul_09_0800,60.0553411587,go-nogo,001,43,
logos/2.jpg,properties2.xlsx,frogs/ab38.jpg,0,0,400,l,0,1,1,1,0,3,3,37,,,['l'],0,[0.035250044071290176],2018_Jul_09_0800,60.0553411587,go-nogo,001,43,
logos/2.jpg,properties2.xlsx,logos/2.jpg,0,0,400,a,0,1,1,1,0,4,4,87,,,['a'],0,[0.06795736543426756],2018_Jul_09_0800,60.0553411587,go-nogo,001,43,
logos/2.jpg,properties2.xlsx,logos/2.jpg,0,0,400,a,0,1,1,1,0,5,5,83,,,['a'],0,[0.2845430752277025],2018_Jul_09_0800,60.0553411587,go-nogo,001,43,
logos/2.jpg,properties2.xlsx,frogs/ab68.jpg,0,0,400,l,0,1,1,1,0,6,6,66,,,['l'],0,[0.2510882879869314],2018_Jul_09_0800,60.0553411587,go-nogo,001,43,
logos/2.jpg,properties2.xlsx,frogs/ab22.jpg,0,0,400,l,0,1,1,1,0,7,7,21,,,['l'],0,[0.25121948498417623],2018_Jul_09_0800,60.0553411587,go-nogo,001,43,
logos/2.jpg,properties2.xlsx,frogs/ab21.jpg,0,0,400,l,0,1,1,1,0,8,8,20,,,['l'],0,[1.867336634080857],2018_Jul_09_0800,60.0553411587,go-nogo,001,43,
logos/2.jpg,properties2.xlsx,logos/2.jpg,0,0,400,a,0,1,1,1,0,9,9,88,,,['a'],0,[0.28412717183528],2018_Jul_09_0800,60.0553411587,go-nogo,001,43,
logos/2.jpg,properties2.xlsx,frogs/ab6.jpg,0,0,400,l,0,1,1,1,0,10,10,5,,,['l'],0,[0.20101744608109584],2018_Jul_09_0800,60.0553411587,go-nogo,001,43,
logos/2.jpg,properties2.xlsx,frogs/ab80.jpg,0,0,400,l,0,1,1,1,0,11,11,78,,,['l'],0,[0.23442359225009568],2018_Jul_09_0800,60.0553411587,go-nogo,001,43,
logos/2.jpg,properties2.xlsx,frogs/ab45.jpg,0,0,400,l,0,1,1,1,0,12,12,44,,,['l'],0,[0.15103094508958748],2018_Jul_09_0800,60.0553411587,go-nogo,001,43,
logos/2.jpg,properties2.xlsx,frogs/ab51.jpg,0,0,400,l,0,1,1,1,0,13,13,50,,,['l'],0,[0.23442046852142084],2018_Jul_09_0800,60.0553411587,go-nogo,001,43,
logos/2.jpg,properties2.xlsx,frogs/ab10.jpg,0,0,400,l,0,1,1,1,0,14,14,9,,,['l'],0,[0.1677148294984363],2018_Jul_09_0800,60.0553411587,go-nogo,001,43,
logos/2.jpg,properties2.xlsx,frogs/ab16.jpg,0,0,400,l,0,1,1,1,0,15,15,15,,,['l'],0,[0.23451775063585956],2018_Jul_09_0800,60.0553411587,go-nogo,001,43,
logos/2.jpg,properties2.xlsx,frogs/ab23.jpg,0,0,400,l,0,1,1,1,0,16,16,22,,,['l'],0,[0.2343843224007287],2018_Jul_09_0800,60.0553411587,go-nogo,001,43,
logos/2.jpg,properties2.xlsx,logos/2.jpg,0,0,400,a,0,1,1,1,0,17,17,86,,,['a'],0,[0.00107545835635392],2018_Jul_09_0800,60.0553411587,go-nogo,001,43,
logos/2.jpg,properties2.xlsx,frogs/ab70.jpg,0,0,400,l,0,1,1,1,0,18,18,68,,,['l'],0,[0.05113826779415831],2018_Jul_09_0800,60.0553411587,go-nogo,001,43,
logos/2.jpg,properties2.xlsx,frogs/ab12.jpg,0,0,400,l,0,1,1,1,0,19,19,11,,,['l'],0,[0.0677462900057435],2018_Jul_09_0800,60.0553411587,go-nogo,001,43,
logos/2.jpg,properties2.xlsx,frogs/ab5.jpg,0,0,400,l,0,1,1,1,0,20,20,4,,,['l'],0,[0.21751747619418893],2018_Jul_09_0800,60.0553411587,go-nogo,001,43,
logos/2.jpg,properties2.xlsx,frogs/ab27.jpg,0,0,400,l,0,1,1,1,0,21,21,26,,,['l'],0,[0.15110725354315946],2018_Jul_09_0800,60.0553411587,go-nogo,001,43,
logos/2.jpg,properties2.xlsx,frogs/ab33.jpg,0,0,400,l,0,1,1,1,0,22,22,32,,,['l'],0,[0.26790515438915463],2018_Jul_09_0800,60.0553411587,go-nogo,001,43,
logos/2.jpg,properties2.xlsx,logos/2.jpg,0,0,400,a,0,1,1,1,0,23,23,85,,,['a'],0,[0.03453560057096183],2018_Jul_09_0800,60.0553411587,go-nogo,001,43,
logos/2.jpg,properties2.xlsx,logos/2.jpg,0,0,400,a,0,1,1,1,0,24,24,81,,,['a'],0,[0.7836610655067489],2018_Jul_09_0800,60.0553411587,go-nogo,001,43,
logos/2.jpg,properties2.xlsx,frogs/ab36.jpg,0,0,400,l,0,1,1,1,0,25,25,35,,,['l'],0,[0.0511186328731128],2018_Jul_09_0800,60.0553411587,go-nogo,001,43,
logos/2.jpg,properties2.xlsx,frogs/ab69.jpg,0,0,400,l,0,1,1,1,0,26,26,67,,,['l'],0,[1.0010375272468082],2018_Jul_09_0800,60.0553411587,go-nogo,001,43,
logos/2.jpg,properties2.xlsx,frogs/ab26.jpg,0,0,400,l,0,1,1,1,0,27,27,25,,,['l'],0,[0.0513011484144954],2018_Jul_09_0800,60.0553411587,go-nogo,001,43,
logos/2.jpg,properties2.xlsx,frogs/ab37.jpg,0,0,400,l,0,1,1,1,0,28,28,36,,,['l'],0,[0.600360568612814],2018_Jul_09_0800,60.0553411587,go-nogo,001,43,
logos/2.jpg,properties2.xlsx,frogs/ab9.jpg,0,0,400,l,0,1,1,1,0,29,29,8,,,['l'],0,[0.28443865313602146],2018_Jul_09_0800,60.0553411587,go-nogo,001,43,
logos/2.jpg,properties2.xlsx,frogs/ab18.jpg,0,0,400,l,0,1,1,1,0,30,30,17,,,['l'],0,[0.18441924133367138],2018_Jul_09_0800,60.0553411587,go-nogo,001,43,
logos/2.jpg,properties2.xlsx,frogs/ab29.jpg,0,0,400,l,0,1,1,1,0,31,31,28,,,['l'],0,[0.1677670405479148],2018_Jul_09_0800,60.0553411587,go-nogo,001,43,
logos/2.jpg,properties2.xlsx,frogs/ab64.jpg,0,0,400,l,0,1,1,1,0,32,32,62,,,['l'],0,[0.28444088437390747],2018_Jul_09_0800,60.0553411587,go-nogo,001,43,
logos/2.jpg,properties2.xlsx,frogs/ab81.jpg,0,0,400,l,0,1,1,1,0,33,33,79,,,['l'],0,[0.2811346308735665],2018_Jul_09_0800,60.0553411587,go-nogo,001,43,
logos/2.jpg,properties2.xlsx,frogs/ab19.jpg,0,0,400,l,0,1,1,1,0,34,34,18,,,['l'],0,[0.15210818842751905],2018_Jul_09_0800,60.0553411587,go-nogo,001,43,
logos/2.jpg,properties2.xlsx,frogs/ab61.jpg,0,0,400,l,0,1,1,1,0,35,35,59,,,['l'],0,[0.24479350975889247],2018_Jul_09_0800,60.0553411587,go-nogo,001,43,
logos/2.jpg,properties2.xlsx,frogs/ab73.jpg,0,0,400,l,0,1,1,1,0,36,36,71,,,['l'],0,[0.2740798918312066],2018_Jul_09_0800,60.0553411587,go-nogo,001,43,
logos/2.jpg,properties2.xlsx,frogs/ab8.jpg,0,0,400,l,0,1,1,1,0,37,37,7,,,['l'],0,[0.18380788119247882],2018_Jul_09_0800,60.0553411587,go-nogo,001,43,
logos/2.jpg,properties2.xlsx,frogs/ab25.jpg,0,0,400,l,0,1,1,1,0,38,38,24,,,['l'],0,[0.06165633973432705],2018_Jul_09_0800,60.0553411587,go-nogo,001,43,
logos/2.jpg,properties2.xlsx,logos/2.jpg,0,0,400,a,0,1,1,1,0,39,39,89,,,['a'],0,[0.05987402411119547],2018_Jul_09_0800,60.0553411587,go-nogo,001,43,
logos/2.jpg,properties2.xlsx,frogs/ab53.jpg,0,0,400,l,0,1,1,1,0,40,40,52,,,['l'],0,[0.062298044766066596],2018_Jul_09_0800,60.0553411587,go-nogo,001,43,
logos/2.jpg,properties2.xlsx,frogs/ab3.jpg,0,0,400,l,0,1,1,1,0,41,41,2,,,['l'],0,[0.12119389264989877],2018_Jul_09_0800,60.0553411587,go-nogo,001,43,
logos/2.jpg,properties2.xlsx,frogs/ab20.jpg,0,0,400,l,0,1,1,1,0,42,42,19,,,['l'],0,[0.15226705282111652],2018_Jul_09_0800,60.0553411587,go-nogo,001,43,
logos/2.jpg,properties2.xlsx,frogs/ab42.jpg,0,0,400,l,0,1,1,1,0,43,43,41,,,['l'],0,[0.24090802599675953],2018_Jul_09_0800,60.0553411587,go-nogo,001,43,
logos/2.jpg,properties2.xlsx,frogs/ab17.jpg,0,0,400,l,0,1,1,1,0,44,44,16,,,['l'],0,[0.0324980309305829],2018_Jul_09_0800,60.0553411587,go-nogo,001,43,
logos/2.jpg,properties2.xlsx,frogs/ab47.jpg,0,0,400,l,0,1,1,1,0,45,45,46,,,['l'],0,[3.246532093064161],2018_Jul_09_0800,60.0553411587,go-nogo,001,43,
logos/2.jpg,properties2.xlsx,frogs/ab46.jpg,0,0,400,l,0,1,1,1,0,46,46,45,,,['l'],0,[0.3055270080585615],2018_Jul_09_0800,60.0553411587,go-nogo,001,43,
logos/2.jpg,properties2.xlsx,frogs/ab54.jpg,0,0,400,l,0,1,1,1,0,47,47,53,,,['l'],0,[0.30279909232922364],2018_Jul_09_0800,60.0553411587,go-nogo,001,43,
logos/2.jpg,properties2.xlsx,frogs/ab74.jpg,0,0,400,l,0,1,1,1,0,48,48,72,,,['l'],0,[0.12259109600563534],2018_Jul_09_0800,60.0553411587,go-nogo,001,43,
logos/2.jpg,properties2.xlsx,frogs/ab39.jpg,0,0,400,l,0,1,1,1,0,49,49,38,,,['l'],0,[0.2415693659495446],2018_Jul_09_0800,60.0553411587,go-nogo,001,43,
logos/2.jpg,properties2.xlsx,frogs/ab50.jpg,0,0,400,l,0,1,1,1,0,50,50,49,,,['l'],0,[0.1515227106938255],2018_Jul_09_0800,60.0553411587,go-nogo,001,43,
logos/2.jpg,properties2.xlsx,frogs/ab31.jpg,0,0,400,l,0,1,1,1,0,51,51,30,,,['l'],0,[0.21474359689455014],2018_Jul_09_0800,60.0553411587,go-nogo,001,43,
logos/2.jpg,properties2.xlsx,frogs/ab48.jpg,0,0,400,l,0,1,1,1,0,52,52,47,,,['l'],0,[0.0900752151501365],2018_Jul_09_0800,60.0553411587,go-nogo,001,43,
logos/2.jpg,properties2.xlsx,frogs/ab32.jpg,0,0,400,l,0,1,1,1,0,53,53,31,,,['l'],0,[0.12251925003511133],2018_Jul_09_0800,60.0553411587,go-nogo,001,43,
logos/2.jpg,properties2.xlsx,frogs/ab56.jpg,0,0,400,l,0,1,1,1,0,54,54,55,,,['l'],0,[0.3087667705694912],2018_Jul_09_0800,60.0553411587,go-nogo,001,43,
logos/2.jpg,properties2.xlsx,frogs/ab15.jpg,0,0,400,l,0,1,1,1,0,55,55,14,,,['l'],0,[0.24397419792512665],2018_Jul_09_0800,60.0553411587,go-nogo,001,43,
logos/2.jpg,properties2.xlsx,frogs/ab14.jpg,0,0,400,l,0,1,1,1,0,56,56,13,,,['l'],0,[0.21380736800347222],2018_Jul_09_0800,60.0553411587,go-nogo,001,43,
logos/2.jpg,properties2.xlsx,frogs/ab41.jpg,0,0,400,l,0,1,1,1,0,57,57,40,,,['l'],0,[0.2746466271491954],2018_Jul_09_0800,60.0553411587,go-nogo,001,43,
logos/2.jpg,properties2.xlsx,frogs/ab65.jpg,0,0,400,l,0,1,1,1,0,58,58,63,,,['l'],0,[0.8510146570260986],2018_Jul_09_0800,60.0553411587,go-nogo,001,43,
logos/2.jpg,properties2.xlsx,frogs/ab79.jpg,0,0,400,l,0,1,1,1,0,59,59,77,,,['l'],0,[0.2435386596043827],2018_Jul_09_0800,60.0553411587,go-nogo,001,43,
logos/2.jpg,properties2.xlsx,frogs/ab76.jpg,0,0,400,l,0,1,1,1,0,60,60,74,,,['l'],0,[0.2755444786816952],2018_Jul_09_0800,60.0553411587,go-nogo,001,43,
logos/2.jpg,properties2.xlsx,frogs/ab1.jpg,0,0,400,l,0,1,1,1,0,61,61,0,,,['l'],0,[0.21259178769105347],2018_Jul_09_0800,60.0553411587,go-nogo,001,43,
logos/2.jpg,properties2.xlsx,logos/2.jpg,0,0,400,a,0,1,1,1,0,62,62,80,,,['a'],0,[0.1536959398072213],2018_Jul_09_0800,60.0553411587,go-nogo,001,43,
logos/2.jpg,properties2.xlsx,logos/2.jpg,0,0,400,a,0,1,1,1,0,63,63,84,,,['a'],0,[0.21350302667997312],2018_Jul_09_0800,60.0553411587,go-nogo,001,43,
logos/2.jpg,properties2.xlsx,frogs/ab7.jpg,0,0,400,l,0,1,1,1,0,64,64,6,,,['l'],0,[0.09123769191501196],2018_Jul_09_0800,60.0553411587,go-nogo,001,43,
logos/2.jpg,properties2.xlsx,frogs/ab72.jpg,0,0,400,l,0,1,1,1,0,65,65,70,,,['l'],0,[0.09204674004286062],2018_Jul_09_0800,60.0553411587,go-nogo,001,43,
logos/2.jpg,properties2.xlsx,frogs/ab11.jpg,0,0,400,l,0,1,1,1,0,66,66,10,,,['l'],0,[0.15195423278055387],2018_Jul_09_0800,60.0553411587,go-nogo,001,43,
logos/2.jpg,properties2.xlsx,frogs/ab55.jpg,0,0,400,l,0,1,1,1,0,67,67,54,,,['l'],0,[0.09239213621913223],2018_Jul_09_0800,60.0553411587,go-nogo,001,43,
logos/2.jpg,properties2.xlsx,frogs/ab43.jpg,0,0,400,l,0,1,1,1,0,68,68,42,,,['l'],0,[1.6093547026757733],2018_Jul_09_0800,60.0553411587,go-nogo,001,43,
logos/2.jpg,properties2.xlsx,frogs/ab28.jpg,0,0,400,l,0,1,1,1,0,69,69,27,,,['l'],0,[0.24171261164156022],2018_Jul_09_0800,60.0553411587,go-nogo,001,43,
logos/2.jpg,properties2.xlsx,frogs/ab13.jpg,0,0,400,l,0,1,1,1,0,70,70,12,,,['l'],0,[0.06335743817180628],2018_Jul_09_0800,60.0553411587,go-nogo,001,43,
logos/2.jpg,properties2.xlsx,frogs/ab75.jpg,0,0,400,l,0,1,1,1,0,71,71,73,,,['l'],0,[0.21831269063113723],2018_Jul_09_0800,60.0553411587,go-nogo,001,43,
logos/2.jpg,properties2.xlsx,frogs/ab2.jpg,0,0,400,l,0,1,1,1,0,72,72,1,,,['l'],0,[0.36814902907644864],2018_Jul_09_0800,60.0553411587,go-nogo,001,43,
logos/2.jpg,properties2.xlsx,frogs/ab58.jpg,0,0,400,l,0,1,1,1,0,73,73,57,,,['l'],0,[0.16813385663408553],2018_Jul_09_0800,60.0553411587,go-nogo,001,43,
logos/2.jpg,properties2.xlsx,frogs/ab66.jpg,0,0,400,l,0,1,1,1,0,74,74,64,,,['l'],0,[0.23462752772320528],2018_Jul_09_0800,60.0553411587,go-nogo,001,43,
logos/2.jpg,properties2.xlsx,frogs/ab34.jpg,0,0,400,l,0,1,1,1,0,75,75,33,,,['l'],0,[0.11720621801941888],2018_Jul_09_0800,60.0553411587,go-nogo,001,43,
logos/2.jpg,properties2.xlsx,frogs/ab77.jpg,0,0,400,l,0,1,1,1,0,76,76,75,,,['l'],0,[0.21794899828819325],2018_Jul_09_0800,60.0553411587,go-nogo,001,43,
logos/2.jpg,properties2.xlsx,frogs/ab35.jpg,0,0,400,l,0,1,1,1,0,77,77,34,,,['l'],0,[0.20120040787151083],2018_Jul_09_0800,60.0553411587,go-nogo,001,43,
logos/2.jpg,properties2.xlsx,frogs/ab78.jpg,0,0,400,l,0,1,1,1,0,78,78,76,,,['l'],0,[0.23469223371648695],2018_Jul_09_0800,60.0553411587,go-nogo,001,43,
logos/2.jpg,properties2.xlsx,frogs/ab30.jpg,0,0,400,l,0,1,1,1,0,79,79,29,,,['l'],0,[0.08465686854469823],2018_Jul_09_0800,60.0553411587,go-nogo,001,43,
logos/2.jpg,properties2.xlsx,frogs/ab63.jpg,0,0,400,l,0,1,1,1,0,80,80,61,,,['l'],0,[0.10139117900689598],2018_Jul_09_0800,60.0553411587,go-nogo,001,43,
logos/2.jpg,properties2.xlsx,frogs/ab4.jpg,0,0,400,l,0,1,1,1,0,81,81,3,,,['l'],0,[0.16804326823330484],2018_Jul_09_0800,60.0553411587,go-nogo,001,43,
logos/2.jpg,properties2.xlsx,logos/2.jpg,0,0,400,a,0,1,1,1,0,82,82,82,,,['a'],0,[0.2515974572743289],2018_Jul_09_0800,60.0553411587,go-nogo,001,43,
logos/2.jpg,properties2.xlsx,frogs/ab60.jpg,0,0,400,l,0,1,1,1,0,83,83,58,,,['l'],0,[0.6005176480030059],2018_Jul_09_0800,60.0553411587,go-nogo,001,43,
logos/2.jpg,properties2.xlsx,frogs/ab62.jpg,0,0,400,l,0,1,1,1,0,84,84,60,,,['l'],0,[0.3015295159784728],2018_Jul_09_0800,60.0553411587,go-nogo,001,43,
logos/2.jpg,properties2.xlsx,frogs/ab24.jpg,0,0,400,l,0,1,1,1,0,85,85,23,,,['l'],0,[0.18407473766274052],2018_Jul_09_0800,60.0553411587,go-nogo,001,43,
logos/2.jpg,properties2.xlsx,frogs/ab49.jpg,0,0,400,l,0,1,1,1,0,86,86,48,,,['l'],0,[0.1841889772185823],2018_Jul_09_0800,60.0553411587,go-nogo,001,43,
logos/2.jpg,properties2.xlsx,frogs/ab71.jpg,0,0,400,l,0,1,1,1,0,87,87,69,,,['l'],0,[0.13458446475851815],2018_Jul_09_0800,60.0553411587,go-nogo,001,43,
logos/2.jpg,properties2.xlsx,frogs/ab44.jpg,0,0,400,l,0,1,1,1,0,88,88,43,,,['l'],0,[0.23441466728399973],2018_Jul_09_0800,60.0553411587,go-nogo,001,43,
logos/2.jpg,properties2.xlsx,frogs/ab52.jpg,0,0,400,l,0,1,1,1,0,89,89,51,,,['l'],0,[0.30115823740925407],2018_Jul_09_0800,60.0553411587,go-nogo,001,43,
logos/2.jpg,properties2.xlsx,,,,,,0,1,1,1,,,,,,,,,,2018_Jul_09_0800,60.0553411587,go-nogo,001,43,
logos/3.jpg,properties3.xlsx,frogs/ab25.jpg,0,0,400,l,0,2,2,2,0,0,0,24,space,1.88897833688,['l'],0,[1.2007983381699887],2018_Jul_09_0800,60.0553411587,go-nogo,001,43,
logos/3.jpg,properties3.xlsx,frogs/ab55.jpg,0,0,400,l,0,2,2,2,0,1,1,54,,,['l'],0,[0.10121580343547976],2018_Jul_09_0800,60.0553411587,go-nogo,001,43,
logos/3.jpg,properties3.xlsx,frogs/ab15.jpg,0,0,400,l,0,2,2,2,0,2,2,14,,,['l'],0,[0.2843203973461641],2018_Jul_09_0800,60.0553411587,go-nogo,001,43,
logos/3.jpg,properties3.xlsx,logos/3.jpg,0,0,400,a,0,2,2,2,0,3,3,82,,,['a'],0,[0.16780050917441258],2018_Jul_09_0800,60.0553411587,go-nogo,001,43,
logos/3.jpg,properties3.xlsx,frogs/ab8.jpg,0,0,400,l,0,2,2,2,0,4,4,7,,,['l'],0,[0.0010308335185982287],2018_Jul_09_0800,60.0553411587,go-nogo,001,43,
logos/3.jpg,properties3.xlsx,frogs/ab4.jpg,0,0,400,l,0,2,2,2,0,5,5,3,,,['l'],0,[0.20022892537235748],2018_Jul_09_0800,60.0553411587,go-nogo,001,43,
logos/3.jpg,properties3.xlsx,frogs/ab50.jpg,0,0,400,l,0,2,2,2,0,6,6,49,,,['l'],0,[0.06702158279949799],2018_Jul_09_0800,60.0553411587,go-nogo,001,43,
logos/3.jpg,properties3.xlsx,logos/3.jpg,0,0,400,a,0,2,2,2,0,7,7,85,,,['a'],0,[0.20115979927504668],2018_Jul_09_0800,60.0553411587,go-nogo,001,43,
logos/3.jpg,properties3.xlsx,frogs/ab26.jpg,0,0,400,l,0,2,2,2,0,8,8,25,,,['l'],0,[0.36768939334433526],2018_Jul_09_0800,60.0553411587,go-nogo,001,43,
logos/3.jpg,properties3.xlsx,frogs/ab20.jpg,0,0,400,l,0,2,2,2,0,9,9,19,,,['l'],0,[0.3665403040286037],2018_Jul_09_0800,60.0553411587,go-nogo,001,43,
logos/3.jpg,properties3.xlsx,frogs/ab12.jpg,0,0,400,l,0,2,2,2,0,10,10,11,,,['l'],0,[0.2843003161615343],2018_Jul_09_0800,60.0553411587,go-nogo,001,43,
logos/3.jpg,properties3.xlsx,frogs/ab38.jpg,0,0,400,l,0,2,2,2,0,11,11,37,,,['l'],0,[0.6841075369156897],2018_Jul_09_0800,60.0553411587,go-nogo,001,43,
logos/3.jpg,properties3.xlsx,frogs/ab22.jpg,0,0,400,l,0,2,2,2,0,12,12,21,,,['l'],0,[0.21790348095964873],2018_Jul_09_0800,60.0553411587,go-nogo,001,43,
logos/3.jpg,properties3.xlsx,frogs/ab81.jpg,0,0,400,l,0,2,2,2,0,13,13,79,,,['l'],0,[0.25122707121045096],2018_Jul_09_0800,60.0553411587,go-nogo,001,43,
logos/3.jpg,properties3.xlsx,frogs/ab57.jpg,0,0,400,l,0,2,2,2,0,14,14,56,,,['l'],0,[0.21790437345771352],2018_Jul_09_0800,60.0553411587,go-nogo,001,43,
logos/3.jpg,properties3.xlsx,frogs/ab64.jpg,0,0,400,l,0,2,2,2,0,15,15,62,,,['l'],0,[0.23428302404499846],2018_Jul_09_0800,60.0553411587,go-nogo,001,43,
logos/3.jpg,properties3.xlsx,frogs/ab66.jpg,0,0,400,l,0,2,2,2,0,16,16,64,,,['l'],0,[0.33898045655951137],2018_Jul_09_0800,60.0553411587,go-nogo,001,43,
logos/3.jpg,properties3.xlsx,frogs/ab58.jpg,0,0,400,l,0,2,2,2,0,17,17,57,,,['l'],0,[0.27675827399798436],2018_Jul_09_0800,60.0553411587,go-nogo,001,43,
logos/3.jpg,properties3.xlsx,frogs/ab27.jpg,0,0,400,l,0,2,2,2,0,18,18,26,,,['l'],0,[0.21386538028309587],2018_Jul_09_0800,60.0553411587,go-nogo,001,43,
logos/3.jpg,properties3.xlsx,frogs/ab79.jpg,0,0,400,l,0,2,2,2,0,19,19,77,,,['l'],0,[0.09266791764821392],2018_Jul_09_0800,60.0553411587,go-nogo,001,43,
logos/3.jpg,properties3.xlsx,frogs/ab5.jpg,0,0,400,l,0,2,2,2,0,20,20,4,,,['l'],0,[0.3345581361063523],2018_Jul_09_0800,60.0553411587,go-nogo,001,43,
logos/3.jpg,properties3.xlsx,frogs/ab80.jpg,0,0,400,l,0,2,2,2,0,21,21,78,,,['l'],0,[0.24873388207197422],2018_Jul_09_0800,60.0553411587,go-nogo,001,43,
logos/3.jpg,properties3.xlsx,logos/3.jpg,0,0,400,a,0,2,2,2,0,22,22,81,,,['a'],0,[0.547571182178217],2018_Jul_09_0800,60.0553411587,go-nogo,001,43,
logos/3.jpg,properties3.xlsx,frogs/ab60.jpg,0,0,400,l,0,2,2,2,0,23,23,58,,,['l'],0,[0.853074092832685],2018_Jul_09_0800,60.0553411587,go-nogo,001,43,
logos/3.jpg,properties3.xlsx,frogs/ab2.jpg,0,0,400,l,0,2,2,2,0,24,24,1,,,['l'],0,[0.18459907939541154],2018_Jul_09_0800,60.0553411587,go-nogo,001,43,
logos/3.jpg,properties3.xlsx,frogs/ab3.jpg,0,0,400,l,0,2,2,2,0,25,25,2,,,['l'],0,[0.21412465052708285],2018_Jul_09_0800,60.0553411587,go-nogo,001,43,
logos/3.jpg,properties3.xlsx,frogs/ab1.jpg,0,0,400,l,0,2,2,2,0,26,26,0,,,['l'],0,[0.09240998614404816],2018_Jul_09_0800,60.0553411587,go-nogo,001,43,
logos/3.jpg,properties3.xlsx,frogs/ab29.jpg,0,0,400,l,0,2,2,2,0,27,27,28,,,['l'],0,[0.20951802955096355],2018_Jul_09_0800,60.0553411587,go-nogo,001,43,
logos/3.jpg,properties3.xlsx,frogs/ab70.jpg,0,0,400,l,0,2,2,2,0,28,28,68,,,['l'],0,[0.3342560260280152],2018_Jul_09_0800,60.0553411587,go-nogo,001,43,
logos/3.jpg,properties3.xlsx,frogs/ab76.jpg,0,0,400,l,0,2,2,2,0,29,29,74,,,['l'],0,[0.30250769220583607],2018_Jul_09_0800,60.0553411587,go-nogo,001,43,
logos/3.jpg,properties3.xlsx,frogs/ab65.jpg,0,0,400,l,0,2,2,2,0,30,30,63,,,['l'],0,[0.21083937070216052],2018_Jul_09_0800,60.0553411587,go-nogo,001,43,
logos/3.jpg,properties3.xlsx,frogs/ab21.jpg,0,0,400,l,0,2,2,2,0,31,31,20,,,['l'],0,[0.21399389978614636],2018_Jul_09_0800,60.0553411587,go-nogo,001,43,
logos/3.jpg,properties3.xlsx,frogs/ab7.jpg,0,0,400,l,0,2,2,2,0,32,32,6,,,['l'],0,[0.243028151569888],2018_Jul_09_0800,60.0553411587,go-nogo,001,43,
logos/3.jpg,properties3.xlsx,frogs/ab71.jpg,0,0,400,l,0,2,2,2,0,33,33,69,,,['l'],0,[0.27663287823088467],2018_Jul_09_0800,60.0553411587,go-nogo,001,43,
logos/3.jpg,properties3.xlsx,frogs/ab43.jpg,0,0,400,l,0,2,2,2,0,34,34,42,,,['l'],0,[0.12463089689117623],2018_Jul_09_0800,60.0553411587,go-nogo,001,43,
logos/3.jpg,properties3.xlsx,frogs/ab34.jpg,0,0,400,l,0,2,2,2,0,35,35,33,,,['l'],0,[0.12431093687337125],2018_Jul_09_0800,60.0553411587,go-nogo,001,43,
logos/3.jpg,properties3.xlsx,frogs/ab45.jpg,0,0,400,l,0,2,2,2,0,36,36,44,,,['l'],0,[0.15472677333309548],2018_Jul_09_0800,60.0553411587,go-nogo,001,43,
logos/3.jpg,properties3.xlsx,frogs/ab53.jpg,0,0,400,l,0,2,2,2,0,37,37,52,,,['l'],0,[0.183213032229105],2018_Jul_09_0800,60.0553411587,go-nogo,001,43,
logos/3.jpg,properties3.xlsx,frogs/ab47.jpg,0,0,400,l,0,2,2,2,0,38,38,46,,,['l'],0,[0.21667451319808606],2018_Jul_09_0800,60.0553411587,go-nogo,001,43,
logos/3.jpg,properties3.xlsx,frogs/ab62.jpg,0,0,400,l,0,2,2,2,0,39,39,60,,,['l'],0,[0.30524631789012346],2018_Jul_09_0800,60.0553411587,go-nogo,001,43,
logos/3.jpg,properties3.xlsx,frogs/ab35.jpg,0,0,400,l,0,2,2,2,0,40,40,34,,,['l'],0,[0.21461820112745045],2018_Jul_09_0800,60.0553411587,go-nogo,001,43,
logos/3.jpg,properties3.xlsx,frogs/ab28.jpg,0,0,400,l,0,2,2,2,0,41,41,27,,,['l'],0,[0.18265075940144015],2018_Jul_09_0800,60.0553411587,go-nogo,001,43,
logos/3.jpg,properties3.xlsx,frogs/ab23.jpg,0,0,400,l,0,2,2,2,0,42,42,22,,,['l'],0,[0.0012843025469919667],2018_Jul_09_0800,60.0553411587,go-nogo,001,43,
logos/3.jpg,properties3.xlsx,frogs/ab39.jpg,0,0,400,l,0,2,2,2,0,43,43,38,,,['l'],0,[0.03173360762593802],2018_Jul_09_0800,60.0553411587,go-nogo,001,43,
logos/3.jpg,properties3.xlsx,frogs/ab51.jpg,0,0,400,l,0,2,2,2,0,44,44,50,,,['l'],0,[0.03226732056646142],2018_Jul_09_0800,60.0553411587,go-nogo,001,43,
logos/3.jpg,properties3.xlsx,frogs/ab18.jpg,0,0,400,l,0,2,2,2,0,45,45,17,,,['l'],0,[1.1871047634776914],2018_Jul_09_0800,60.0553411587,go-nogo,001,43,
logos/3.jpg,properties3.xlsx,frogs/ab6.jpg,0,0,400,l,0,2,2,2,0,46,46,5,,,['l'],0,[0.12312079271941911],2018_Jul_09_0800,60.0553411587,go-nogo,001,43,
logos/3.jpg,properties3.xlsx,frogs/ab16.jpg,0,0,400,l,0,2,2,2,0,47,47,15,,,['l'],0,[0.5485979994700756],2018_Jul_09_0800,60.0553411587,go-nogo,001,43,
logos/3.jpg,properties3.xlsx,frogs/ab72.jpg,0,0,400,l,0,2,2,2,0,48,48,70,,,['l'],0,[0.03206472385500092],2018_Jul_09_0800,60.0553411587,go-nogo,001,43,
logos/3.jpg,properties3.xlsx,frogs/ab52.jpg,0,0,400,l,0,2,2,2,0,49,49,51,,,['l'],0,[0.06335520693392027],2018_Jul_09_0800,60.0553411587,go-nogo,001,43,
logos/3.jpg,properties3.xlsx,logos/3.jpg,0,0,400,a,0,2,2,2,0,50,50,89,,,['a'],0,[0.5165997666117619],2018_Jul_09_0800,60.0553411587,go-nogo,001,43,
logos/3.jpg,properties3.xlsx,logos/3.jpg,0,0,400,a,0,2,2,2,0,51,51,84,,,['a'],0,[0.7928029077520478],2018_Jul_09_0800,60.0553411587,go-nogo,001,43,
logos/3.jpg,properties3.xlsx,logos/3.jpg,0,0,400,a,0,2,2,2,0,52,52,87,,,['a'],0,[0.2776878091681283],2018_Jul_09_0800,60.0553411587,go-nogo,001,43,
logos/3.jpg,properties3.xlsx,frogs/ab31.jpg,0,0,400,l,0,2,2,2,0,53,53,30,,,['l'],0,[0.12221312371548265],2018_Jul_09_0800,60.0553411587,go-nogo,001,43,
logos/3.jpg,properties3.xlsx,frogs/ab69.jpg,0,0,400,l,0,2,2,2,0,54,54,67,,,['l'],0,[0.0010839370734174736],2018_Jul_09_0800,60.0553411587,go-nogo,001,43,
logos/3.jpg,properties3.xlsx,frogs/ab56.jpg,0,0,400,l,0,2,2,2,0,55,55,55,,,['l'],0,[0.06186875391722424],2018_Jul_09_0800,60.0553411587,go-nogo,001,43,
logos/3.jpg,properties3.xlsx,frogs/ab19.jpg,0,0,400,l,0,2,2,2,0,56,56,18,,,['l'],0,[0.12282537635474],2018_Jul_09_0800,60.0553411587,go-nogo,001,43,
logos/3.jpg,properties3.xlsx,frogs/ab49.jpg,0,0,400,l,0,2,2,2,0,57,57,48,,,['l'],0,[0.09361396399617661],2018_Jul_09_0800,60.0553411587,go-nogo,001,43,
logos/3.jpg,properties3.xlsx,logos/3.jpg,0,0,400,a,0,2,2,2,0,58,58,80,,,['a'],0,[0.451693400653312],2018_Jul_09_0800,60.0553411587,go-nogo,001,43,
logos/3.jpg,properties3.xlsx,frogs/ab11.jpg,0,0,400,l,0,2,2,2,0,59,59,10,,,['l'],0,[0.03458468788448954],2018_Jul_09_0800,60.0553411587,go-nogo,001,43,
logos/3.jpg,properties3.xlsx,frogs/ab46.jpg,0,0,400,l,0,2,2,2,0,60,60,45,,,['l'],0,[0.0010513609522604384],2018_Jul_09_0800,60.0553411587,go-nogo,001,43,
logos/3.jpg,properties3.xlsx,frogs/ab74.jpg,0,0,400,l,0,2,2,2,0,61,61,72,,,['l'],0,[1.3022118295921246],2018_Jul_09_0800,60.0553411587,go-nogo,001,43,
logos/3.jpg,properties3.xlsx,frogs/ab14.jpg,0,0,400,l,0,2,2,2,0,62,62,13,,,['l'],0,[0.08456806513277115],2018_Jul_09_0800,60.0553411587,go-nogo,001,43,
logos/3.jpg,properties3.xlsx,frogs/ab24.jpg,0,0,400,l,0,2,2,2,0,63,63,23,,,['l'],0,[0.20139407962415135],2018_Jul_09_0800,60.0553411587,go-nogo,001,43,
logos/3.jpg,properties3.xlsx,frogs/ab40.jpg,0,0,400,l,0,2,2,2,0,64,64,39,,,['l'],0,[0.01927301692921901],2018_Jul_09_0800,60.0553411587,go-nogo,001,43,
logos/3.jpg,properties3.xlsx,frogs/ab73.jpg,0,0,400,l,0,2,2,2,0,65,65,71,,,['l'],0,[0.084734069496335],2018_Jul_09_0800,60.0553411587,go-nogo,001,43,
logos/3.jpg,properties3.xlsx,frogs/ab42.jpg,0,0,400,l,0,2,2,2,0,66,66,41,,,['l'],0,[0.01792936336278217],2018_Jul_09_0800,60.0553411587,go-nogo,001,43,
logos/3.jpg,properties3.xlsx,frogs/ab68.jpg,0,0,400,l,0,2,2,2,0,67,67,66,,,['l'],0,[0.16713961547065992],2018_Jul_09_0800,60.0553411587,go-nogo,001,43,
logos/3.jpg,properties3.xlsx,frogs/ab67.jpg,0,0,400,l,0,2,2,2,0,68,68,65,,,['l'],0,[0.08376838821277488],2018_Jul_09_0800,60.0553411587,go-nogo,001,43,
logos/3.jpg,properties3.xlsx,frogs/ab10.jpg,0,0,400,l,0,2,2,2,0,69,69,9,,,['l'],0,[0.21775800402247114],2018_Jul_09_0800,60.0553411587,go-nogo,001,43,
logos/3.jpg,properties3.xlsx,frogs/ab41.jpg,0,0,400,l,0,2,2,2,0,70,70,40,,,['l'],0,[0.11791441404784564],2018_Jul_09_0800,60.0553411587,go-nogo,001,43,
logos/3.jpg,properties3.xlsx,frogs/ab33.jpg,0,0,400,l,0,2,2,2,0,71,71,32,,,['l'],0,[0.08451674658135744],2018_Jul_09_0800,60.0553411587,go-nogo,001,43,
logos/3.jpg,properties3.xlsx,frogs/ab44.jpg,0,0,400,l,0,2,2,2,0,72,72,43,,,['l'],0,[0.06706977761496091],2018_Jul_09_0800,60.0553411587,go-nogo,001,43,
logos/3.jpg,properties3.xlsx,frogs/ab61.jpg,0,0,400,l,0,2,2,2,0,73,73,59,,,['l'],0,[0.017766928984201513],2018_Jul_09_0800,60.0553411587,go-nogo,001,43,
logos/3.jpg,properties3.xlsx,frogs/ab30.jpg,0,0,400,l,0,2,2,2,0,74,74,29,,,['l'],0,[1.1342689672237611],2018_Jul_09_0800,60.0553411587,go-nogo,001,43,
logos/3.jpg,properties3.xlsx,frogs/ab78.jpg,0,0,400,l,0,2,2,2,0,75,75,76,,,['l'],0,[0.13435955562454183],2018_Jul_09_0800,60.0553411587,go-nogo,001,43,
logos/3.jpg,properties3.xlsx,logos/3.jpg,0,0,400,a,0,2,2,2,0,76,76,86,,,['a'],0,[0.46771192888263613],2018_Jul_09_0800,60.0553411587,go-nogo,001,43,
logos/3.jpg,properties3.xlsx,frogs/ab63.jpg,0,0,400,l,0,2,2,2,0,77,77,61,,,['l'],0,[0.018063684088701848],2018_Jul_09_0800,60.0553411587,go-nogo,001,43,
logos/3.jpg,properties3.xlsx,frogs/ab37.jpg,0,0,400,l,0,2,2,2,0,78,78,36,,,['l'],0,[0.6010000423921156],2018_Jul_09_0800,60.0553411587,go-nogo,001,43,
logos/3.jpg,properties3.xlsx,frogs/ab9.jpg,0,0,400,l,0,2,2,2,0,79,79,8,,,['l'],0,[0.1999522514306591],2018_Jul_09_0800,60.0553411587,go-nogo,001,43,
logos/3.jpg,properties3.xlsx,frogs/ab48.jpg,0,0,400,l,0,2,2,2,0,80,80,47,,,['l'],0,[0.08462384616723284],2018_Jul_09_0800,60.0553411587,go-nogo,001,43,
logos/3.jpg,properties3.xlsx,frogs/ab77.jpg,0,0,400,l,0,2,2,2,0,81,81,75,,,['l'],0,[0.23340882366755977],2018_Jul_09_0800,60.0553411587,go-nogo,001,43,
logos/3.jpg,properties3.xlsx,frogs/ab13.jpg,0,0,400,l,0,2,2,2,0,82,82,12,,,['l'],0,[0.06777529614191735],2018_Jul_09_0800,60.0553411587,go-nogo,001,43,
logos/3.jpg,properties3.xlsx,frogs/ab17.jpg,0,0,400,l,0,2,2,2,0,83,83,16,,,['l'],0,[0.13410474785632687],2018_Jul_09_0800,60.0553411587,go-nogo,001,43,
logos/3.jpg,properties3.xlsx,frogs/ab75.jpg,0,0,400,l,0,2,2,2,0,84,84,73,,,['l'],0,[0.20088491033675382],2018_Jul_09_0800,60.0553411587,go-nogo,001,43,
logos/3.jpg,properties3.xlsx,frogs/ab54.jpg,0,0,400,l,0,2,2,2,0,85,85,53,,,['l'],0,[0.33480535766284447],2018_Jul_09_0800,60.0553411587,go-nogo,001,43,
logos/3.jpg,properties3.xlsx,frogs/ab36.jpg,0,0,400,l,0,2,2,2,0,86,86,35,,,['l'],0,[0.33423014362779213],2018_Jul_09_0800,60.0553411587,go-nogo,001,43,
logos/3.jpg,properties3.xlsx,frogs/ab32.jpg,0,0,400,l,0,2,2,2,0,87,87,31,,,['l'],0,[0.8175995858837268],2018_Jul_09_0800,60.0553411587,go-nogo,001,43,
logos/3.jpg,properties3.xlsx,logos/3.jpg,0,0,400,a,0,2,2,2,0,88,88,83,,,['a'],0,[0.23429150276933797],2018_Jul_09_0800,60.0553411587,go-nogo,001,43,
logos/3.jpg,properties3.xlsx,logos/3.jpg,0,0,400,a,0,2,2,2,0,89,89,88,,,['a'],0,[0.2510606205978547],2018_Jul_09_0800,60.0553411587,go-nogo,001,43,
logos/3.jpg,properties3.xlsx,,,,,,0,2,2,2,,,,,,,,,,2018_Jul_09_0800,60.0553411587,go-nogo,001,43,
logos/1.jpg,properties1.xlsx,frogs/ab48.jpg,0,0,400,l,0,3,3,0,0,0,0,47,space,1.13928479789,['l'],0,[0.13440908918710193],2018_Jul_09_0800,60.0553411587,go-nogo,001,43,
logos/1.jpg,properties1.xlsx,frogs/ab52.jpg,0,0,400,l,0,3,3,0,0,1,1,51,,,['l'],0,[0.3011292312730802],2018_Jul_09_0800,60.0553411587,go-nogo,001,43,
logos/1.jpg,properties1.xlsx,frogs/ab53.jpg,0,0,400,l,0,3,3,0,0,2,2,52,,,['l'],0,[0.13441221292305272],2018_Jul_09_0800,60.0553411587,go-nogo,001,43,
logos/1.jpg,properties1.xlsx,frogs/ab4.jpg,0,0,400,l,0,3,3,0,0,3,3,3,,,['l'],0,[0.2510284907257301],2018_Jul_09_0800,60.0553411587,go-nogo,001,43,
logos/1.jpg,properties1.xlsx,frogs/ab44.jpg,0,0,400,l,0,3,3,0,0,4,4,43,,,['l'],0,[0.10097349062561989],2018_Jul_09_0800,60.0553411587,go-nogo,001,43,
logos/1.jpg,properties1.xlsx,frogs/ab66.jpg,0,0,400,l,0,3,3,0,0,5,5,64,,,['l'],0,[0.2844047382604913],2018_Jul_09_0800,60.0553411587,go-nogo,001,43,
logos/1.jpg,properties1.xlsx,frogs/ab41.jpg,0,0,400,l,0,3,3,0,0,6,6,40,,,['l'],0,[0.15082477837859187],2018_Jul_09_0800,60.0553411587,go-nogo,001,43,
logos/1.jpg,properties1.xlsx,logos/1.jpg,0,0,400,a,0,3,3,0,0,7,7,82,,,['a'],0,[0.3352270622854121],2018_Jul_09_0800,60.0553411587,go-nogo,001,43,
logos/1.jpg,properties1.xlsx,frogs/ab58.jpg,0,0,400,l,0,3,3,0,0,8,8,57,,,['l'],0,[0.7357536352501484],2018_Jul_09_0800,60.0553411587,go-nogo,001,43,
logos/1.jpg,properties1.xlsx,frogs/ab80.jpg,0,0,400,l,0,3,3,0,0,9,9,78,,,['l'],0,[0.35113001220452134],2018_Jul_09_0800,60.0553411587,go-nogo,001,43,
logos/1.jpg,properties1.xlsx,frogs/ab21.jpg,0,0,400,l,0,3,3,0,0,10,10,20,,,['l'],0,[0.350267414280097],2018_Jul_09_0800,60.0553411587,go-nogo,001,43,
logos/1.jpg,properties1.xlsx,frogs/ab39.jpg,0,0,400,l,0,3,3,0,0,11,11,38,,,['l'],0,[0.2837014509786968],2018_Jul_09_0800,60.0553411587,go-nogo,001,43,
logos/1.jpg,properties1.xlsx,frogs/ab71.jpg,0,0,400,l,0,3,3,0,0,12,12,69,,,['l'],0,[0.2671090474614175],2018_Jul_09_0800,60.0553411587,go-nogo,001,43,
logos/1.jpg,properties1.xlsx,frogs/ab5.jpg,0,0,400,l,0,3,3,0,0,13,13,4,,,['l'],0,[0.28440116828278406],2018_Jul_09_0800,60.0553411587,go-nogo,001,43,
logos/1.jpg,properties1.xlsx,frogs/ab35.jpg,0,0,400,l,0,3,3,0,0,14,14,34,,,['l'],0,[0.30079409881000174],2018_Jul_09_0800,60.0553411587,go-nogo,001,43,
logos/1.jpg,properties1.xlsx,frogs/ab17.jpg,0,0,400,l,0,3,3,0,0,15,15,16,,,['l'],0,[0.28861776826670393],2018_Jul_09_0800,60.0553411587,go-nogo,001,43,
logos/1.jpg,properties1.xlsx,frogs/ab40.jpg,0,0,400,l,0,3,3,0,0,16,16,39,,,['l'],0,[0.21190144160209456],2018_Jul_09_0800,60.0553411587,go-nogo,001,43,
logos/1.jpg,properties1.xlsx,frogs/ab62.jpg,0,0,400,l,0,3,3,0,0,17,17,60,,,['l'],0,[0.18204296924523078],2018_Jul_09_0800,60.0553411587,go-nogo,001,43,
logos/1.jpg,properties1.xlsx,frogs/ab46.jpg,0,0,400,l,0,3,3,0,0,18,18,45,,,['l'],0,[0.4269208199402783],2018_Jul_09_0800,60.0553411587,go-nogo,001,43,
logos/1.jpg,properties1.xlsx,frogs/ab6.jpg,0,0,400,l,0,3,3,0,0,19,19,5,,,['l'],0,[0.12113588037027512],2018_Jul_09_0800,60.0553411587,go-nogo,001,43,
logos/1.jpg,properties1.xlsx,frogs/ab50.jpg,0,0,400,l,0,3,3,0,0,20,20,49,,,['l'],0,[0.21311791441985406],2018_Jul_09_0800,60.0553411587,go-nogo,001,43,
logos/1.jpg,properties1.xlsx,frogs/ab69.jpg,0,0,400,l,0,3,3,0,0,21,21,67,,,['l'],0,[0.12156160122685833],2018_Jul_09_0800,60.0553411587,go-nogo,001,43,
logos/1.jpg,properties1.xlsx,frogs/ab77.jpg,0,0,400,l,0,3,3,0,0,22,22,75,,,['l'],0,[0.1524968706871732],2018_Jul_09_0800,60.0553411587,go-nogo,001,43,
logos/1.jpg,properties1.xlsx,frogs/ab24.jpg,0,0,400,l,0,3,3,0,0,23,23,23,,,['l'],0,[0.1229699607938528],2018_Jul_09_0800,60.0553411587,go-nogo,001,43,
logos/1.jpg,properties1.xlsx,frogs/ab47.jpg,0,0,400,l,0,3,3,0,0,24,24,46,,,['l'],0,[0.0608495228443644],2018_Jul_09_0800,60.0553411587,go-nogo,001,43,
logos/1.jpg,properties1.xlsx,frogs/ab68.jpg,0,0,400,l,0,3,3,0,0,25,25,66,,,['l'],0,[0.08978113753255457],2018_Jul_09_0800,60.0553411587,go-nogo,001,43,
logos/1.jpg,properties1.xlsx,frogs/ab81.jpg,0,0,400,l,0,3,3,0,0,26,26,79,,,['l'],0,[0.33410787159664324],2018_Jul_09_0800,60.0553411587,go-nogo,001,43,
logos/1.jpg,properties1.xlsx,logos/1.jpg,0,0,400,a,0,3,3,0,0,27,27,80,,,['a'],0,[0.5168398481910117],2018_Jul_09_0800,60.0553411587,go-nogo,001,43,
logos/1.jpg,properties1.xlsx,frogs/ab32.jpg,0,0,400,l,0,3,3,0,0,28,28,31,,,['l'],0,[0.06099946227186592],2018_Jul_09_0800,60.0553411587,go-nogo,001,43,
logos/1.jpg,properties1.xlsx,frogs/ab34.jpg,0,0,400,l,0,3,3,0,0,29,29,33,,,['l'],0,[0.18330897561827442],2018_Jul_09_0800,60.0553411587,go-nogo,001,43,
logos/1.jpg,properties1.xlsx,frogs/ab23.jpg,0,0,400,l,0,3,3,0,0,30,30,22,,,['l'],0,[0.18111120283720084],2018_Jul_09_0800,60.0553411587,go-nogo,001,43,
logos/1.jpg,properties1.xlsx,frogs/ab19.jpg,0,0,400,l,0,3,3,0,0,31,31,18,,,['l'],0,[0.15255086672550533],2018_Jul_09_0800,60.0553411587,go-nogo,001,43,
logos/1.jpg,properties1.xlsx,frogs/ab79.jpg,0,0,400,l,0,3,3,0,0,32,32,77,,,['l'],0,[0.24265196427586488],2018_Jul_09_0800,60.0553411587,go-nogo,001,43,
logos/1.jpg,properties1.xlsx,frogs/ab16.jpg,0,0,400,l,0,3,3,0,0,33,33,15,,,['l'],0,[0.24503493008523947],2018_Jul_09_0800,60.0553411587,go-nogo,001,43,
logos/1.jpg,properties1.xlsx,frogs/ab31.jpg,0,0,400,l,0,3,3,0,0,34,34,30,,,['l'],0,[0.06140599445643602],2018_Jul_09_0800,60.0553411587,go-nogo,001,43,
logos/1.jpg,properties1.xlsx,frogs/ab36.jpg,0,0,400,l,0,3,3,0,0,35,35,35,,,['l'],0,[0.2733252859907225],2018_Jul_09_0800,60.0553411587,go-nogo,001,43,
logos/1.jpg,properties1.xlsx,frogs/ab27.jpg,0,0,400,l,0,3,3,0,0,36,36,26,,,['l'],0,[0.18340491900016787],2018_Jul_09_0800,60.0553411587,go-nogo,001,43,
logos/1.jpg,properties1.xlsx,frogs/ab73.jpg,0,0,400,l,0,3,3,0,0,37,37,71,,,['l'],0,[0.18264897440531058],2018_Jul_09_0800,60.0553411587,go-nogo,001,43,
logos/1.jpg,properties1.xlsx,frogs/ab26.jpg,0,0,400,l,0,3,3,0,0,38,38,25,,,['l'],0,[0.33409359164943453],2018_Jul_09_0800,60.0553411587,go-nogo,001,43,
logos/1.jpg,properties1.xlsx,frogs/ab9.jpg,0,0,400,l,0,3,3,0,0,39,39,8,,,['l'],0,[1.6357792945200345],2018_Jul_09_0800,60.0553411587,go-nogo,001,43,
logos/1.jpg,properties1.xlsx,frogs/ab10.jpg,0,0,400,l,0,3,3,0,0,40,40,9,,,['l'],0,[0.15244465963041876],2018_Jul_09_0800,60.0553411587,go-nogo,001,43,
logos/1.jpg,properties1.xlsx,frogs/ab55.jpg,0,0,400,l,0,3,3,0,0,41,41,54,,,['l'],0,[0.15166372514795512],2018_Jul_09_0800,60.0553411587,go-nogo,001,43,
logos/1.jpg,properties1.xlsx,frogs/ab74.jpg,0,0,400,l,0,3,3,0,0,42,42,72,,,['l'],0,[0.09114799601229606],2018_Jul_09_0800,60.0553411587,go-nogo,001,43,
logos/1.jpg,properties1.xlsx,frogs/ab75.jpg,0,0,400,l,0,3,3,0,0,43,43,73,,,['l'],0,[0.00115935302892467],2018_Jul_09_0800,60.0553411587,go-nogo,001,43,
logos/1.jpg,properties1.xlsx,frogs/ab49.jpg,0,0,400,l,0,3,3,0,0,44,44,48,,,['l'],0,[0.03225616436247947],2018_Jul_09_0800,60.0553411587,go-nogo,001,43,
logos/1.jpg,properties1.xlsx,frogs/ab78.jpg,0,0,400,l,0,3,3,0,0,45,45,76,,,['l'],0,[0.00044267829798627645],2018_Jul_09_0800,60.0553411587,go-nogo,001,43,
logos/1.jpg,properties1.xlsx,logos/1.jpg,0,0,400,a,0,3,3,0,0,46,46,83,,,['l'],0,[0.18393952443875605],2018_Jul_09_0800,60.0553411587,go-nogo,001,43,
logos/1.jpg,properties1.xlsx,frogs/ab22.jpg,0,0,400,l,0,3,3,0,0,47,47,21,,,['l'],0,[0.4590573897585273],2018_Jul_09_0800,60.0553411587,go-nogo,001,43,
logos/1.jpg,properties1.xlsx,frogs/ab12.jpg,0,0,400,l,0,3,3,0,0,48,48,11,,,['l'],0,[0.3348772036333685],2018_Jul_09_0800,60.0553411587,go-nogo,001,43,
logos/1.jpg,properties1.xlsx,frogs/ab56.jpg,0,0,400,l,0,3,3,0,0,49,49,55,,,['l'],0,[0.12561487434868468],2018_Jul_09_0800,60.0553411587,go-nogo,001,43,
logos/1.jpg,properties1.xlsx,frogs/ab70.jpg,0,0,400,l,0,3,3,0,0,50,50,68,,,['l'],0,[0.06372737800120376],2018_Jul_09_0800,60.0553411587,go-nogo,001,43,
logos/1.jpg,properties1.xlsx,frogs/ab45.jpg,0,0,400,l,0,3,3,0,0,51,51,44,,,['l'],0,[0.09338726987334667],2018_Jul_09_0800,60.0553411587,go-nogo,001,43,
logos/1.jpg,properties1.xlsx,frogs/ab63.jpg,0,0,400,l,0,3,3,0,0,52,52,61,,,['l'],0,[0.09395936017244821],2018_Jul_09_0800,60.0553411587,go-nogo,001,43,
logos/1.jpg,properties1.xlsx,frogs/ab33.jpg,0,0,400,l,0,3,3,0,0,53,53,32,,,['l'],0,[0.08967314544861438],2018_Jul_09_0800,60.0553411587,go-nogo,001,43,
logos/1.jpg,properties1.xlsx,frogs/ab18.jpg,0,0,400,l,0,3,3,0,0,54,54,17,,,['l'],0,[0.12271158304793062],2018_Jul_09_0800,60.0553411587,go-nogo,001,43,
logos/1.jpg,properties1.xlsx,frogs/ab38.jpg,0,0,400,l,0,3,3,0,0,55,55,37,,,['l'],0,[0.032631905407470185],2018_Jul_09_0800,60.0553411587,go-nogo,001,43,
logos/1.jpg,properties1.xlsx,frogs/ab61.jpg,0,0,400,l,0,3,3,0,0,56,56,59,,,['l'],0,[0.15245492334361188],2018_Jul_09_0800,60.0553411587,go-nogo,001,43,
logos/1.jpg,properties1.xlsx,logos/1.jpg,0,0,400,a,0,3,3,0,0,57,57,81,,,['a'],0,[0.5317668531206436],2018_Jul_09_0800,60.0553411587,go-nogo,001,43,
logos/1.jpg,properties1.xlsx,frogs/ab76.jpg,0,0,400,l,0,3,3,0,0,58,58,74,,,['l'],0,[0.416222463689337],2018_Jul_09_0800,60.0553411587,go-nogo,001,43,
logos/1.jpg,properties1.xlsx,logos/1.jpg,0,0,400,a,0,3,3,0,0,59,59,87,,,['l'],0,[0.09910549532651203],2018_Jul_09_0800,60.0553411587,go-nogo,001,43,
logos/1.jpg,properties1.xlsx,frogs/ab30.jpg,0,0,400,l,0,3,3,0,0,60,60,29,,,['l'],0,[0.39635058157728054],2018_Jul_09_0800,60.0553411587,go-nogo,001,43,
logos/1.jpg,properties1.xlsx,frogs/ab13.jpg,0,0,400,l,0,3,3,0,0,61,61,12,,,['l'],0,[0.43474355227226624],2018_Jul_09_0800,60.0553411587,go-nogo,001,43,
logos/1.jpg,properties1.xlsx,frogs/ab42.jpg,0,0,400,l,0,3,3,0,0,62,62,41,,,['l'],0,[0.034633328948984854],2018_Jul_09_0800,60.0553411587,go-nogo,001,43,
logos/1.jpg,properties1.xlsx,frogs/ab3.jpg,0,0,400,l,0,3,3,0,0,63,63,2,,,['l'],0,[0.917672993724409],2018_Jul_09_0800,60.0553411587,go-nogo,001,43,
logos/1.jpg,properties1.xlsx,frogs/ab7.jpg,0,0,400,l,0,3,3,0,0,64,64,6,,,['l'],0,[0.08467471847689012],2018_Jul_09_0800,60.0553411587,go-nogo,001,43,
logos/1.jpg,properties1.xlsx,logos/1.jpg,0,0,400,a,0,3,3,0,0,65,65,84,,,['a'],0,[0.30130371434643166],2018_Jul_09_0800,60.0553411587,go-nogo,001,43,
logos/1.jpg,properties1.xlsx,frogs/ab64.jpg,0,0,400,l,0,3,3,0,0,66,66,62,,,['l'],0,[0.05125473859516205],2018_Jul_09_0800,60.0553411587,go-nogo,001,43,
logos/1.jpg,properties1.xlsx,frogs/ab51.jpg,0,0,400,l,0,3,3,0,0,67,67,50,,,['l'],0,[1.5501156898608315],2018_Jul_09_0800,60.0553411587,go-nogo,001,43,
logos/1.jpg,properties1.xlsx,frogs/ab65.jpg,0,0,400,l,0,3,3,0,0,68,68,63,,,['l'],0,[0.11805899847968249],2018_Jul_09_0800,60.0553411587,go-nogo,001,43,
logos/1.jpg,properties1.xlsx,logos/1.jpg,0,0,400,a,0,3,3,0,0,69,69,85,,,['a'],0,[0.1518266057682922],2018_Jul_09_0800,60.0553411587,go-nogo,001,43,
logos/1.jpg,properties1.xlsx,frogs/ab15.jpg,0,0,400,l,0,3,3,0,0,70,70,14,,,['l'],0,[0.583775305065501],2018_Jul_09_0800,60.0553411587,go-nogo,001,43,
logos/1.jpg,properties1.xlsx,frogs/ab67.jpg,0,0,400,l,0,3,3,0,0,71,71,65,,,['l'],0,[0.6840240884848754],2018_Jul_09_0800,60.0553411587,go-nogo,001,43,
logos/1.jpg,properties1.xlsx,frogs/ab43.jpg,0,0,400,l,0,3,3,0,0,72,72,42,,,['l'],0,[0.03386979814240476],2018_Jul_09_0800,60.0553411587,go-nogo,001,43,
logos/1.jpg,properties1.xlsx,frogs/ab37.jpg,0,0,400,l,0,3,3,0,0,73,73,36,,,['l'],0,[0.05130337965965737],2018_Jul_09_0800,60.0553411587,go-nogo,001,43,
logos/1.jpg,properties1.xlsx,frogs/ab54.jpg,0,0,400,l,0,3,3,0,0,74,74,53,,,['l'],0,[0.03454764928028453],2018_Jul_09_0800,60.0553411587,go-nogo,001,43,
logos/1.jpg,properties1.xlsx,logos/1.jpg,0,0,400,a,0,3,3,0,0,75,75,88,,,['a'],0,[0.15123800428409595],2018_Jul_09_0800,60.0553411587,go-nogo,001,43,
logos/1.jpg,properties1.xlsx,frogs/ab28.jpg,0,0,400,l,0,3,3,0,0,76,76,27,,,['l'],0,[0.5343028820934705],2018_Jul_09_0800,60.0553411587,go-nogo,001,43,
logos/1.jpg,properties1.xlsx,frogs/ab72.jpg,0,0,400,l,0,3,3,0,0,77,77,70,,,['l'],0,[0.13470584429160226],2018_Jul_09_0800,60.0553411587,go-nogo,001,43,
logos/1.jpg,properties1.xlsx,frogs/ab11.jpg,0,0,400,l,0,3,3,0,0,78,78,10,,,['l'],0,[0.16779381544620264],2018_Jul_09_0800,60.0553411587,go-nogo,001,43,
logos/1.jpg,properties1.xlsx,frogs/ab8.jpg,0,0,400,l,0,3,3,0,0,79,79,7,,,['l'],0,[0.06779850104794605],2018_Jul_09_0800,60.0553411587,go-nogo,001,43,
logos/1.jpg,properties1.xlsx,frogs/ab14.jpg,0,0,400,l,0,3,3,0,0,80,80,13,,,['l'],0,[0.13463801454781787],2018_Jul_09_0800,60.0553411587,go-nogo,001,43,
logos/1.jpg,properties1.xlsx,frogs/ab1.jpg,0,0,400,l,0,3,3,0,0,81,81,0,,,['l'],0,[0.2844689980192925],2018_Jul_09_0800,60.0553411587,go-nogo,001,43,
logos/1.jpg,properties1.xlsx,frogs/ab25.jpg,0,0,400,l,0,3,3,0,0,82,82,24,,,['l'],0,[0.29920723993564025],2018_Jul_09_0800,60.0553411587,go-nogo,001,43,
logos/1.jpg,properties1.xlsx,frogs/ab29.jpg,0,0,400,l,0,3,3,0,0,83,83,28,,,['l'],0,[0.16772910943836905],2018_Jul_09_0800,60.0553411587,go-nogo,001,43,
logos/1.jpg,properties1.xlsx,frogs/ab60.jpg,0,0,400,l,0,3,3,0,0,84,84,58,,,['l'],0,[0.23429641149414238],2018_Jul_09_0800,60.0553411587,go-nogo,001,43,
logos/1.jpg,properties1.xlsx,logos/1.jpg,0,0,400,a,0,3,3,0,0,85,85,89,,,['a'],0,[0.13724945948342793],2018_Jul_09_0800,60.0553411587,go-nogo,001,43,
logos/1.jpg,properties1.xlsx,frogs/ab2.jpg,0,0,400,l,0,3,3,0,0,86,86,1,,,['l'],0,[0.08710721784154885],2018_Jul_09_0800,60.0553411587,go-nogo,001,43,
logos/1.jpg,properties1.xlsx,logos/1.jpg,0,0,400,a,0,3,3,0,0,87,87,86,,,['a'],0,[0.31871944593876833],2018_Jul_09_0800,60.0553411587,go-nogo,001,43,
logos/1.jpg,properties1.xlsx,frogs/ab20.jpg,0,0,400,l,0,3,3,0,0,88,88,19,,,['l'],0,[0.034706513659330085],2018_Jul_09_0800,60.0553411587,go-nogo,001,43,
logos/1.jpg,properties1.xlsx,frogs/ab57.jpg,0,0,400,l,0,3,3,0,0,89,89,56,,,['l'],0,[0.20141549954132643],2018_Jul_09_0800,60.0553411587,go-nogo,001,43,
logos/1.jpg,properties1.xlsx,,,,,,0,3,3,0,,,,,,,,,,2018_Jul_09_0800,60.0553411587,go-nogo,001,43,
