pix,source,image1,x,y,size,answer,trials_2.thisRepN,trials_2.thisTrialN,trials_2.thisN,trials_2.thisIndex,trials.thisRepN,trials.thisTrialN,trials.thisN,trials.thisIndex,key_resp_3.keys,key_resp_3.rt,key_resp_2.keys,key_resp_2.corr,key_resp_2.rt,date,frameRate,expName,session,participant,
logos/2.jpg,properties2.xlsx,frogs/ab1.jpg,0,0,400,l,0,0,0,1,0,0,0,0,space,2.98791678969,['l'],0,[1.499622541901772],2018_Jul_09_1504,60.0343236532,go-nogo,001,44,
logos/2.jpg,properties2.xlsx,frogs/ab54.jpg,0,0,400,l,0,0,0,1,0,1,1,53,,,['l'],0,[0.2004436199349584],2018_Jul_09_1504,60.0343236532,go-nogo,001,44,
logos/2.jpg,properties2.xlsx,frogs/ab11.jpg,0,0,400,l,0,0,0,1,0,2,2,10,,,['l'],0,[0.18369665453428752],2018_Jul_09_1504,60.0343236532,go-nogo,001,44,
logos/2.jpg,properties2.xlsx,frogs/ab67.jpg,0,0,400,l,0,0,0,1,0,3,3,65,,,['l'],0,[0.20037762876745546],2018_Jul_09_1504,60.0343236532,go-nogo,001,44,
logos/2.jpg,properties2.xlsx,frogs/ab57.jpg,0,0,400,l,0,0,0,1,0,4,4,56,,,['l'],0,[0.16726826717786025],2018_Jul_09_1504,60.0343236532,go-nogo,001,44,
logos/2.jpg,properties2.xlsx,frogs/ab70.jpg,0,0,400,l,0,0,0,1,0,5,5,68,,,['l'],0,[0.18356182775096386],2018_Jul_09_1504,60.0343236532,go-nogo,001,44,
logos/2.jpg,properties2.xlsx,frogs/ab30.jpg,0,0,400,l,0,0,0,1,0,6,6,29,,,['l'],0,[0.18380986351621686],2018_Jul_09_1504,60.0343236532,go-nogo,001,44,
logos/2.jpg,properties2.xlsx,frogs/ab77.jpg,0,0,400,l,0,0,0,1,0,7,7,75,,,['l'],0,[0.18363009447421064],2018_Jul_09_1504,60.0343236532,go-nogo,001,44,
logos/2.jpg,properties2.xlsx,frogs/ab14.jpg,0,0,400,l,0,0,0,1,0,8,8,13,,,['l'],0,[0.15047180840338115],2018_Jul_09_1504,60.0343236532,go-nogo,001,44,
logos/2.jpg,properties2.xlsx,frogs/ab60.jpg,0,0,400,l,0,0,0,1,0,9,9,58,,,['l'],0,[0.06700151495169848],2018_Jul_09_1504,60.0343236532,go-nogo,001,44,
logos/2.jpg,properties2.xlsx,frogs/ab46.jpg,0,0,400,l,0,0,0,1,0,10,10,45,,,['l'],0,[0.133819847524137],2018_Jul_09_1504,60.0343236532,go-nogo,001,44,
logos/2.jpg,properties2.xlsx,frogs/ab25.jpg,0,0,400,l,0,0,0,1,0,11,11,24,,,['l'],0,[0.1171383044020331],2018_Jul_09_1504,60.0343236532,go-nogo,001,44,
logos/2.jpg,properties2.xlsx,frogs/ab55.jpg,0,0,400,l,0,0,0,1,0,12,12,54,,,['l'],0,[0.183390023161337],2018_Jul_09_1504,60.0343236532,go-nogo,001,44,
logos/2.jpg,properties2.xlsx,frogs/ab5.jpg,0,0,400,l,0,0,0,1,0,13,13,4,,,['l'],0,[0.16700885362297413],2018_Jul_09_1504,60.0343236532,go-nogo,001,44,
logos/2.jpg,properties2.xlsx,frogs/ab10.jpg,0,0,400,l,0,0,0,1,0,14,14,9,,,['l'],0,[0.15041207501781173],2018_Jul_09_1504,60.0343236532,go-nogo,001,44,
logos/2.jpg,properties2.xlsx,frogs/ab15.jpg,0,0,400,l,0,0,0,1,0,15,15,14,,,['l'],0,[0.16711808038598974],2018_Jul_09_1504,60.0343236532,go-nogo,001,44,
logos/2.jpg,properties2.xlsx,frogs/ab29.jpg,0,0,400,l,0,0,0,1,0,16,16,28,,,['l'],0,[0.11708369102416327],2018_Jul_09_1504,60.0343236532,go-nogo,001,44,
logos/2.jpg,properties2.xlsx,frogs/ab12.jpg,0,0,400,l,0,0,0,1,0,17,17,11,,,['l'],0,[0.0005683204835804645],2018_Jul_09_1504,60.0343236532,go-nogo,001,44,
logos/2.jpg,properties2.xlsx,frogs/ab41.jpg,0,0,400,l,0,0,0,1,0,18,18,40,,,['l'],0,[0.0837245869988692],2018_Jul_09_1504,60.0343236532,go-nogo,001,44,
logos/2.jpg,properties2.xlsx,frogs/ab79.jpg,0,0,400,l,0,0,0,1,0,19,19,77,,,['l'],0,[0.03362705091785756],2018_Jul_09_1504,60.0343236532,go-nogo,001,44,
logos/2.jpg,properties2.xlsx,frogs/ab56.jpg,0,0,400,l,0,0,0,1,0,20,20,55,,,['l'],0,[0.2503642314222816],2018_Jul_09_1504,60.0343236532,go-nogo,001,44,
logos/2.jpg,properties2.xlsx,frogs/ab52.jpg,0,0,400,l,0,0,0,1,0,21,21,51,,,['l'],0,[0.11723956671266933],2018_Jul_09_1504,60.0343236532,go-nogo,001,44,
logos/2.jpg,properties2.xlsx,frogs/ab71.jpg,0,0,400,l,0,0,0,1,0,22,22,69,,,['l'],0,[0.11711441104853293],2018_Jul_09_1504,60.0343236532,go-nogo,001,44,
logos/2.jpg,properties2.xlsx,frogs/ab76.jpg,0,0,400,l,0,0,0,1,0,23,23,74,,,['l'],0,[0.08385429377813125],2018_Jul_09_1504,60.0343236532,go-nogo,001,44,
logos/2.jpg,properties2.xlsx,frogs/ab53.jpg,0,0,400,l,0,0,0,1,0,24,24,52,,,['l'],0,[0.11715593996996176],2018_Jul_09_1504,60.0343236532,go-nogo,001,44,
logos/2.jpg,properties2.xlsx,frogs/ab19.jpg,0,0,400,l,0,0,0,1,0,25,25,18,,,['l'],0,[0.05154820398820448],2018_Jul_09_1504,60.0343236532,go-nogo,001,44,
logos/2.jpg,properties2.xlsx,frogs/ab39.jpg,0,0,400,l,0,0,0,1,0,26,26,38,,,['l'],0,[0.10041295679548057],2018_Jul_09_1504,60.0343236532,go-nogo,001,44,
logos/2.jpg,properties2.xlsx,frogs/ab35.jpg,0,0,400,l,0,0,0,1,0,27,27,34,,,['l'],0,[0.06722338181134546],2018_Jul_09_1504,60.0343236532,go-nogo,001,44,
logos/2.jpg,properties2.xlsx,frogs/ab7.jpg,0,0,400,l,0,0,0,1,0,28,28,6,,,['l'],0,[0.06716251064426615],2018_Jul_09_1504,60.0343236532,go-nogo,001,44,
logos/2.jpg,properties2.xlsx,logos/2.jpg,0,0,400,a,0,0,0,1,0,29,29,87,,,['a'],0,[0.13371744743926683],2018_Jul_09_1504,60.0343236532,go-nogo,001,44,
logos/2.jpg,properties2.xlsx,frogs/ab26.jpg,0,0,400,l,0,0,0,1,0,30,30,25,,,['l'],0,[0.11707857101646368],2018_Jul_09_1504,60.0343236532,go-nogo,001,44,
logos/2.jpg,properties2.xlsx,frogs/ab62.jpg,0,0,400,l,0,0,0,1,0,31,31,60,,,['l'],0,[0.10044481460136012],2018_Jul_09_1504,60.0343236532,go-nogo,001,44,
logos/2.jpg,properties2.xlsx,frogs/ab13.jpg,0,0,400,l,0,0,0,1,0,32,32,12,,,['l'],0,[0.06708514169076807],2018_Jul_09_1504,60.0343236532,go-nogo,001,44,
logos/2.jpg,properties2.xlsx,logos/2.jpg,0,0,400,a,0,0,0,1,0,33,33,85,,,['a'],0,[0.050442851930711186],2018_Jul_09_1504,60.0343236532,go-nogo,001,44,
logos/2.jpg,properties2.xlsx,frogs/ab65.jpg,0,0,400,l,0,0,0,1,0,34,34,63,,,['l'],0,[0.10042490347404964],2018_Jul_09_1504,60.0343236532,go-nogo,001,44,
logos/2.jpg,properties2.xlsx,frogs/ab22.jpg,0,0,400,l,0,0,0,1,0,35,35,21,,,['l'],0,[0.20046523773271474],2018_Jul_09_1504,60.0343236532,go-nogo,001,44,
logos/2.jpg,properties2.xlsx,frogs/ab38.jpg,0,0,400,l,0,0,0,1,0,36,36,37,,,['l'],0,[0.21705917188955937],2018_Jul_09_1504,60.0343236532,go-nogo,001,44,
logos/2.jpg,properties2.xlsx,logos/2.jpg,0,0,400,a,0,0,0,1,0,37,37,82,,,['a'],0,[0.11711554882640485],2018_Jul_09_1504,60.0343236532,go-nogo,001,44,
logos/2.jpg,properties2.xlsx,frogs/ab4.jpg,0,0,400,l,0,0,0,1,0,38,38,3,,,['l'],0,[0.11698470427290886],2018_Jul_09_1504,60.0343236532,go-nogo,001,44,
logos/2.jpg,properties2.xlsx,frogs/ab78.jpg,0,0,400,l,0,0,0,1,0,39,39,76,,,['l'],0,[0.08389127158807241],2018_Jul_09_1504,60.0343236532,go-nogo,001,44,
logos/2.jpg,properties2.xlsx,frogs/ab50.jpg,0,0,400,l,0,0,0,1,0,40,40,49,,,['l'],0,[0.16709703147716937],2018_Jul_09_1504,60.0343236532,go-nogo,001,44,
logos/2.jpg,properties2.xlsx,frogs/ab58.jpg,0,0,400,l,0,0,0,1,0,41,41,57,,,['l'],0,[0.1669633424753556],2018_Jul_09_1504,60.0343236532,go-nogo,001,44,
logos/2.jpg,properties2.xlsx,frogs/ab3.jpg,0,0,400,l,0,0,0,1,0,42,42,2,,,['l'],0,[0.033891015584231354],2018_Jul_09_1504,60.0343236532,go-nogo,001,44,
logos/2.jpg,properties2.xlsx,frogs/ab20.jpg,0,0,400,l,0,0,0,1,0,43,43,19,,,['l'],0,[0.1171070154850895],2018_Jul_09_1504,60.0343236532,go-nogo,001,44,
logos/2.jpg,properties2.xlsx,frogs/ab51.jpg,0,0,400,l,0,0,0,1,0,44,44,50,,,['l'],0,[0.06733715968221077],2018_Jul_09_1504,60.0343236532,go-nogo,001,44,
logos/2.jpg,properties2.xlsx,frogs/ab16.jpg,0,0,400,l,0,0,0,1,0,45,45,15,,,['l'],0,[0.08388216935782111],2018_Jul_09_1504,60.0343236532,go-nogo,001,44,
logos/2.jpg,properties2.xlsx,frogs/ab45.jpg,0,0,400,l,0,0,0,1,0,46,46,44,,,['l'],0,[0.06711301727045793],2018_Jul_09_1504,60.0343236532,go-nogo,001,44,
logos/2.jpg,properties2.xlsx,frogs/ab9.jpg,0,0,400,l,0,0,0,1,0,47,47,8,,,['l'],0,[0.11700973540428095],2018_Jul_09_1504,60.0343236532,go-nogo,001,44,
logos/2.jpg,properties2.xlsx,logos/2.jpg,0,0,400,a,0,0,0,1,0,48,48,86,,,['a'],0,[0.10035948119548266],2018_Jul_09_1504,60.0343236532,go-nogo,001,44,
logos/2.jpg,properties2.xlsx,frogs/ab37.jpg,0,0,400,l,0,0,0,1,0,49,49,36,,,['l'],0,[0.6833863253777963],2018_Jul_09_1504,60.0343236532,go-nogo,001,44,
logos/2.jpg,properties2.xlsx,logos/2.jpg,0,0,400,a,0,0,0,1,0,50,50,80,,,['a'],0,[0.08398115610543755],2018_Jul_09_1504,60.0343236532,go-nogo,001,44,
logos/2.jpg,properties2.xlsx,frogs/ab31.jpg,0,0,400,l,0,0,0,1,0,51,51,30,,,['l'],0,[0.11705638432977139],2018_Jul_09_1504,60.0343236532,go-nogo,001,44,
logos/2.jpg,properties2.xlsx,frogs/ab27.jpg,0,0,400,l,0,0,0,1,0,52,52,26,,,['l'],0,[0.16685582238278585],2018_Jul_09_1504,60.0343236532,go-nogo,001,44,
logos/2.jpg,properties2.xlsx,frogs/ab8.jpg,0,0,400,l,0,0,0,1,0,53,53,7,,,['l'],0,[0.13395865653365036],2018_Jul_09_1504,60.0343236532,go-nogo,001,44,
logos/2.jpg,properties2.xlsx,frogs/ab64.jpg,0,0,400,l,0,0,0,1,0,54,54,62,,,['l'],0,[0.16711523593767197],2018_Jul_09_1504,60.0343236532,go-nogo,001,44,
logos/2.jpg,properties2.xlsx,frogs/ab81.jpg,0,0,400,l,0,0,0,1,0,55,55,79,,,['l'],0,[0.2003144820446323],2018_Jul_09_1504,60.0343236532,go-nogo,001,44,
logos/2.jpg,properties2.xlsx,frogs/ab63.jpg,0,0,400,l,0,0,0,1,0,56,56,61,,,['l'],0,[0.23371682166180108],2018_Jul_09_1504,60.0343236532,go-nogo,001,44,
logos/2.jpg,properties2.xlsx,frogs/ab49.jpg,0,0,400,l,0,0,0,1,0,57,57,48,,,['l'],0,[0.10041238790654461],2018_Jul_09_1504,60.0343236532,go-nogo,001,44,
logos/2.jpg,properties2.xlsx,frogs/ab48.jpg,0,0,400,l,0,0,0,1,0,58,58,47,,,['l'],0,[0.2337151149949932],2018_Jul_09_1504,60.0343236532,go-nogo,001,44,
logos/2.jpg,properties2.xlsx,frogs/ab47.jpg,0,0,400,l,0,0,0,1,0,59,59,46,,,['l'],0,[0.34989370301991585],2018_Jul_09_1504,60.0343236532,go-nogo,001,44,
logos/2.jpg,properties2.xlsx,frogs/ab61.jpg,0,0,400,l,0,0,0,1,0,60,60,59,,,['l'],0,[0.15124322239353205],2018_Jul_09_1504,60.0343236532,go-nogo,001,44,
logos/2.jpg,properties2.xlsx,frogs/ab6.jpg,0,0,400,l,0,0,0,1,0,61,61,5,,,['l'],0,[0.18370461898302892],2018_Jul_09_1504,60.0343236532,go-nogo,001,44,
logos/2.jpg,properties2.xlsx,logos/2.jpg,0,0,400,a,0,0,0,1,0,62,62,84,,,['a'],0,[0.11707629546071985],2018_Jul_09_1504,60.0343236532,go-nogo,001,44,
logos/2.jpg,properties2.xlsx,frogs/ab42.jpg,0,0,400,l,0,0,0,1,0,63,63,41,,,['l'],0,[0.08390094270725967],2018_Jul_09_1504,60.0343236532,go-nogo,001,44,
logos/2.jpg,properties2.xlsx,logos/2.jpg,0,0,400,a,0,0,0,1,0,64,64,88,,,['a'],0,[0.11685670416409266],2018_Jul_09_1504,60.0343236532,go-nogo,001,44,
logos/2.jpg,properties2.xlsx,frogs/ab33.jpg,0,0,400,l,0,0,0,1,0,65,65,32,,,['l'],0,[0.1503392571794393],2018_Jul_09_1504,60.0343236532,go-nogo,001,44,
logos/2.jpg,properties2.xlsx,frogs/ab2.jpg,0,0,400,l,0,0,0,1,0,66,66,1,,,['l'],0,[0.23371340832454734],2018_Jul_09_1504,60.0343236532,go-nogo,001,44,
logos/2.jpg,properties2.xlsx,frogs/ab80.jpg,0,0,400,l,0,0,0,1,0,67,67,78,,,['l'],0,[0.1503915950015653],2018_Jul_09_1504,60.0343236532,go-nogo,001,44,
logos/2.jpg,properties2.xlsx,frogs/ab74.jpg,0,0,400,l,0,0,0,1,0,68,68,72,,,['l'],0,[0.11720145112121827],2018_Jul_09_1504,60.0343236532,go-nogo,001,44,
logos/2.jpg,properties2.xlsx,frogs/ab66.jpg,0,0,400,l,0,0,0,1,0,69,69,64,,,['l'],0,[0.08398968944675289],2018_Jul_09_1504,60.0343236532,go-nogo,001,44,
logos/2.jpg,properties2.xlsx,frogs/ab43.jpg,0,0,400,l,0,0,0,1,0,70,70,42,,,['l'],0,[0.11703647320246091],2018_Jul_09_1504,60.0343236532,go-nogo,001,44,
logos/2.jpg,properties2.xlsx,logos/2.jpg,0,0,400,a,0,0,0,1,0,71,71,83,,,['a'],0,[0.13364178515257663],2018_Jul_09_1504,60.0343236532,go-nogo,001,44,
logos/2.jpg,properties2.xlsx,frogs/ab68.jpg,0,0,400,l,0,0,0,1,0,72,72,66,,,['l'],0,[0.03387736224249238],2018_Jul_09_1504,60.0343236532,go-nogo,001,44,
logos/2.jpg,properties2.xlsx,logos/2.jpg,0,0,400,a,0,0,0,1,0,73,73,89,,,['a'],0,[0.11719803778396454],2018_Jul_09_1504,60.0343236532,go-nogo,001,44,
logos/2.jpg,properties2.xlsx,frogs/ab32.jpg,0,0,400,l,0,0,0,1,0,74,74,31,,,['l'],0,[0.10036232564016245],2018_Jul_09_1504,60.0343236532,go-nogo,001,44,
logos/2.jpg,properties2.xlsx,logos/2.jpg,0,0,400,a,0,0,0,1,0,75,75,81,,,['a'],0,[0.11720145112121827],2018_Jul_09_1504,60.0343236532,go-nogo,001,44,
logos/2.jpg,properties2.xlsx,frogs/ab23.jpg,0,0,400,l,0,0,0,1,0,76,76,22,,,['l'],0,[0.3003849674387311],2018_Jul_09_1504,60.0343236532,go-nogo,001,44,
logos/2.jpg,properties2.xlsx,frogs/ab69.jpg,0,0,400,l,0,0,0,1,0,77,77,67,,,['l'],0,[0.11736586015103967],2018_Jul_09_1504,60.0343236532,go-nogo,001,44,
logos/2.jpg,properties2.xlsx,frogs/ab72.jpg,0,0,400,l,0,0,0,1,0,78,78,70,,,['l'],0,[0.10028552557560033],2018_Jul_09_1504,60.0343236532,go-nogo,001,44,
logos/2.jpg,properties2.xlsx,frogs/ab21.jpg,0,0,400,l,0,0,0,1,0,79,79,20,,,['l'],0,[0.10071845039055916],2018_Jul_09_1504,60.0343236532,go-nogo,001,44,
logos/2.jpg,properties2.xlsx,frogs/ab75.jpg,0,0,400,l,0,0,0,1,0,80,80,73,,,['l'],0,[0.200461824395461],2018_Jul_09_1504,60.0343236532,go-nogo,001,44,
logos/2.jpg,properties2.xlsx,frogs/ab40.jpg,0,0,400,l,0,0,0,1,0,81,81,39,,,['l'],0,[0.11703078431310132],2018_Jul_09_1504,60.0343236532,go-nogo,001,44,
logos/2.jpg,properties2.xlsx,frogs/ab17.jpg,0,0,400,l,0,0,0,1,0,82,82,16,,,['l'],0,[0.18372680566972122],2018_Jul_09_1504,60.0343236532,go-nogo,001,44,
logos/2.jpg,properties2.xlsx,frogs/ab34.jpg,0,0,400,l,0,0,0,1,0,83,83,33,,,['l'],0,[0.15075454642283148],2018_Jul_09_1504,60.0343236532,go-nogo,001,44,
logos/2.jpg,properties2.xlsx,frogs/ab18.jpg,0,0,400,l,0,0,0,1,0,84,84,17,,,['l'],0,[0.11706491767108673],2018_Jul_09_1504,60.0343236532,go-nogo,001,44,
logos/2.jpg,properties2.xlsx,frogs/ab73.jpg,0,0,400,l,0,0,0,1,0,85,85,71,,,['l'],0,[0.08387875602056738],2018_Jul_09_1504,60.0343236532,go-nogo,001,44,
logos/2.jpg,properties2.xlsx,frogs/ab28.jpg,0,0,400,l,0,0,0,1,0,86,86,27,,,['l'],0,[0.1337493052415084],2018_Jul_09_1504,60.0343236532,go-nogo,001,44,
logos/2.jpg,properties2.xlsx,frogs/ab24.jpg,0,0,400,l,0,0,0,1,0,87,87,23,,,['l'],0,[0.08370012475643307],2018_Jul_09_1504,60.0343236532,go-nogo,001,44,
logos/2.jpg,properties2.xlsx,frogs/ab36.jpg,0,0,400,l,0,0,0,1,0,88,88,35,,,['l'],0,[0.10027471667854115],2018_Jul_09_1504,60.0343236532,go-nogo,001,44,
logos/2.jpg,properties2.xlsx,frogs/ab44.jpg,0,0,400,l,0,0,0,1,0,89,89,43,,,['l'],0,[0.08377180481693358],2018_Jul_09_1504,60.0343236532,go-nogo,001,44,
logos/2.jpg,properties2.xlsx,,,,,,0,0,0,1,,,,,,,,,,2018_Jul_09_1504,60.0343236532,go-nogo,001,44,
logos/4.jpg,properties4.xlsx,frogs/ab35.jpg,0,0,400,l,0,1,1,3,0,0,0,34,space,1.09375126222,['l'],0,[0.1170415932101605],2018_Jul_09_1504,60.0343236532,go-nogo,001,44,
logos/4.jpg,properties4.xlsx,frogs/ab1.jpg,0,0,400,l,0,1,1,3,0,1,1,0,,,['l'],0,[0.18381669019072433],2018_Jul_09_1504,60.0343236532,go-nogo,001,44,
logos/4.jpg,properties4.xlsx,frogs/ab41.jpg,0,0,400,l,0,1,1,3,0,2,2,40,,,['l'],0,[0.11711668660791474],2018_Jul_09_1504,60.0343236532,go-nogo,001,44,
logos/4.jpg,properties4.xlsx,frogs/ab50.jpg,0,0,400,l,0,1,1,3,0,3,3,49,,,['l'],0,[0.200383886549389],2018_Jul_09_1504,60.0343236532,go-nogo,001,44,
logos/4.jpg,properties4.xlsx,frogs/ab72.jpg,0,0,400,l,0,1,1,3,0,4,4,70,,,['l'],0,[0.2666759964522498],2018_Jul_09_1504,60.0343236532,go-nogo,001,44,
logos/4.jpg,properties4.xlsx,logos/4.jpg,0,0,400,a,0,1,1,3,0,5,5,85,,,['a'],0,[0.18370177453471115],2018_Jul_09_1504,60.0343236532,go-nogo,001,44,
logos/4.jpg,properties4.xlsx,frogs/ab52.jpg,0,0,400,l,0,1,1,3,0,6,6,51,,,['l'],0,[0.15055259069413296],2018_Jul_09_1504,60.0343236532,go-nogo,001,44,
logos/4.jpg,properties4.xlsx,logos/4.jpg,0,0,400,a,0,1,1,3,0,7,7,89,,,['a'],0,[0.18335816535181948],2018_Jul_09_1504,60.0343236532,go-nogo,001,44,
logos/4.jpg,properties4.xlsx,logos/4.jpg,0,0,400,a,0,1,1,3,0,8,8,82,,,['a'],0,[0.2837386954561225],2018_Jul_09_1504,60.0343236532,go-nogo,001,44,
logos/4.jpg,properties4.xlsx,frogs/ab60.jpg,0,0,400,l,0,1,1,3,0,9,9,58,,,['l'],0,[0.13362130513269221],2018_Jul_09_1504,60.0343236532,go-nogo,001,44,
logos/4.jpg,properties4.xlsx,frogs/ab21.jpg,0,0,400,l,0,1,1,3,0,10,10,20,,,['l'],0,[0.2004646688401408],2018_Jul_09_1504,60.0343236532,go-nogo,001,44,
logos/4.jpg,properties4.xlsx,frogs/ab71.jpg,0,0,400,l,0,1,1,3,0,11,11,69,,,['l'],0,[0.2837438154638221],2018_Jul_09_1504,60.0343236532,go-nogo,001,44,
logos/4.jpg,properties4.xlsx,frogs/ab64.jpg,0,0,400,l,0,1,1,3,0,12,12,62,,,['l'],0,[0.15035916830674978],2018_Jul_09_1504,60.0343236532,go-nogo,001,44,
logos/4.jpg,properties4.xlsx,frogs/ab16.jpg,0,0,400,l,0,1,1,3,0,13,13,15,,,['l'],0,[0.15032958605661406],2018_Jul_09_1504,60.0343236532,go-nogo,001,44,
logos/4.jpg,properties4.xlsx,frogs/ab78.jpg,0,0,400,l,0,1,1,3,0,14,14,76,,,['l'],0,[0.1836056322317745],2018_Jul_09_1504,60.0343236532,go-nogo,001,44,
logos/4.jpg,properties4.xlsx,frogs/ab66.jpg,0,0,400,l,0,1,1,3,0,15,15,64,,,['l'],0,[0.20043281103426125],2018_Jul_09_1504,60.0343236532,go-nogo,001,44,
logos/4.jpg,properties4.xlsx,frogs/ab23.jpg,0,0,400,l,0,1,1,3,0,16,16,22,,,['l'],0,[0.2167007715870568],2018_Jul_09_1504,60.0343236532,go-nogo,001,44,
logos/4.jpg,properties4.xlsx,frogs/ab79.jpg,0,0,400,l,0,1,1,3,0,17,17,77,,,['l'],0,[0.20020468639631872],2018_Jul_09_1504,60.0343236532,go-nogo,001,44,
logos/4.jpg,properties4.xlsx,frogs/ab34.jpg,0,0,400,l,0,1,1,3,0,18,18,33,,,['l'],0,[0.28377965549225337],2018_Jul_09_1504,60.0343236532,go-nogo,001,44,
logos/4.jpg,properties4.xlsx,frogs/ab12.jpg,0,0,400,l,0,1,1,3,0,19,19,11,,,['l'],0,[0.2004384999308968],2018_Jul_09_1504,60.0343236532,go-nogo,001,44,
logos/4.jpg,properties4.xlsx,frogs/ab75.jpg,0,0,400,l,0,1,1,3,0,20,20,73,,,['l'],0,[0.283732437674189],2018_Jul_09_1504,60.0343236532,go-nogo,001,44,
logos/4.jpg,properties4.xlsx,frogs/ab28.jpg,0,0,400,l,0,1,1,3,0,21,21,27,,,['l'],0,[0.23375664392006001],2018_Jul_09_1504,60.0343236532,go-nogo,001,44,
logos/4.jpg,properties4.xlsx,frogs/ab74.jpg,0,0,400,l,0,1,1,3,0,22,22,72,,,['l'],0,[0.38342631830164464],2018_Jul_09_1504,60.0343236532,go-nogo,001,44,
logos/4.jpg,properties4.xlsx,frogs/ab42.jpg,0,0,400,l,0,1,1,3,0,23,23,41,,,['l'],0,[0.15048489285982214],2018_Jul_09_1504,60.0343236532,go-nogo,001,44,
logos/4.jpg,properties4.xlsx,frogs/ab54.jpg,0,0,400,l,0,1,1,3,0,24,24,53,,,['l'],0,[0.2838900200295029],2018_Jul_09_1504,60.0343236532,go-nogo,001,44,
logos/4.jpg,properties4.xlsx,frogs/ab36.jpg,0,0,400,l,0,1,1,3,0,25,25,35,,,['l'],0,[0.133832931980578],2018_Jul_09_1504,60.0343236532,go-nogo,001,44,
logos/4.jpg,properties4.xlsx,frogs/ab44.jpg,0,0,400,l,0,1,1,3,0,26,26,43,,,['l'],0,[0.28371707766200416],2018_Jul_09_1504,60.0343236532,go-nogo,001,44,
logos/4.jpg,properties4.xlsx,logos/4.jpg,0,0,400,a,0,1,1,3,0,27,27,87,,,['a'],0,[0.23369292830466293],2018_Jul_09_1504,60.0343236532,go-nogo,001,44,
logos/4.jpg,properties4.xlsx,frogs/ab40.jpg,0,0,400,l,0,1,1,3,0,28,28,39,,,['l'],0,[0.3000447715930932],2018_Jul_09_1504,60.0343236532,go-nogo,001,44,
logos/4.jpg,properties4.xlsx,frogs/ab61.jpg,0,0,400,l,0,1,1,3,0,29,29,59,,,['l'],0,[0.2838206155283842],2018_Jul_09_1504,60.0343236532,go-nogo,001,44,
logos/4.jpg,properties4.xlsx,frogs/ab25.jpg,0,0,400,l,0,1,1,3,0,30,30,24,,,['l'],0,[0.2503682136448333],2018_Jul_09_1504,60.0343236532,go-nogo,001,44,
logos/4.jpg,properties4.xlsx,frogs/ab65.jpg,0,0,400,l,0,1,1,3,0,31,31,63,,,['l'],0,[0.30040146523242583],2018_Jul_09_1504,60.0343236532,go-nogo,001,44,
logos/4.jpg,properties4.xlsx,frogs/ab45.jpg,0,0,400,l,0,1,1,3,0,32,32,44,,,['l'],0,[0.30003965158903156],2018_Jul_09_1504,60.0343236532,go-nogo,001,44,
logos/4.jpg,properties4.xlsx,frogs/ab19.jpg,0,0,400,l,0,1,1,3,0,33,33,18,,,['l'],0,[0.2337099949872936],2018_Jul_09_1504,60.0343236532,go-nogo,001,44,
logos/4.jpg,properties4.xlsx,frogs/ab2.jpg,0,0,400,l,0,1,1,3,0,34,34,1,,,['l'],0,[0.2670730812387774],2018_Jul_09_1504,60.0343236532,go-nogo,001,44,
logos/4.jpg,properties4.xlsx,frogs/ab69.jpg,0,0,400,l,0,1,1,3,0,35,35,67,,,['l'],0,[0.21708932302863104],2018_Jul_09_1504,60.0343236532,go-nogo,001,44,
logos/4.jpg,properties4.xlsx,frogs/ab70.jpg,0,0,400,l,0,1,1,3,0,36,36,68,,,['l'],0,[0.200357717636507],2018_Jul_09_1504,60.0343236532,go-nogo,001,44,
logos/4.jpg,properties4.xlsx,frogs/ab6.jpg,0,0,400,l,0,1,1,3,0,37,37,5,,,['l'],0,[0.25041088034777204],2018_Jul_09_1504,60.0343236532,go-nogo,001,44,
logos/4.jpg,properties4.xlsx,frogs/ab27.jpg,0,0,400,l,0,1,1,3,0,38,38,26,,,['l'],0,[0.18369381008596974],2018_Jul_09_1504,60.0343236532,go-nogo,001,44,
logos/4.jpg,properties4.xlsx,frogs/ab46.jpg,0,0,400,l,0,1,1,3,0,39,39,45,,,['l'],0,[0.28285976137340185],2018_Jul_09_1504,60.0343236532,go-nogo,001,44,
logos/4.jpg,properties4.xlsx,frogs/ab5.jpg,0,0,400,l,0,1,1,3,0,40,40,4,,,['l'],0,[0.20038161099364515],2018_Jul_09_1504,60.0343236532,go-nogo,001,44,
logos/4.jpg,properties4.xlsx,frogs/ab62.jpg,0,0,400,l,0,1,1,3,0,41,41,60,,,['l'],0,[0.20058811783383135],2018_Jul_09_1504,60.0343236532,go-nogo,001,44,
logos/4.jpg,properties4.xlsx,frogs/ab43.jpg,0,0,400,l,0,1,1,3,0,42,42,42,,,['l'],0,[0.21707282523493632],2018_Jul_09_1504,60.0343236532,go-nogo,001,44,
logos/4.jpg,properties4.xlsx,frogs/ab73.jpg,0,0,400,l,0,1,1,3,0,43,43,71,,,['l'],0,[0.23374412835255498],2018_Jul_09_1504,60.0343236532,go-nogo,001,44,
logos/4.jpg,properties4.xlsx,logos/4.jpg,0,0,400,a,0,1,1,3,0,44,44,80,,,['a'],0,[0.2170483629925002],2018_Jul_09_1504,60.0343236532,go-nogo,001,44,
logos/4.jpg,properties4.xlsx,frogs/ab26.jpg,0,0,400,l,0,1,1,3,0,45,45,25,,,['l'],0,[0.20035544208076317],2018_Jul_09_1504,60.0343236532,go-nogo,001,44,
logos/4.jpg,properties4.xlsx,logos/4.jpg,0,0,400,a,0,1,1,3,0,46,46,83,,,['a'],0,[0.1838445657667762],2018_Jul_09_1504,60.0343236532,go-nogo,001,44,
logos/4.jpg,properties4.xlsx,frogs/ab9.jpg,0,0,400,l,0,1,1,3,0,47,47,8,,,['l'],0,[0.41718648933238],2018_Jul_09_1504,60.0343236532,go-nogo,001,44,
logos/4.jpg,properties4.xlsx,frogs/ab67.jpg,0,0,400,l,0,1,1,3,0,48,48,65,,,['l'],0,[0.28353958417574177],2018_Jul_09_1504,60.0343236532,go-nogo,001,44,
logos/4.jpg,properties4.xlsx,frogs/ab20.jpg,0,0,400,l,0,1,1,3,0,49,49,19,,,['l'],0,[0.26709469902925775],2018_Jul_09_1504,60.0343236532,go-nogo,001,44,
logos/4.jpg,properties4.xlsx,frogs/ab56.jpg,0,0,400,l,0,1,1,3,0,50,50,55,,,['l'],0,[0.33352903127888567],2018_Jul_09_1504,60.0343236532,go-nogo,001,44,
logos/4.jpg,properties4.xlsx,frogs/ab7.jpg,0,0,400,l,0,1,1,3,0,51,51,6,,,['l'],0,[0.23337150581210153],2018_Jul_09_1504,60.0343236532,go-nogo,001,44,
logos/4.jpg,properties4.xlsx,frogs/ab63.jpg,0,0,400,l,0,1,1,3,0,52,52,61,,,['l'],0,[0.3336132269068912],2018_Jul_09_1504,60.0343236532,go-nogo,001,44,
logos/4.jpg,properties4.xlsx,frogs/ab81.jpg,0,0,400,l,0,1,1,3,0,53,53,79,,,['l'],0,[0.26712314350152155],2018_Jul_09_1504,60.0343236532,go-nogo,001,44,
logos/4.jpg,properties4.xlsx,logos/4.jpg,0,0,400,a,0,1,1,3,0,54,54,84,,,['a'],0,[0.2504017781211587],2018_Jul_09_1504,60.0343236532,go-nogo,001,44,
logos/4.jpg,properties4.xlsx,frogs/ab24.jpg,0,0,400,l,0,1,1,3,0,55,55,23,,,['l'],0,[0.18371201454283437],2018_Jul_09_1504,60.0343236532,go-nogo,001,44,
logos/4.jpg,properties4.xlsx,frogs/ab38.jpg,0,0,400,l,0,1,1,3,0,56,56,37,,,['l'],0,[0.26709981903695734],2018_Jul_09_1504,60.0343236532,go-nogo,001,44,
logos/4.jpg,properties4.xlsx,frogs/ab3.jpg,0,0,400,l,0,1,1,3,0,57,57,2,,,['l'],0,[0.20040834879182512],2018_Jul_09_1504,60.0343236532,go-nogo,001,44,
logos/4.jpg,properties4.xlsx,frogs/ab32.jpg,0,0,400,l,0,1,1,3,0,58,58,31,,,['l'],0,[0.2503886936647177],2018_Jul_09_1504,60.0343236532,go-nogo,001,44,
logos/4.jpg,properties4.xlsx,frogs/ab17.jpg,0,0,400,l,0,1,1,3,0,59,59,16,,,['l'],0,[0.21727193651531707],2018_Jul_09_1504,60.0343236532,go-nogo,001,44,
logos/4.jpg,properties4.xlsx,frogs/ab57.jpg,0,0,400,l,0,1,1,3,0,60,60,56,,,['l'],0,[0.23411276866681874],2018_Jul_09_1504,60.0343236532,go-nogo,001,44,
logos/4.jpg,properties4.xlsx,frogs/ab47.jpg,0,0,400,l,0,1,1,3,0,61,61,46,,,['l'],0,[0.2837426776823122],2018_Jul_09_1504,60.0343236532,go-nogo,001,44,
logos/4.jpg,properties4.xlsx,frogs/ab53.jpg,0,0,400,l,0,1,1,3,0,62,62,52,,,['l'],0,[0.28370797543175286],2018_Jul_09_1504,60.0343236532,go-nogo,001,44,
logos/4.jpg,properties4.xlsx,frogs/ab14.jpg,0,0,400,l,0,1,1,3,0,63,63,13,,,['l'],0,[0.23393527518055635],2018_Jul_09_1504,60.0343236532,go-nogo,001,44,
logos/4.jpg,properties4.xlsx,frogs/ab49.jpg,0,0,400,l,0,1,1,3,0,64,64,48,,,['l'],0,[0.25043818703852594],2018_Jul_09_1504,60.0343236532,go-nogo,001,44,
logos/4.jpg,properties4.xlsx,frogs/ab18.jpg,0,0,400,l,0,1,1,3,0,65,65,17,,,['l'],0,[0.2169897673848027],2018_Jul_09_1504,60.0343236532,go-nogo,001,44,
logos/4.jpg,properties4.xlsx,frogs/ab33.jpg,0,0,400,l,0,1,1,3,0,66,66,32,,,['l'],0,[0.2838388199888868],2018_Jul_09_1504,60.0343236532,go-nogo,001,44,
logos/4.jpg,properties4.xlsx,frogs/ab51.jpg,0,0,400,l,0,1,1,3,0,67,67,50,,,['l'],0,[0.21703812298437697],2018_Jul_09_1504,60.0343236532,go-nogo,001,44,
logos/4.jpg,properties4.xlsx,frogs/ab68.jpg,0,0,400,l,0,1,1,3,0,68,68,66,,,['l'],0,[0.3170079149567755],2018_Jul_09_1504,60.0343236532,go-nogo,001,44,
logos/4.jpg,properties4.xlsx,frogs/ab31.jpg,0,0,400,l,0,1,1,3,0,69,69,30,,,['l'],0,[0.28366758428455796],2018_Jul_09_1504,60.0343236532,go-nogo,001,44,
logos/4.jpg,properties4.xlsx,logos/4.jpg,0,0,400,a,0,1,1,3,0,70,70,86,,,['a'],0,[0.183912263604725],2018_Jul_09_1504,60.0343236532,go-nogo,001,44,
logos/4.jpg,properties4.xlsx,frogs/ab39.jpg,0,0,400,l,0,1,1,3,0,71,71,38,,,['l'],0,[0.20064557566365693],2018_Jul_09_1504,60.0343236532,go-nogo,001,44,
logos/4.jpg,properties4.xlsx,frogs/ab30.jpg,0,0,400,l,0,1,1,3,0,72,72,29,,,['l'],0,[0.2504188448037894],2018_Jul_09_1504,60.0343236532,go-nogo,001,44,
logos/4.jpg,properties4.xlsx,frogs/ab77.jpg,0,0,400,l,0,1,1,3,0,73,73,75,,,['l'],0,[0.2337060127647419],2018_Jul_09_1504,60.0343236532,go-nogo,001,44,
logos/4.jpg,properties4.xlsx,frogs/ab8.jpg,0,0,400,l,0,1,1,3,0,74,74,7,,,['l'],0,[0.11712521994559211],2018_Jul_09_1504,60.0343236532,go-nogo,001,44,
logos/4.jpg,properties4.xlsx,frogs/ab80.jpg,0,0,400,l,0,1,1,3,0,75,75,78,,,['l'],0,[0.23346139032946667],2018_Jul_09_1504,60.0343236532,go-nogo,001,44,
logos/4.jpg,properties4.xlsx,frogs/ab37.jpg,0,0,400,l,0,1,1,3,0,76,76,36,,,['l'],0,[0.3003747274306079],2018_Jul_09_1504,60.0343236532,go-nogo,001,44,
logos/4.jpg,properties4.xlsx,frogs/ab11.jpg,0,0,400,l,0,1,1,3,0,77,77,10,,,['l'],0,[0.2504529781617748],2018_Jul_09_1504,60.0343236532,go-nogo,001,44,
logos/4.jpg,properties4.xlsx,logos/4.jpg,0,0,400,a,0,1,1,3,0,78,78,88,,,['a'],0,[0.20050221553901793],2018_Jul_09_1504,60.0343236532,go-nogo,001,44,
logos/4.jpg,properties4.xlsx,frogs/ab22.jpg,0,0,400,l,0,1,1,3,0,79,79,21,,,['l'],0,[0.2333703680342296],2018_Jul_09_1504,60.0343236532,go-nogo,001,44,
logos/4.jpg,properties4.xlsx,frogs/ab4.jpg,0,0,400,l,0,1,1,3,0,80,80,3,,,['l'],0,[0.20039697100582998],2018_Jul_09_1504,60.0343236532,go-nogo,001,44,
logos/4.jpg,properties4.xlsx,frogs/ab58.jpg,0,0,400,l,0,1,1,3,0,81,81,57,,,['l'],0,[0.25040007145435084],2018_Jul_09_1504,60.0343236532,go-nogo,001,44,
logos/4.jpg,properties4.xlsx,frogs/ab13.jpg,0,0,400,l,0,1,1,3,0,82,82,12,,,['l'],0,[0.16714595596204163],2018_Jul_09_1504,60.0343236532,go-nogo,001,44,
logos/4.jpg,properties4.xlsx,frogs/ab10.jpg,0,0,400,l,0,1,1,3,0,83,83,9,,,['l'],0,[0.2173498743577511],2018_Jul_09_1504,60.0343236532,go-nogo,001,44,
logos/4.jpg,properties4.xlsx,frogs/ab48.jpg,0,0,400,l,0,1,1,3,0,84,84,47,,,['l'],0,[0.2005676378175849],2018_Jul_09_1504,60.0343236532,go-nogo,001,44,
logos/4.jpg,properties4.xlsx,frogs/ab29.jpg,0,0,400,l,0,1,1,3,0,85,85,28,,,['l'],0,[0.21709046080650296],2018_Jul_09_1504,60.0343236532,go-nogo,001,44,
logos/4.jpg,properties4.xlsx,frogs/ab15.jpg,0,0,400,l,0,1,1,3,0,86,86,14,,,['l'],0,[0.1337060696532717],2018_Jul_09_1504,60.0343236532,go-nogo,001,44,
logos/4.jpg,properties4.xlsx,frogs/ab76.jpg,0,0,400,l,0,1,1,3,0,87,87,74,,,['l'],0,[0.2504188448001514],2018_Jul_09_1504,60.0343236532,go-nogo,001,44,
logos/4.jpg,properties4.xlsx,logos/4.jpg,0,0,400,a,0,1,1,3,0,88,88,81,,,['a'],0,[0.20028660646858043],2018_Jul_09_1504,60.0343236532,go-nogo,001,44,
logos/4.jpg,properties4.xlsx,frogs/ab55.jpg,0,0,400,l,0,1,1,3,0,89,89,54,,,['l'],0,[0.1337322385625157],2018_Jul_09_1504,60.0343236532,go-nogo,001,44,
logos/4.jpg,properties4.xlsx,,,,,,0,1,1,3,,,,,,,,,,2018_Jul_09_1504,60.0343236532,go-nogo,001,44,
logos/1.jpg,properties1.xlsx,frogs/ab3.jpg,0,0,400,l,0,2,2,0,0,0,0,2,space,1.23342043029,['l'],0,[0.33358933355339104],2018_Jul_09_1504,60.0343236532,go-nogo,001,44,
logos/1.jpg,properties1.xlsx,logos/1.jpg,0,0,400,a,0,2,2,0,0,1,1,82,,,['a'],0,[0.4003445194066444],2018_Jul_09_1504,60.0343236532,go-nogo,001,44,
logos/1.jpg,properties1.xlsx,frogs/ab44.jpg,0,0,400,l,0,2,2,0,0,2,2,43,,,['l'],0,[0.6501336036672001],2018_Jul_09_1504,60.0343236532,go-nogo,001,44,
logos/1.jpg,properties1.xlsx,frogs/ab35.jpg,0,0,400,l,0,2,2,0,0,3,3,34,,,['l'],0,[0.10058817472599912],2018_Jul_09_1504,60.0343236532,go-nogo,001,44,
logos/1.jpg,properties1.xlsx,frogs/ab76.jpg,0,0,400,l,0,2,2,0,0,4,4,74,,,['l'],0,[0.23431643105868716],2018_Jul_09_1504,60.0343236532,go-nogo,001,44,
logos/1.jpg,properties1.xlsx,frogs/ab74.jpg,0,0,400,l,0,2,2,0,0,5,5,72,,,['l'],0,[0.21708022079837974],2018_Jul_09_1504,60.0343236532,go-nogo,001,44,
logos/1.jpg,properties1.xlsx,frogs/ab79.jpg,0,0,400,l,0,2,2,0,0,6,6,77,,,['l'],0,[0.15045701728013228],2018_Jul_09_1504,60.0343236532,go-nogo,001,44,
logos/1.jpg,properties1.xlsx,logos/1.jpg,0,0,400,a,0,2,2,0,0,7,7,87,,,['a'],0,[0.1837063256498368],2018_Jul_09_1504,60.0343236532,go-nogo,001,44,
logos/1.jpg,properties1.xlsx,logos/1.jpg,0,0,400,a,0,2,2,0,0,8,8,80,,,['a'],0,[0.28381265107600484],2018_Jul_09_1504,60.0343236532,go-nogo,001,44,
logos/1.jpg,properties1.xlsx,frogs/ab55.jpg,0,0,400,l,0,2,2,0,0,9,9,54,,,['l'],0,[0.03387736224249238],2018_Jul_09_1504,60.0343236532,go-nogo,001,44,
logos/1.jpg,properties1.xlsx,frogs/ab24.jpg,0,0,400,l,0,2,2,0,0,10,10,23,,,['l'],0,[0.23370658165003988],2018_Jul_09_1504,60.0343236532,go-nogo,001,44,
logos/1.jpg,properties1.xlsx,frogs/ab15.jpg,0,0,400,l,0,2,2,0,0,11,11,14,,,['l'],0,[0.13363040736294352],2018_Jul_09_1504,60.0343236532,go-nogo,001,44,
logos/1.jpg,properties1.xlsx,frogs/ab29.jpg,0,0,400,l,0,2,2,0,0,12,12,28,,,['l'],0,[0.16705152032591286],2018_Jul_09_1504,60.0343236532,go-nogo,001,44,
logos/1.jpg,properties1.xlsx,logos/1.jpg,0,0,400,a,0,2,2,0,0,13,13,86,,,['a'],0,[0.1837285123365291],2018_Jul_09_1504,60.0343236532,go-nogo,001,44,
logos/1.jpg,properties1.xlsx,frogs/ab67.jpg,0,0,400,l,0,2,2,0,0,14,14,65,,,['l'],0,[0.2003628376442066],2018_Jul_09_1504,60.0343236532,go-nogo,001,44,
logos/1.jpg,properties1.xlsx,frogs/ab75.jpg,0,0,400,l,0,2,2,0,0,15,15,73,,,['l'],0,[0.217076807461126],2018_Jul_09_1504,60.0343236532,go-nogo,001,44,
logos/1.jpg,properties1.xlsx,logos/1.jpg,0,0,400,a,0,2,2,0,0,16,16,88,,,['a'],0,[0.21704039854375878],2018_Jul_09_1504,60.0343236532,go-nogo,001,44,
logos/1.jpg,properties1.xlsx,frogs/ab28.jpg,0,0,400,l,0,2,2,0,0,17,17,27,,,['l'],0,[0.18388040579884546],2018_Jul_09_1504,60.0343236532,go-nogo,001,44,
logos/1.jpg,properties1.xlsx,frogs/ab61.jpg,0,0,400,l,0,2,2,0,0,18,18,59,,,['l'],0,[0.15052243955506128],2018_Jul_09_1504,60.0343236532,go-nogo,001,44,
logos/1.jpg,properties1.xlsx,frogs/ab52.jpg,0,0,400,l,0,2,2,0,0,19,19,51,,,['l'],0,[0.21708249635776156],2018_Jul_09_1504,60.0343236532,go-nogo,001,44,
logos/1.jpg,properties1.xlsx,frogs/ab9.jpg,0,0,400,l,0,2,2,0,0,20,20,8,,,['l'],0,[0.23374981724191457],2018_Jul_09_1504,60.0343236532,go-nogo,001,44,
logos/1.jpg,properties1.xlsx,logos/1.jpg,0,0,400,a,0,2,2,0,0,21,21,85,,,['a'],0,[0.18352143660376896],2018_Jul_09_1504,60.0343236532,go-nogo,001,44,
logos/1.jpg,properties1.xlsx,frogs/ab81.jpg,0,0,400,l,0,2,2,0,0,22,22,79,,,['l'],0,[0.15040581723224022],2018_Jul_09_1504,60.0343236532,go-nogo,001,44,
logos/1.jpg,properties1.xlsx,frogs/ab12.jpg,0,0,400,l,0,2,2,0,0,23,23,11,,,['l'],0,[0.1338079008492059],2018_Jul_09_1504,60.0343236532,go-nogo,001,44,
logos/1.jpg,properties1.xlsx,frogs/ab71.jpg,0,0,400,l,0,2,2,0,0,24,24,69,,,['l'],0,[0.2002439397656417],2018_Jul_09_1504,60.0343236532,go-nogo,001,44,
logos/1.jpg,properties1.xlsx,frogs/ab2.jpg,0,0,400,l,0,2,2,0,0,25,25,1,,,['l'],0,[0.3503345922836161],2018_Jul_09_1504,60.0343236532,go-nogo,001,44,
logos/1.jpg,properties1.xlsx,frogs/ab58.jpg,0,0,400,l,0,2,2,0,0,26,26,57,,,['l'],0,[0.21703869187331293],2018_Jul_09_1504,60.0343236532,go-nogo,001,44,
logos/1.jpg,properties1.xlsx,frogs/ab66.jpg,0,0,400,l,0,2,2,0,0,27,27,64,,,['l'],0,[0.21693174066967913],2018_Jul_09_1504,60.0343236532,go-nogo,001,44,
logos/1.jpg,properties1.xlsx,frogs/ab37.jpg,0,0,400,l,0,2,2,0,0,28,28,36,,,['l'],0,[0.21704210520692868],2018_Jul_09_1504,60.0343236532,go-nogo,001,44,
logos/1.jpg,properties1.xlsx,frogs/ab42.jpg,0,0,400,l,0,2,2,0,0,29,29,41,,,['l'],0,[0.23372876833673217],2018_Jul_09_1504,60.0343236532,go-nogo,001,44,
logos/1.jpg,properties1.xlsx,frogs/ab39.jpg,0,0,400,l,0,2,2,0,0,30,30,38,,,['l'],0,[0.2003656820888864],2018_Jul_09_1504,60.0343236532,go-nogo,001,44,
logos/1.jpg,properties1.xlsx,frogs/ab45.jpg,0,0,400,l,0,2,2,0,0,31,31,44,,,['l'],0,[0.13342219385594944],2018_Jul_09_1504,60.0343236532,go-nogo,001,44,
logos/1.jpg,properties1.xlsx,frogs/ab21.jpg,0,0,400,l,0,2,2,0,0,32,32,20,,,['l'],0,[0.15040695501375012],2018_Jul_09_1504,60.0343236532,go-nogo,001,44,
logos/1.jpg,properties1.xlsx,frogs/ab68.jpg,0,0,400,l,0,2,2,0,0,33,33,66,,,['l'],0,[0.21694311845931225],2018_Jul_09_1504,60.0343236532,go-nogo,001,44,
logos/1.jpg,properties1.xlsx,frogs/ab25.jpg,0,0,400,l,0,2,2,0,0,34,34,24,,,['l'],0,[0.200292295361578],2018_Jul_09_1504,60.0343236532,go-nogo,001,44,
logos/1.jpg,properties1.xlsx,frogs/ab1.jpg,0,0,400,l,0,2,2,0,0,35,35,0,,,['l'],0,[0.20036226875527063],2018_Jul_09_1504,60.0343236532,go-nogo,001,44,
logos/1.jpg,properties1.xlsx,frogs/ab69.jpg,0,0,400,l,0,2,2,0,0,36,36,67,,,['l'],0,[0.25036366252970765],2018_Jul_09_1504,60.0343236532,go-nogo,001,44,
logos/1.jpg,properties1.xlsx,frogs/ab10.jpg,0,0,400,l,0,2,2,0,0,37,37,9,,,['l'],0,[0.3003878118870489],2018_Jul_09_1504,60.0343236532,go-nogo,001,44,
logos/1.jpg,properties1.xlsx,frogs/ab5.jpg,0,0,400,l,0,2,2,0,0,38,38,4,,,['l'],0,[0.850021418686083],2018_Jul_09_1504,60.0343236532,go-nogo,001,44,
logos/1.jpg,properties1.xlsx,frogs/ab60.jpg,0,0,400,l,0,2,2,0,0,39,39,58,,,['l'],0,[0.25053944934916217],2018_Jul_09_1504,60.0343236532,go-nogo,001,44,
logos/1.jpg,properties1.xlsx,frogs/ab40.jpg,0,0,400,l,0,2,2,0,0,40,40,39,,,['l'],0,[0.2831908549887885],2018_Jul_09_1504,60.0343236532,go-nogo,001,44,
logos/1.jpg,properties1.xlsx,frogs/ab26.jpg,0,0,400,l,0,2,2,0,0,41,41,25,,,['l'],0,[0.233704874983232],2018_Jul_09_1504,60.0343236532,go-nogo,001,44,
logos/1.jpg,properties1.xlsx,frogs/ab14.jpg,0,0,400,l,0,2,2,0,0,42,42,13,,,['l'],0,[0.2834360463093617],2018_Jul_09_1504,60.0343236532,go-nogo,001,44,
logos/1.jpg,properties1.xlsx,logos/1.jpg,0,0,400,a,0,2,2,0,0,43,43,83,,,['a'],0,[0.2336593638319755],2018_Jul_09_1504,60.0343236532,go-nogo,001,44,
logos/1.jpg,properties1.xlsx,frogs/ab33.jpg,0,0,400,l,0,2,2,0,0,44,44,32,,,['l'],0,[0.2836874954155064],2018_Jul_09_1504,60.0343236532,go-nogo,001,44,
logos/1.jpg,properties1.xlsx,frogs/ab51.jpg,0,0,400,l,0,2,2,0,0,45,45,50,,,['l'],0,[0.2504592359473463],2018_Jul_09_1504,60.0343236532,go-nogo,001,44,
logos/1.jpg,properties1.xlsx,frogs/ab19.jpg,0,0,400,l,0,2,2,0,0,46,46,18,,,['l'],0,[0.26681139212450944],2018_Jul_09_1504,60.0343236532,go-nogo,001,44,
logos/1.jpg,properties1.xlsx,frogs/ab4.jpg,0,0,400,l,0,2,2,0,0,47,47,3,,,['l'],0,[0.21690272731211735],2018_Jul_09_1504,60.0343236532,go-nogo,001,44,
logos/1.jpg,properties1.xlsx,frogs/ab64.jpg,0,0,400,l,0,2,2,0,0,48,48,62,,,['l'],0,[0.2837204909992579],2018_Jul_09_1504,60.0343236532,go-nogo,001,44,
logos/1.jpg,properties1.xlsx,frogs/ab50.jpg,0,0,400,l,0,2,2,0,0,49,49,49,,,['l'],0,[0.24999160888182814],2018_Jul_09_1504,60.0343236532,go-nogo,001,44,
logos/1.jpg,properties1.xlsx,logos/1.jpg,0,0,400,a,0,2,2,0,0,50,50,84,,,['a'],0,[0.2336553816057858],2018_Jul_09_1504,60.0343236532,go-nogo,001,44,
logos/1.jpg,properties1.xlsx,frogs/ab70.jpg,0,0,400,l,0,2,2,0,0,51,51,68,,,['l'],0,[0.08375985814200249],2018_Jul_09_1504,60.0343236532,go-nogo,001,44,
logos/1.jpg,properties1.xlsx,frogs/ab78.jpg,0,0,400,l,0,2,2,0,0,52,52,76,,,['l'],0,[0.2171319897279318],2018_Jul_09_1504,60.0343236532,go-nogo,001,44,
logos/1.jpg,properties1.xlsx,frogs/ab8.jpg,0,0,400,l,0,2,2,0,0,53,53,7,,,['l'],0,[0.1503534794137522],2018_Jul_09_1504,60.0343236532,go-nogo,001,44,
logos/1.jpg,properties1.xlsx,frogs/ab6.jpg,0,0,400,l,0,2,2,0,0,54,54,5,,,['l'],0,[0.23367586162567022],2018_Jul_09_1504,60.0343236532,go-nogo,001,44,
logos/1.jpg,properties1.xlsx,frogs/ab54.jpg,0,0,400,l,0,2,2,0,0,55,55,53,,,['l'],0,[0.15053495512256632],2018_Jul_09_1504,60.0343236532,go-nogo,001,44,
logos/1.jpg,properties1.xlsx,frogs/ab63.jpg,0,0,400,l,0,2,2,0,0,56,56,61,,,['l'],0,[0.2503904003315256],2018_Jul_09_1504,60.0343236532,go-nogo,001,44,
logos/1.jpg,properties1.xlsx,frogs/ab17.jpg,0,0,400,l,0,2,2,0,0,57,57,16,,,['l'],0,[0.16730467609886546],2018_Jul_09_1504,60.0343236532,go-nogo,001,44,
logos/1.jpg,properties1.xlsx,frogs/ab13.jpg,0,0,400,l,0,2,2,0,0,58,58,12,,,['l'],0,[0.2000471040410048],2018_Jul_09_1504,60.0343236532,go-nogo,001,44,
logos/1.jpg,properties1.xlsx,frogs/ab7.jpg,0,0,400,l,0,2,2,0,0,59,59,6,,,['l'],0,[0.10048122352236533],2018_Jul_09_1504,60.0343236532,go-nogo,001,44,
logos/1.jpg,properties1.xlsx,frogs/ab48.jpg,0,0,400,l,0,2,2,0,0,60,60,47,,,['l'],0,[0.21759677234877017],2018_Jul_09_1504,60.0343236532,go-nogo,001,44,
logos/1.jpg,properties1.xlsx,frogs/ab11.jpg,0,0,400,l,0,2,2,0,0,61,61,10,,,['l'],0,[0.1503551860805601],2018_Jul_09_1504,60.0343236532,go-nogo,001,44,
logos/1.jpg,properties1.xlsx,frogs/ab27.jpg,0,0,400,l,0,2,2,0,0,62,62,26,,,['l'],0,[0.16710499592954875],2018_Jul_09_1504,60.0343236532,go-nogo,001,44,
logos/1.jpg,properties1.xlsx,frogs/ab62.jpg,0,0,400,l,0,2,2,0,0,63,63,60,,,['l'],0,[0.26714305462883203],2018_Jul_09_1504,60.0343236532,go-nogo,001,44,
logos/1.jpg,properties1.xlsx,frogs/ab80.jpg,0,0,400,l,0,2,2,0,0,64,64,78,,,['l'],0,[0.25037788476765854],2018_Jul_09_1504,60.0343236532,go-nogo,001,44,
logos/1.jpg,properties1.xlsx,frogs/ab56.jpg,0,0,400,l,0,2,2,0,0,65,65,55,,,['l'],0,[0.21709444303269265],2018_Jul_09_1504,60.0343236532,go-nogo,001,44,
logos/1.jpg,properties1.xlsx,frogs/ab47.jpg,0,0,400,l,0,2,2,0,0,66,66,46,,,['l'],0,[0.8501761565930792],2018_Jul_09_1504,60.0343236532,go-nogo,001,44,
logos/1.jpg,properties1.xlsx,frogs/ab22.jpg,0,0,400,l,0,2,2,0,0,67,67,21,,,['l'],0,[0.4504204376935377],2018_Jul_09_1504,60.0343236532,go-nogo,001,44,
logos/1.jpg,properties1.xlsx,frogs/ab38.jpg,0,0,400,l,0,2,2,0,0,68,68,37,,,['l'],0,[0.36697972648835275],2018_Jul_09_1504,60.0343236532,go-nogo,001,44,
logos/1.jpg,properties1.xlsx,frogs/ab49.jpg,0,0,400,l,0,2,2,0,0,69,69,48,,,['l'],0,[0.333955698308273],2018_Jul_09_1504,60.0343236532,go-nogo,001,44,
logos/1.jpg,properties1.xlsx,frogs/ab65.jpg,0,0,400,l,0,2,2,0,0,70,70,63,,,['l'],0,[0.2503966581170971],2018_Jul_09_1504,60.0343236532,go-nogo,001,44,
logos/1.jpg,properties1.xlsx,frogs/ab16.jpg,0,0,400,l,0,2,2,0,0,71,71,15,,,['l'],0,[0.2336565193872957],2018_Jul_09_1504,60.0343236532,go-nogo,001,44,
logos/1.jpg,properties1.xlsx,frogs/ab31.jpg,0,0,400,l,0,2,2,0,0,72,72,30,,,['l'],0,[0.25002688002132345],2018_Jul_09_1504,60.0343236532,go-nogo,001,44,
logos/1.jpg,properties1.xlsx,frogs/ab46.jpg,0,0,400,l,0,2,2,0,0,73,73,45,,,['l'],0,[0.1839424147437967],2018_Jul_09_1504,60.0343236532,go-nogo,001,44,
logos/1.jpg,properties1.xlsx,frogs/ab57.jpg,0,0,400,l,0,2,2,0,0,74,74,56,,,['l'],0,[0.2337230794437346],2018_Jul_09_1504,60.0343236532,go-nogo,001,44,
logos/1.jpg,properties1.xlsx,frogs/ab23.jpg,0,0,400,l,0,2,2,0,0,75,75,22,,,['l'],0,[0.1340496788325254],2018_Jul_09_1504,60.0343236532,go-nogo,001,44,
logos/1.jpg,properties1.xlsx,frogs/ab36.jpg,0,0,400,l,0,2,2,0,0,76,76,35,,,['l'],0,[0.2671589835299528],2018_Jul_09_1504,60.0343236532,go-nogo,001,44,
logos/1.jpg,properties1.xlsx,frogs/ab73.jpg,0,0,400,l,0,2,2,0,0,77,77,71,,,['l'],0,[0.3336883203010075],2018_Jul_09_1504,60.0343236532,go-nogo,001,44,
logos/1.jpg,properties1.xlsx,frogs/ab43.jpg,0,0,400,l,0,2,2,0,0,78,78,42,,,['l'],0,[0.23373673278547358],2018_Jul_09_1504,60.0343236532,go-nogo,001,44,
logos/1.jpg,properties1.xlsx,logos/1.jpg,0,0,400,a,0,2,2,0,0,79,79,81,,,['a'],0,[0.2337321816739859],2018_Jul_09_1504,60.0343236532,go-nogo,001,44,
logos/1.jpg,properties1.xlsx,frogs/ab34.jpg,0,0,400,l,0,2,2,0,0,80,80,33,,,['l'],0,[0.08390378715193947],2018_Jul_09_1504,60.0343236532,go-nogo,001,44,
logos/1.jpg,properties1.xlsx,frogs/ab53.jpg,0,0,400,l,0,2,2,0,0,81,81,52,,,['l'],0,[0.25035399141415837],2018_Jul_09_1504,60.0343236532,go-nogo,001,44,
logos/1.jpg,properties1.xlsx,logos/1.jpg,0,0,400,a,0,2,2,0,0,82,82,89,,,['a'],0,[0.23374697279723478],2018_Jul_09_1504,60.0343236532,go-nogo,001,44,
logos/1.jpg,properties1.xlsx,frogs/ab32.jpg,0,0,400,l,0,2,2,0,0,83,83,31,,,['l'],0,[0.36694161090053967],2018_Jul_09_1504,60.0343236532,go-nogo,001,44,
logos/1.jpg,properties1.xlsx,frogs/ab30.jpg,0,0,400,l,0,2,2,0,0,84,84,29,,,['l'],0,[0.2504381870421639],2018_Jul_09_1504,60.0343236532,go-nogo,001,44,
logos/1.jpg,properties1.xlsx,frogs/ab72.jpg,0,0,400,l,0,2,2,0,0,85,85,70,,,['l'],0,[0.21704096742905676],2018_Jul_09_1504,60.0343236532,go-nogo,001,44,
logos/1.jpg,properties1.xlsx,frogs/ab20.jpg,0,0,400,l,0,2,2,0,0,86,86,19,,,['l'],0,[0.2667112675953831],2018_Jul_09_1504,60.0343236532,go-nogo,001,44,
logos/1.jpg,properties1.xlsx,frogs/ab41.jpg,0,0,400,l,0,2,2,0,0,87,87,40,,,['l'],0,[0.11705012655147584],2018_Jul_09_1504,60.0343236532,go-nogo,001,44,
logos/1.jpg,properties1.xlsx,frogs/ab18.jpg,0,0,400,l,0,2,2,0,0,88,88,17,,,['l'],0,[0.2504074670141563],2018_Jul_09_1504,60.0343236532,go-nogo,001,44,
logos/1.jpg,properties1.xlsx,frogs/ab77.jpg,0,0,400,l,0,2,2,0,0,89,89,75,,,['l'],0,[0.2169647362534306],2018_Jul_09_1504,60.0343236532,go-nogo,001,44,
logos/1.jpg,properties1.xlsx,,,,,,0,2,2,0,,,,,,,,,,2018_Jul_09_1504,60.0343236532,go-nogo,001,44,
logos/3.jpg,properties3.xlsx,frogs/ab45.jpg,0,0,400,l,0,3,3,2,0,0,0,44,space,0.909827620831,['l'],0,[0.26719482356202207],2018_Jul_09_1504,60.0343236532,go-nogo,001,44,
logos/3.jpg,properties3.xlsx,frogs/ab39.jpg,0,0,400,l,0,3,3,2,0,1,1,38,,,['l'],0,[0.23372933722566813],2018_Jul_09_1504,60.0343236532,go-nogo,001,44,
logos/3.jpg,properties3.xlsx,frogs/ab21.jpg,0,0,400,l,0,3,3,2,0,2,2,20,,,['l'],0,[0.23369122163785505],2018_Jul_09_1504,60.0343236532,go-nogo,001,44,
logos/3.jpg,properties3.xlsx,frogs/ab31.jpg,0,0,400,l,0,3,3,2,0,3,3,30,,,['l'],0,[0.23372819944779621],2018_Jul_09_1504,60.0343236532,go-nogo,001,44,
logos/3.jpg,properties3.xlsx,frogs/ab69.jpg,0,0,400,l,0,3,3,2,0,4,4,67,,,['l'],0,[0.200514162217587],2018_Jul_09_1504,60.0343236532,go-nogo,001,44,
logos/3.jpg,properties3.xlsx,frogs/ab43.jpg,0,0,400,l,0,3,3,2,0,5,5,42,,,['l'],0,[0.2503528536326485],2018_Jul_09_1504,60.0343236532,go-nogo,001,44,
logos/3.jpg,properties3.xlsx,frogs/ab63.jpg,0,0,400,l,0,3,3,2,0,6,6,61,,,['l'],0,[0.1837649212575343],2018_Jul_09_1504,60.0343236532,go-nogo,001,44,
logos/3.jpg,properties3.xlsx,logos/3.jpg,0,0,400,a,0,3,3,2,0,7,7,81,,,['a'],0,[0.2003287042825832],2018_Jul_09_1504,60.0343236532,go-nogo,001,44,
logos/3.jpg,properties3.xlsx,frogs/ab58.jpg,0,0,400,l,0,3,3,2,0,8,8,57,,,['l'],0,[0.3168002703350794],2018_Jul_09_1504,60.0343236532,go-nogo,001,44,
logos/3.jpg,properties3.xlsx,frogs/ab56.jpg,0,0,400,l,0,3,3,2,0,9,9,55,,,['l'],0,[0.36689894419760094],2018_Jul_09_1504,60.0343236532,go-nogo,001,44,
logos/3.jpg,properties3.xlsx,frogs/ab40.jpg,0,0,400,l,0,3,3,2,0,10,10,39,,,['l'],0,[0.28385930000513326],2018_Jul_09_1504,60.0343236532,go-nogo,001,44,
logos/3.jpg,properties3.xlsx,frogs/ab73.jpg,0,0,400,l,0,3,3,2,0,11,11,71,,,['l'],0,[0.26677612098501413],2018_Jul_09_1504,60.0343236532,go-nogo,001,44,
logos/3.jpg,properties3.xlsx,frogs/ab67.jpg,0,0,400,l,0,3,3,2,0,12,12,65,,,['l'],0,[0.26666404977368074],2018_Jul_09_1504,60.0343236532,go-nogo,001,44,
logos/3.jpg,properties3.xlsx,frogs/ab22.jpg,0,0,400,l,0,3,3,2,0,13,13,21,,,['l'],0,[0.2670366723141342],2018_Jul_09_1504,60.0343236532,go-nogo,001,44,
logos/3.jpg,properties3.xlsx,frogs/ab11.jpg,0,0,400,l,0,3,3,2,0,14,14,10,,,['l'],0,[0.2836954598642478],2018_Jul_09_1504,60.0343236532,go-nogo,001,44,
logos/3.jpg,properties3.xlsx,logos/3.jpg,0,0,400,a,0,3,3,2,0,15,15,88,,,['l'],0,[0.36710601993399905],2018_Jul_09_1504,60.0343236532,go-nogo,001,44,
logos/3.jpg,properties3.xlsx,frogs/ab44.jpg,0,0,400,l,0,3,3,2,0,16,16,43,,,['l'],0,[0.2670184678536316],2018_Jul_09_1504,60.0343236532,go-nogo,001,44,
logos/3.jpg,properties3.xlsx,frogs/ab8.jpg,0,0,400,l,0,3,3,2,0,17,17,7,,,['l'],0,[0.18378369460697286],2018_Jul_09_1504,60.0343236532,go-nogo,001,44,
logos/3.jpg,properties3.xlsx,logos/3.jpg,0,0,400,a,0,3,3,2,0,18,18,82,,,['a'],0,[0.9833781902598275],2018_Jul_09_1504,60.0343236532,go-nogo,001,44,
logos/3.jpg,properties3.xlsx,frogs/ab34.jpg,0,0,400,l,0,3,3,2,0,19,19,33,,,['l'],0,[0.2337230794437346],2018_Jul_09_1504,60.0343236532,go-nogo,001,44,
logos/3.jpg,properties3.xlsx,frogs/ab76.jpg,0,0,400,l,0,3,3,2,0,20,20,74,,,['l'],0,[0.3670002065045992],2018_Jul_09_1504,60.0343236532,go-nogo,001,44,
logos/3.jpg,properties3.xlsx,frogs/ab74.jpg,0,0,400,l,0,3,3,2,0,21,21,72,,,['l'],0,[0.26704520565544954],2018_Jul_09_1504,60.0343236532,go-nogo,001,44,
logos/3.jpg,properties3.xlsx,logos/3.jpg,0,0,400,a,0,3,3,2,0,22,22,85,,,['a'],0,[0.43370134787255665],2018_Jul_09_1504,60.0343236532,go-nogo,001,44,
logos/3.jpg,properties3.xlsx,frogs/ab35.jpg,0,0,400,l,0,3,3,2,0,23,23,34,,,['l'],0,[0.4168798579594295],2018_Jul_09_1504,60.0343236532,go-nogo,001,44,
logos/3.jpg,properties3.xlsx,frogs/ab18.jpg,0,0,400,l,0,3,3,2,0,24,24,17,,,['l'],0,[0.4170311825328099],2018_Jul_09_1504,60.0343236532,go-nogo,001,44,
logos/3.jpg,properties3.xlsx,frogs/ab72.jpg,0,0,400,l,0,3,3,2,0,25,25,70,,,['l'],0,[0.3006187809696712],2018_Jul_09_1504,60.0343236532,go-nogo,001,44,
logos/3.jpg,properties3.xlsx,frogs/ab12.jpg,0,0,400,l,0,3,3,2,0,26,26,11,,,['l'],0,[0.2669712500392052],2018_Jul_09_1504,60.0343236532,go-nogo,001,44,
logos/3.jpg,properties3.xlsx,frogs/ab28.jpg,0,0,400,l,0,3,3,2,0,27,27,27,,,['l'],0,[0.3002757406793535],2018_Jul_09_1504,60.0343236532,go-nogo,001,44,
logos/3.jpg,properties3.xlsx,frogs/ab50.jpg,0,0,400,l,0,3,3,2,0,28,28,49,,,['l'],0,[0.3502919255843153],2018_Jul_09_1504,60.0343236532,go-nogo,001,44,
logos/3.jpg,properties3.xlsx,frogs/ab27.jpg,0,0,400,l,0,3,3,2,0,29,29,26,,,['l'],0,[0.2833979307215486],2018_Jul_09_1504,60.0343236532,go-nogo,001,44,
logos/3.jpg,properties3.xlsx,frogs/ab14.jpg,0,0,400,l,0,3,3,2,0,30,30,13,,,['l'],0,[0.2336081637913594],2018_Jul_09_1504,60.0343236532,go-nogo,001,44,
logos/3.jpg,properties3.xlsx,frogs/ab42.jpg,0,0,400,l,0,3,3,2,0,31,31,41,,,['l'],0,[0.30043161636785953],2018_Jul_09_1504,60.0343236532,go-nogo,001,44,
logos/3.jpg,properties3.xlsx,logos/3.jpg,0,0,400,a,0,3,3,2,0,32,32,83,,,['a'],0,[0.21702788297625375],2018_Jul_09_1504,60.0343236532,go-nogo,001,44,
logos/3.jpg,properties3.xlsx,frogs/ab36.jpg,0,0,400,l,0,3,3,2,0,33,33,35,,,['l'],0,[0.30028768735792255],2018_Jul_09_1504,60.0343236532,go-nogo,001,44,
logos/3.jpg,properties3.xlsx,frogs/ab5.jpg,0,0,400,l,0,3,3,2,0,34,34,4,,,['l'],0,[0.2670196056351415],2018_Jul_09_1504,60.0343236532,go-nogo,001,44,
logos/3.jpg,properties3.xlsx,frogs/ab70.jpg,0,0,400,l,0,3,3,2,0,35,35,68,,,['l'],0,[0.30033490517234895],2018_Jul_09_1504,60.0343236532,go-nogo,001,44,
logos/3.jpg,properties3.xlsx,logos/3.jpg,0,0,400,a,0,3,3,2,0,36,36,87,,,['a'],0,[0.29997309153259266],2018_Jul_09_1504,60.0343236532,go-nogo,001,44,
logos/3.jpg,properties3.xlsx,frogs/ab29.jpg,0,0,400,l,0,3,3,2,0,37,37,28,,,['l'],0,[0.25039722700603306],2018_Jul_09_1504,60.0343236532,go-nogo,001,44,
logos/3.jpg,properties3.xlsx,frogs/ab79.jpg,0,0,400,l,0,3,3,2,0,38,38,77,,,['l'],0,[0.3504597479477525],2018_Jul_09_1504,60.0343236532,go-nogo,001,44,
logos/3.jpg,properties3.xlsx,frogs/ab17.jpg,0,0,400,l,0,3,3,2,0,39,39,16,,,['l'],0,[0.2837358510114427],2018_Jul_09_1504,60.0343236532,go-nogo,001,44,
logos/3.jpg,properties3.xlsx,frogs/ab75.jpg,0,0,400,l,0,3,3,2,0,40,40,73,,,['l'],0,[0.31704375498520676],2018_Jul_09_1504,60.0343236532,go-nogo,001,44,
logos/3.jpg,properties3.xlsx,frogs/ab52.jpg,0,0,400,l,0,3,3,2,0,41,41,51,,,['l'],0,[0.26708673458051635],2018_Jul_09_1504,60.0343236532,go-nogo,001,44,
logos/3.jpg,properties3.xlsx,frogs/ab19.jpg,0,0,400,l,0,3,3,2,0,42,42,18,,,['l'],0,[0.2670873034730903],2018_Jul_09_1504,60.0343236532,go-nogo,001,44,
logos/3.jpg,properties3.xlsx,frogs/ab62.jpg,0,0,400,l,0,3,3,2,0,43,43,60,,,['l'],0,[0.2503915381130355],2018_Jul_09_1504,60.0343236532,go-nogo,001,44,
logos/3.jpg,properties3.xlsx,frogs/ab57.jpg,0,0,400,l,0,3,3,2,0,44,44,56,,,['l'],0,[0.26697011226133327],2018_Jul_09_1504,60.0343236532,go-nogo,001,44,
logos/3.jpg,properties3.xlsx,frogs/ab7.jpg,0,0,400,l,0,3,3,2,0,45,45,6,,,['l'],0,[0.2500217600208998],2018_Jul_09_1504,60.0343236532,go-nogo,001,44,
logos/3.jpg,properties3.xlsx,frogs/ab1.jpg,0,0,400,l,0,3,3,2,0,46,46,0,,,['l'],0,[0.26721075246678083],2018_Jul_09_1504,60.0343236532,go-nogo,001,44,
logos/3.jpg,properties3.xlsx,frogs/ab32.jpg,0,0,400,l,0,3,3,2,0,47,47,31,,,['l'],0,[0.2503733336525329],2018_Jul_09_1504,60.0343236532,go-nogo,001,44,
logos/3.jpg,properties3.xlsx,frogs/ab30.jpg,0,0,400,l,0,3,3,2,0,48,48,29,,,['l'],0,[0.20037933543426334],2018_Jul_09_1504,60.0343236532,go-nogo,001,44,
logos/3.jpg,properties3.xlsx,frogs/ab53.jpg,0,0,400,l,0,3,3,2,0,49,49,52,,,['l'],0,[0.23372933722566813],2018_Jul_09_1504,60.0343236532,go-nogo,001,44,
logos/3.jpg,properties3.xlsx,frogs/ab55.jpg,0,0,400,l,0,3,3,2,0,50,50,54,,,['l'],0,[0.23372933722566813],2018_Jul_09_1504,60.0343236532,go-nogo,001,44,
logos/3.jpg,properties3.xlsx,frogs/ab47.jpg,0,0,400,l,0,3,3,2,0,51,51,46,,,['l'],0,[0.2834041885071201],2018_Jul_09_1504,60.0343236532,go-nogo,001,44,
logos/3.jpg,properties3.xlsx,logos/3.jpg,0,0,400,a,0,3,3,2,0,52,52,80,,,['a'],0,[0.25034887141009676],2018_Jul_09_1504,60.0343236532,go-nogo,001,44,
logos/3.jpg,properties3.xlsx,frogs/ab13.jpg,0,0,400,l,0,3,3,2,0,53,53,12,,,['l'],0,[0.2004658066216507],2018_Jul_09_1504,60.0343236532,go-nogo,001,44,
logos/3.jpg,properties3.xlsx,logos/3.jpg,0,0,400,a,0,3,3,2,0,54,54,89,,,['a'],0,[0.20038047321577324],2018_Jul_09_1504,60.0343236532,go-nogo,001,44,
logos/3.jpg,properties3.xlsx,frogs/ab26.jpg,0,0,400,l,0,3,3,2,0,55,55,25,,,['l'],0,[0.2170170740755566],2018_Jul_09_1504,60.0343236532,go-nogo,001,44,
logos/3.jpg,properties3.xlsx,frogs/ab4.jpg,0,0,400,l,0,3,3,2,0,56,56,3,,,['l'],0,[0.21713028306112392],2018_Jul_09_1504,60.0343236532,go-nogo,001,44,
logos/3.jpg,properties3.xlsx,frogs/ab46.jpg,0,0,400,l,0,3,3,2,0,57,57,45,,,['l'],0,[0.18368982785978005],2018_Jul_09_1504,60.0343236532,go-nogo,001,44,
logos/3.jpg,properties3.xlsx,frogs/ab38.jpg,0,0,400,l,0,3,3,2,0,58,58,37,,,['l'],0,[0.18390373026340967],2018_Jul_09_1504,60.0343236532,go-nogo,001,44,
logos/3.jpg,properties3.xlsx,frogs/ab37.jpg,0,0,400,l,0,3,3,2,0,59,59,36,,,['l'],0,[0.2835913531089318],2018_Jul_09_1504,60.0343236532,go-nogo,001,44,
logos/3.jpg,properties3.xlsx,logos/3.jpg,0,0,400,a,0,3,3,2,0,60,60,84,,,['a'],0,[0.949933752832294],2018_Jul_09_1504,60.0343236532,go-nogo,001,44,
logos/3.jpg,properties3.xlsx,frogs/ab78.jpg,0,0,400,l,0,3,3,2,0,61,61,76,,,['l'],0,[0.7334628125536256],2018_Jul_09_1504,60.0343236532,go-nogo,001,44,
logos/3.jpg,properties3.xlsx,frogs/ab24.jpg,0,0,400,l,0,3,3,2,0,62,62,23,,,['l'],0,[0.23371966610648087],2018_Jul_09_1504,60.0343236532,go-nogo,001,44,
logos/3.jpg,properties3.xlsx,frogs/ab23.jpg,0,0,400,l,0,3,3,2,0,63,63,22,,,['l'],0,[0.23373616389653762],2018_Jul_09_1504,60.0343236532,go-nogo,001,44,
logos/3.jpg,properties3.xlsx,frogs/ab2.jpg,0,0,400,l,0,3,3,2,0,64,64,1,,,['l'],0,[0.33390108493040316],2018_Jul_09_1504,60.0343236532,go-nogo,001,44,
logos/3.jpg,properties3.xlsx,frogs/ab54.jpg,0,0,400,l,0,3,3,2,0,65,65,53,,,['l'],0,[0.36695469535698066],2018_Jul_09_1504,60.0343236532,go-nogo,001,44,
logos/3.jpg,properties3.xlsx,frogs/ab25.jpg,0,0,400,l,0,3,3,2,0,66,66,24,,,['l'],0,[0.2504558226100926],2018_Jul_09_1504,60.0343236532,go-nogo,001,44,
logos/3.jpg,properties3.xlsx,frogs/ab41.jpg,0,0,400,l,0,3,3,2,0,67,67,40,,,['l'],0,[0.2331291589398461],2018_Jul_09_1504,60.0343236532,go-nogo,001,44,
logos/3.jpg,properties3.xlsx,frogs/ab77.jpg,0,0,400,l,0,3,3,2,0,68,68,75,,,['l'],0,[0.2502874313540815],2018_Jul_09_1504,60.0343236532,go-nogo,001,44,
logos/3.jpg,properties3.xlsx,frogs/ab51.jpg,0,0,400,l,0,3,3,2,0,69,69,50,,,['l'],0,[0.2670611345565703],2018_Jul_09_1504,60.0343236532,go-nogo,001,44,
logos/3.jpg,properties3.xlsx,frogs/ab68.jpg,0,0,400,l,0,3,3,2,0,70,70,66,,,['l'],0,[0.33361152023644536],2018_Jul_09_1504,60.0343236532,go-nogo,001,44,
logos/3.jpg,properties3.xlsx,frogs/ab15.jpg,0,0,400,l,0,3,3,2,0,71,71,14,,,['l'],0,[0.23373559501123964],2018_Jul_09_1504,60.0343236532,go-nogo,001,44,
logos/3.jpg,properties3.xlsx,frogs/ab64.jpg,0,0,400,l,0,3,3,2,0,72,72,62,,,['l'],0,[0.2503562669699022],2018_Jul_09_1504,60.0343236532,go-nogo,001,44,
logos/3.jpg,properties3.xlsx,frogs/ab60.jpg,0,0,400,l,0,3,3,2,0,73,73,58,,,['l'],0,[0.25021745796402683],2018_Jul_09_1504,60.0343236532,go-nogo,001,44,
logos/3.jpg,properties3.xlsx,frogs/ab61.jpg,0,0,400,l,0,3,3,2,0,74,74,59,,,['l'],0,[0.31698459049584926],2018_Jul_09_1504,60.0343236532,go-nogo,001,44,
logos/3.jpg,properties3.xlsx,logos/3.jpg,0,0,400,a,0,3,3,2,0,75,75,86,,,['a'],0,[0.2670548767782748],2018_Jul_09_1504,60.0343236532,go-nogo,001,44,
logos/3.jpg,properties3.xlsx,frogs/ab9.jpg,0,0,400,l,0,3,3,2,0,76,76,8,,,['l'],0,[0.38375229191296967],2018_Jul_09_1504,60.0343236532,go-nogo,001,44,
logos/3.jpg,properties3.xlsx,frogs/ab33.jpg,0,0,400,l,0,3,3,2,0,77,77,32,,,['l'],0,[0.35019805883348454],2018_Jul_09_1504,60.0343236532,go-nogo,001,44,
logos/3.jpg,properties3.xlsx,frogs/ab66.jpg,0,0,400,l,0,3,3,2,0,78,78,64,,,['l'],0,[0.23376176392048365],2018_Jul_09_1504,60.0343236532,go-nogo,001,44,
logos/3.jpg,properties3.xlsx,frogs/ab48.jpg,0,0,400,l,0,3,3,2,0,79,79,47,,,['l'],0,[0.21706542967513087],2018_Jul_09_1504,60.0343236532,go-nogo,001,44,
logos/3.jpg,properties3.xlsx,frogs/ab16.jpg,0,0,400,l,0,3,3,2,0,80,80,15,,,['l'],0,[0.2003355309534527],2018_Jul_09_1504,60.0343236532,go-nogo,001,44,
logos/3.jpg,properties3.xlsx,frogs/ab71.jpg,0,0,400,l,0,3,3,2,0,81,81,69,,,['l'],0,[0.2502248535238323],2018_Jul_09_1504,60.0343236532,go-nogo,001,44,
logos/3.jpg,properties3.xlsx,frogs/ab20.jpg,0,0,400,l,0,3,3,2,0,82,82,19,,,['l'],0,[0.2172025320105604],2018_Jul_09_1504,60.0343236532,go-nogo,001,44,
logos/3.jpg,properties3.xlsx,frogs/ab80.jpg,0,0,400,l,0,3,3,2,0,83,83,78,,,['l'],0,[0.23362352379990625],2018_Jul_09_1504,60.0343236532,go-nogo,001,44,
logos/3.jpg,properties3.xlsx,frogs/ab6.jpg,0,0,400,l,0,3,3,2,0,84,84,5,,,['l'],0,[0.23371739055073704],2018_Jul_09_1504,60.0343236532,go-nogo,001,44,
logos/3.jpg,properties3.xlsx,frogs/ab49.jpg,0,0,400,l,0,3,3,2,0,85,85,48,,,['l'],0,[0.21698464738074108],2018_Jul_09_1504,60.0343236532,go-nogo,001,44,
logos/3.jpg,properties3.xlsx,frogs/ab3.jpg,0,0,400,l,0,3,3,2,0,86,86,2,,,['l'],0,[0.2835589264141163],2018_Jul_09_1504,60.0343236532,go-nogo,001,44,
logos/3.jpg,properties3.xlsx,frogs/ab81.jpg,0,0,400,l,0,3,3,2,0,87,87,79,,,['l'],0,[0.2170836341319955],2018_Jul_09_1504,60.0343236532,go-nogo,001,44,
logos/3.jpg,properties3.xlsx,frogs/ab65.jpg,0,0,400,l,0,3,3,2,0,88,88,63,,,['l'],0,[0.21668313601549016],2018_Jul_09_1504,60.0343236532,go-nogo,001,44,
logos/3.jpg,properties3.xlsx,frogs/ab10.jpg,0,0,400,l,0,3,3,2,0,89,89,9,,,['l'],0,[0.13386877201264724],2018_Jul_09_1504,60.0343236532,go-nogo,001,44,
logos/3.jpg,properties3.xlsx,,,,,,0,3,3,2,,,,,,,,,,2018_Jul_09_1504,60.0343236532,go-nogo,001,44,
