pix,source,image1,x,y,size,answer,trials_2.thisRepN,trials_2.thisTrialN,trials_2.thisN,trials_2.thisIndex,trials.thisRepN,trials.thisTrialN,trials.thisN,trials.thisIndex,key_resp_3.keys,key_resp_3.rt,key_resp_2.keys,key_resp_2.corr,key_resp_2.rt,date,frameRate,expName,session,participant,
logos/1.jpg,properties1.xlsx,frogs/ab1.jpg,0,0,400,l,0,0,0,0,0,0,0,0,space,1.76359015665,['l'],0,[0.2668113998588524],2018_Jul_09_0737,60.0328171868,go-nogo,001,45,
logos/1.jpg,properties1.xlsx,frogs/ab41.jpg,0,0,400,l,0,0,0,0,0,1,1,40,,,['l'],0,[1.1669115826007328],2018_Jul_09_0737,60.0328171868,go-nogo,001,45,
logos/1.jpg,properties1.xlsx,logos/1.jpg,0,0,400,a,0,0,0,0,0,2,2,89,,,['a'],0,[0.33355184624087997],2018_Jul_09_0737,60.0328171868,go-nogo,001,45,
logos/1.jpg,properties1.xlsx,frogs/ab37.jpg,0,0,400,l,0,0,0,0,0,3,3,36,,,['l'],0,[0.03467527627799427],2018_Jul_09_0737,60.0328171868,go-nogo,001,45,
logos/1.jpg,properties1.xlsx,frogs/ab28.jpg,0,0,400,l,0,0,0,0,0,4,4,27,,,['l'],0,[0.0010027198804891668],2018_Jul_09_0737,60.0328171868,go-nogo,001,45,
logos/1.jpg,properties1.xlsx,frogs/ab31.jpg,0,0,400,l,0,0,0,0,0,5,5,30,,,['l'],0,[0.0010165535859414376],2018_Jul_09_0737,60.0328171868,go-nogo,001,45,
logos/1.jpg,properties1.xlsx,frogs/ab67.jpg,0,0,400,l,0,0,0,0,0,6,6,65,,,['l'],0,[0.467977892862109],2018_Jul_09_0737,60.0328171868,go-nogo,001,45,
logos/1.jpg,properties1.xlsx,frogs/ab13.jpg,0,0,400,l,0,0,0,0,0,7,7,12,,,['l'],0,[0.7843148192405351],2018_Jul_09_0737,60.0328171868,go-nogo,001,45,
logos/1.jpg,properties1.xlsx,frogs/ab23.jpg,0,0,400,l,0,0,0,0,0,8,8,22,,,['l'],0,[0.4990224931461853],2018_Jul_09_0737,60.0328171868,go-nogo,001,45,
logos/1.jpg,properties1.xlsx,frogs/ab26.jpg,0,0,400,l,0,0,0,0,0,9,9,25,,,['l'],0,[0.034398602350847796],2018_Jul_09_0737,60.0328171868,go-nogo,001,45,
logos/1.jpg,properties1.xlsx,frogs/ab60.jpg,0,0,400,l,0,0,0,0,0,10,10,58,,,['l'],0,[0.33430065085121896],2018_Jul_09_0737,60.0328171868,go-nogo,001,45,
logos/1.jpg,properties1.xlsx,frogs/ab65.jpg,0,0,400,l,0,0,0,0,0,11,11,63,,,['l'],0,[0.3510153263923712],2018_Jul_09_0737,60.0328171868,go-nogo,001,45,
logos/1.jpg,properties1.xlsx,frogs/ab36.jpg,0,0,400,l,0,0,0,0,0,12,12,35,,,['l'],0,[0.4010111985990079],2018_Jul_09_0737,60.0328171868,go-nogo,001,45,
logos/1.jpg,properties1.xlsx,logos/1.jpg,0,0,400,a,0,0,0,0,0,13,13,85,,,['a'],0,[0.1848123860618216],2018_Jul_09_0737,60.0328171868,go-nogo,001,45,
logos/1.jpg,properties1.xlsx,frogs/ab50.jpg,0,0,400,l,0,0,0,0,0,14,14,49,,,['l'],0,[0.017782993927539792],2018_Jul_09_0737,60.0328171868,go-nogo,001,45,
logos/1.jpg,properties1.xlsx,frogs/ab53.jpg,0,0,400,l,0,0,0,0,0,15,15,52,,,['l'],0,[0.6177513102957164],2018_Jul_09_0737,60.0328171868,go-nogo,001,45,
logos/1.jpg,properties1.xlsx,logos/1.jpg,0,0,400,a,0,0,0,0,0,16,16,86,,,['a'],0,[0.06782795344042825],2018_Jul_09_0737,60.0328171868,go-nogo,001,45,
logos/1.jpg,properties1.xlsx,frogs/ab21.jpg,0,0,400,l,0,0,0,0,0,17,17,20,,,['l'],0,[0.017899464728543535],2018_Jul_09_0737,60.0328171868,go-nogo,001,45,
logos/1.jpg,properties1.xlsx,frogs/ab17.jpg,0,0,400,l,0,0,0,0,0,18,18,16,,,['l'],0,[1.4109665514624794],2018_Jul_09_0737,60.0328171868,go-nogo,001,45,
logos/1.jpg,properties1.xlsx,frogs/ab49.jpg,0,0,400,l,0,0,0,0,0,19,19,48,,,['l'],0,[0.00034316493110964075],2018_Jul_09_0737,60.0328171868,go-nogo,001,45,
logos/1.jpg,properties1.xlsx,frogs/ab39.jpg,0,0,400,l,0,0,0,0,0,20,20,38,,,['l'],0,[0.06776770992291858],2018_Jul_09_0737,60.0328171868,go-nogo,001,45,
logos/1.jpg,properties1.xlsx,frogs/ab78.jpg,0,0,400,l,0,0,0,0,0,21,21,76,,,['l'],0,[0.061585386261867825],2018_Jul_09_0737,60.0328171868,go-nogo,001,45,
logos/1.jpg,properties1.xlsx,frogs/ab48.jpg,0,0,400,l,0,0,0,0,0,22,22,47,,,['l'],0,[0.054707807779777795],2018_Jul_09_0737,60.0328171868,go-nogo,001,45,
logos/1.jpg,properties1.xlsx,frogs/ab71.jpg,0,0,400,l,0,0,0,0,0,23,23,69,,,['l'],0,[0.02066263406595681],2018_Jul_09_0737,60.0328171868,go-nogo,001,45,
logos/1.jpg,properties1.xlsx,frogs/ab72.jpg,0,0,400,l,0,0,0,0,0,24,24,70,,,['l'],0,[0.04925242257013451],2018_Jul_09_0737,60.0328171868,go-nogo,001,45,
logos/1.jpg,properties1.xlsx,frogs/ab10.jpg,0,0,400,l,0,0,0,0,0,25,25,9,,,['l'],0,[0.41821987098956015],2018_Jul_09_0737,60.0328171868,go-nogo,001,45,
logos/1.jpg,properties1.xlsx,frogs/ab29.jpg,0,0,400,l,0,0,0,0,0,26,26,28,,,['l'],0,[0.11525834428903181],2018_Jul_09_0737,60.0328171868,go-nogo,001,45,
logos/1.jpg,properties1.xlsx,frogs/ab22.jpg,0,0,400,l,0,0,0,0,0,27,27,21,,,['l'],0,[0.10497142895474099],2018_Jul_09_0737,60.0328171868,go-nogo,001,45,
logos/1.jpg,properties1.xlsx,frogs/ab57.jpg,0,0,400,l,0,0,0,0,0,28,28,56,,,['l'],0,[0.15339382972888416],2018_Jul_09_0737,60.0328171868,go-nogo,001,45,
logos/1.jpg,properties1.xlsx,frogs/ab18.jpg,0,0,400,l,0,0,0,0,0,29,29,17,,,['l'],0,[0.545932112247101],2018_Jul_09_0737,60.0328171868,go-nogo,001,45,
logos/1.jpg,properties1.xlsx,frogs/ab66.jpg,0,0,400,l,0,0,0,0,0,30,30,64,,,['l'],0,[0.09747847410471877],2018_Jul_09_0737,60.0328171868,go-nogo,001,45,
logos/1.jpg,properties1.xlsx,frogs/ab2.jpg,0,0,400,l,0,0,0,0,0,31,31,1,,,['l'],0,[1.8267905154352775],2018_Jul_09_0737,60.0328171868,go-nogo,001,45,
logos/1.jpg,properties1.xlsx,logos/1.jpg,0,0,400,a,0,0,0,0,0,32,32,88,,,['l'],0,[1.0147525218635565],2018_Jul_09_0737,60.0328171868,go-nogo,001,45,
logos/1.jpg,properties1.xlsx,frogs/ab55.jpg,0,0,400,l,0,0,0,0,0,33,33,54,,,['l'],0,[0.09148714470211416],2018_Jul_09_0737,60.0328171868,go-nogo,001,45,
logos/1.jpg,properties1.xlsx,frogs/ab68.jpg,0,0,400,l,0,0,0,0,0,34,34,66,,,['l'],0,[0.09319850685278652],2018_Jul_09_0737,60.0328171868,go-nogo,001,45,
logos/1.jpg,properties1.xlsx,frogs/ab25.jpg,0,0,400,l,0,0,0,0,0,35,35,24,,,['l'],0,[0.03155243082437664],2018_Jul_09_0737,60.0328171868,go-nogo,001,45,
logos/1.jpg,properties1.xlsx,logos/1.jpg,0,0,400,a,0,0,0,0,0,36,36,80,,,['a'],0,[0.274263299870654],2018_Jul_09_0737,60.0328171868,go-nogo,001,45,
logos/1.jpg,properties1.xlsx,frogs/ab46.jpg,0,0,400,l,0,0,0,0,0,37,37,45,,,['l'],0,[0.09367911624576664],2018_Jul_09_0737,60.0328171868,go-nogo,001,45,
logos/1.jpg,properties1.xlsx,frogs/ab47.jpg,0,0,400,l,0,0,0,0,0,38,38,46,,,['l'],0,[0.7661779504269361],2018_Jul_09_0737,60.0328171868,go-nogo,001,45,
logos/1.jpg,properties1.xlsx,logos/1.jpg,0,0,400,a,0,0,0,0,0,39,39,84,,,['a'],0,[0.525817024812568],2018_Jul_09_0737,60.0328171868,go-nogo,001,45,
logos/1.jpg,properties1.xlsx,logos/1.jpg,0,0,400,a,0,0,0,0,0,40,40,82,,,['a'],0,[0.7977214562852168],2018_Jul_09_0737,60.0328171868,go-nogo,001,45,
logos/1.jpg,properties1.xlsx,frogs/ab33.jpg,0,0,400,l,0,0,0,0,0,41,41,32,,,['l'],0,[0.3504963396480889],2018_Jul_09_0737,60.0328171868,go-nogo,001,45,
logos/1.jpg,properties1.xlsx,frogs/ab5.jpg,0,0,400,l,0,0,0,0,0,42,42,4,,,['l'],0,[1.1178314118660637],2018_Jul_09_0737,60.0328171868,go-nogo,001,45,
logos/1.jpg,properties1.xlsx,frogs/ab76.jpg,0,0,400,l,0,0,0,0,0,43,43,74,,,['l'],0,[0.5777250708997599],2018_Jul_09_0737,60.0328171868,go-nogo,001,45,
logos/1.jpg,properties1.xlsx,frogs/ab8.jpg,0,0,400,l,0,0,0,0,0,44,44,7,,,['l'],0,[0.8158721587969922],2018_Jul_09_0737,60.0328171868,go-nogo,001,45,
logos/1.jpg,properties1.xlsx,frogs/ab73.jpg,0,0,400,l,0,0,0,0,0,45,45,71,,,['l'],0,[0.24178713511355454],2018_Jul_09_0737,60.0328171868,go-nogo,001,45,
logos/1.jpg,properties1.xlsx,frogs/ab56.jpg,0,0,400,l,0,0,0,0,0,46,46,55,,,['l'],0,[0.16118577092856867],2018_Jul_09_0737,60.0328171868,go-nogo,001,45,
logos/1.jpg,properties1.xlsx,frogs/ab63.jpg,0,0,400,l,0,0,0,0,0,47,47,61,,,['l'],0,[0.12845256715809228],2018_Jul_09_0737,60.0328171868,go-nogo,001,45,
logos/1.jpg,properties1.xlsx,frogs/ab62.jpg,0,0,400,l,0,0,0,0,0,48,48,60,,,['l'],0,[0.48242027216474526],2018_Jul_09_0737,60.0328171868,go-nogo,001,45,
logos/1.jpg,properties1.xlsx,frogs/ab38.jpg,0,0,400,l,0,0,0,0,0,49,49,37,,,['l'],0,[0.03059567451418843],2018_Jul_09_0737,60.0328171868,go-nogo,001,45,
logos/1.jpg,properties1.xlsx,frogs/ab32.jpg,0,0,400,l,0,0,0,0,0,50,50,31,,,['l'],0,[0.030381475342437625],2018_Jul_09_0737,60.0328171868,go-nogo,001,45,
logos/1.jpg,properties1.xlsx,frogs/ab52.jpg,0,0,400,l,0,0,0,0,0,51,51,51,,,['l'],0,[0.5473868816334289],2018_Jul_09_0737,60.0328171868,go-nogo,001,45,
logos/1.jpg,properties1.xlsx,frogs/ab19.jpg,0,0,400,l,0,0,0,0,0,52,52,18,,,['l'],0,[0.21163949386391323],2018_Jul_09_0737,60.0328171868,go-nogo,001,45,
logos/1.jpg,properties1.xlsx,frogs/ab45.jpg,0,0,400,l,0,0,0,0,0,53,53,44,,,['l'],0,[0.18259810210292926],2018_Jul_09_0737,60.0328171868,go-nogo,001,45,
logos/1.jpg,properties1.xlsx,frogs/ab15.jpg,0,0,400,l,0,0,0,0,0,54,54,14,,,['l'],0,[0.09390000914572738],2018_Jul_09_0737,60.0328171868,go-nogo,001,45,
logos/1.jpg,properties1.xlsx,frogs/ab16.jpg,0,0,400,l,0,0,0,0,0,55,55,15,,,['l'],0,[0.09243095981219085],2018_Jul_09_0737,60.0328171868,go-nogo,001,45,
logos/1.jpg,properties1.xlsx,frogs/ab12.jpg,0,0,400,l,0,0,0,0,0,56,56,11,,,['l'],0,[0.032658680305758025],2018_Jul_09_0737,60.0328171868,go-nogo,001,45,
logos/1.jpg,properties1.xlsx,frogs/ab80.jpg,0,0,400,l,0,0,0,0,0,57,57,78,,,['l'],0,[0.0321294298482826],2018_Jul_09_0737,60.0328171868,go-nogo,001,45,
logos/1.jpg,properties1.xlsx,frogs/ab70.jpg,0,0,400,l,0,0,0,0,0,58,58,68,,,['l'],0,[0.8797401050032931],2018_Jul_09_0737,60.0328171868,go-nogo,001,45,
logos/1.jpg,properties1.xlsx,frogs/ab64.jpg,0,0,400,l,0,0,0,0,0,59,59,62,,,['l'],0,[0.06295224474160932],2018_Jul_09_0737,60.0328171868,go-nogo,001,45,
logos/1.jpg,properties1.xlsx,frogs/ab3.jpg,0,0,400,l,0,0,0,0,0,60,60,2,,,['l'],0,[0.5754108273249585],2018_Jul_09_0737,60.0328171868,go-nogo,001,45,
logos/1.jpg,properties1.xlsx,frogs/ab20.jpg,0,0,400,l,0,0,0,0,0,61,61,19,,,['l'],0,[0.5651547031229711],2018_Jul_09_0737,60.0328171868,go-nogo,001,45,
logos/1.jpg,properties1.xlsx,frogs/ab27.jpg,0,0,400,l,0,0,0,0,0,62,62,26,,,['l'],0,[0.09003371406288352],2018_Jul_09_0737,60.0328171868,go-nogo,001,45,
logos/1.jpg,properties1.xlsx,frogs/ab54.jpg,0,0,400,l,0,0,0,0,0,63,63,53,,,['l'],0,[0.06205305446201237],2018_Jul_09_0737,60.0328171868,go-nogo,001,45,
logos/1.jpg,properties1.xlsx,frogs/ab34.jpg,0,0,400,l,0,0,0,0,0,64,64,33,,,['l'],0,[0.0012325377538218163],2018_Jul_09_0737,60.0328171868,go-nogo,001,45,
logos/1.jpg,properties1.xlsx,frogs/ab79.jpg,0,0,400,l,0,0,0,0,0,65,65,77,,,['l'],0,[0.0010991095114150085],2018_Jul_09_0737,60.0328171868,go-nogo,001,45,
logos/1.jpg,properties1.xlsx,logos/1.jpg,0,0,400,a,0,0,0,0,0,66,66,87,,,['a'],0,[0.5165770079474896],2018_Jul_09_0737,60.0328171868,go-nogo,001,45,
logos/1.jpg,properties1.xlsx,frogs/ab40.jpg,0,0,400,l,0,0,0,0,0,67,67,39,,,['l'],0,[0.3034242861758685],2018_Jul_09_0737,60.0328171868,go-nogo,001,45,
logos/1.jpg,properties1.xlsx,logos/1.jpg,0,0,400,a,0,0,0,0,0,68,68,83,,,['a'],0,[0.45627324674569536],2018_Jul_09_0737,60.0328171868,go-nogo,001,45,
logos/1.jpg,properties1.xlsx,frogs/ab77.jpg,0,0,400,l,0,0,0,0,0,69,69,75,,,['l'],0,[0.09234081766044255],2018_Jul_09_0737,60.0328171868,go-nogo,001,45,
logos/1.jpg,properties1.xlsx,frogs/ab9.jpg,0,0,400,l,0,0,0,0,0,70,70,8,,,['l'],0,[0.06269699072436197],2018_Jul_09_0737,60.0328171868,go-nogo,001,45,
logos/1.jpg,properties1.xlsx,frogs/ab51.jpg,0,0,400,l,0,0,0,0,0,71,71,50,,,['l'],0,[0.1514785321051022],2018_Jul_09_0737,60.0328171868,go-nogo,001,45,
logos/1.jpg,properties1.xlsx,frogs/ab44.jpg,0,0,400,l,0,0,0,0,0,72,72,43,,,['l'],0,[0.0632905009406386],2018_Jul_09_0737,60.0328171868,go-nogo,001,45,
logos/1.jpg,properties1.xlsx,frogs/ab35.jpg,0,0,400,l,0,0,0,0,0,73,73,34,,,['l'],0,[0.06206197942083236],2018_Jul_09_0737,60.0328171868,go-nogo,001,45,
logos/1.jpg,properties1.xlsx,frogs/ab58.jpg,0,0,400,l,0,0,0,0,0,74,74,57,,,['l'],0,[0.09419587175216293],2018_Jul_09_0737,60.0328171868,go-nogo,001,45,
logos/1.jpg,properties1.xlsx,frogs/ab11.jpg,0,0,400,l,0,0,0,0,0,75,75,10,,,['l'],0,[0.08471041833399795],2018_Jul_09_0737,60.0328171868,go-nogo,001,45,
logos/1.jpg,properties1.xlsx,frogs/ab14.jpg,0,0,400,l,0,0,0,0,0,76,76,13,,,['l'],0,[0.03463511393783847],2018_Jul_09_0737,60.0328171868,go-nogo,001,45,
logos/1.jpg,properties1.xlsx,frogs/ab69.jpg,0,0,400,l,0,0,0,0,0,77,77,67,,,['l'],0,[0.0009973649066523649],2018_Jul_09_0737,60.0328171868,go-nogo,001,45,
logos/1.jpg,properties1.xlsx,frogs/ab7.jpg,0,0,400,l,0,0,0,0,0,78,78,6,,,['l'],0,[0.518042487296043],2018_Jul_09_0737,60.0328171868,go-nogo,001,45,
logos/1.jpg,properties1.xlsx,frogs/ab42.jpg,0,0,400,l,0,0,0,0,0,79,79,41,,,['l'],0,[0.018362224189331755],2018_Jul_09_0737,60.0328171868,go-nogo,001,45,
logos/1.jpg,properties1.xlsx,frogs/ab6.jpg,0,0,400,l,0,0,0,0,0,80,80,5,,,['l'],0,[0.15136429254926043],2018_Jul_09_0737,60.0328171868,go-nogo,001,45,
logos/1.jpg,properties1.xlsx,frogs/ab24.jpg,0,0,400,l,0,0,0,0,0,81,81,23,,,['l'],0,[0.051360499441216234],2018_Jul_09_0737,60.0328171868,go-nogo,001,45,
logos/1.jpg,properties1.xlsx,frogs/ab61.jpg,0,0,400,l,0,0,0,0,0,82,82,59,,,['l'],0,[0.05133640203712275],2018_Jul_09_0737,60.0328171868,go-nogo,001,45,
logos/1.jpg,properties1.xlsx,frogs/ab30.jpg,0,0,400,l,0,0,0,0,0,83,83,29,,,['l'],0,[0.48366218112641945],2018_Jul_09_0737,60.0328171868,go-nogo,001,45,
logos/1.jpg,properties1.xlsx,frogs/ab75.jpg,0,0,400,l,0,0,0,0,0,84,84,73,,,['l'],0,[0.4847291607657098],2018_Jul_09_0737,60.0328171868,go-nogo,001,45,
logos/1.jpg,properties1.xlsx,frogs/ab74.jpg,0,0,400,l,0,0,0,0,0,85,85,72,,,['l'],0,[0.5346219496132107],2018_Jul_09_0737,60.0328171868,go-nogo,001,45,
logos/1.jpg,properties1.xlsx,logos/1.jpg,0,0,400,a,0,0,0,0,0,86,86,81,,,['a'],0,[0.08461938369146083],2018_Jul_09_0737,60.0328171868,go-nogo,001,45,
logos/1.jpg,properties1.xlsx,frogs/ab81.jpg,0,0,400,l,0,0,0,0,0,87,87,79,,,['l'],0,[0.08472871451522224],2018_Jul_09_0737,60.0328171868,go-nogo,001,45,
logos/1.jpg,properties1.xlsx,frogs/ab4.jpg,0,0,400,l,0,0,0,0,0,88,88,3,,,['l'],0,[0.16816152403043816],2018_Jul_09_0737,60.0328171868,go-nogo,001,45,
logos/1.jpg,properties1.xlsx,frogs/ab43.jpg,0,0,400,l,0,0,0,0,0,89,89,42,,,['l'],0,[0.2512788360036211],2018_Jul_09_0737,60.0328171868,go-nogo,001,45,
logos/1.jpg,properties1.xlsx,,,,,,0,0,0,0,,,,,,,,,,2018_Jul_09_0737,60.0328171868,go-nogo,001,45,
logos/4.jpg,properties4.xlsx,frogs/ab45.jpg,0,0,400,l,0,1,1,3,0,0,0,44,space,2.24797124376,['l'],0,[0.5676960870696348],2018_Jul_09_0737,60.0328171868,go-nogo,001,45,
logos/4.jpg,properties4.xlsx,frogs/ab22.jpg,0,0,400,l,0,1,1,3,0,1,1,21,,,['l'],0,[0.06777752738707932],2018_Jul_09_0737,60.0328171868,go-nogo,001,45,
logos/4.jpg,properties4.xlsx,frogs/ab3.jpg,0,0,400,l,0,1,1,3,0,2,2,2,,,['l'],0,[0.11722629918949679],2018_Jul_09_0737,60.0328171868,go-nogo,001,45,
logos/4.jpg,properties4.xlsx,frogs/ab38.jpg,0,0,400,l,0,1,1,3,0,3,3,37,,,['l'],0,[0.051045894404524006],2018_Jul_09_0737,60.0328171868,go-nogo,001,45,
logos/4.jpg,properties4.xlsx,frogs/ab73.jpg,0,0,400,l,0,1,1,3,0,4,4,71,,,['l'],0,[0.5178880854000454],2018_Jul_09_0737,60.0328171868,go-nogo,001,45,
logos/4.jpg,properties4.xlsx,frogs/ab81.jpg,0,0,400,l,0,1,1,3,0,5,5,79,,,['l'],0,[0.05048585281474516],2018_Jul_09_0737,60.0328171868,go-nogo,001,45,
logos/4.jpg,properties4.xlsx,frogs/ab42.jpg,0,0,400,l,0,1,1,3,0,6,6,41,,,['l'],0,[0.01800656430714298],2018_Jul_09_0737,60.0328171868,go-nogo,001,45,
logos/4.jpg,properties4.xlsx,frogs/ab78.jpg,0,0,400,l,0,1,1,3,0,7,7,76,,,['l'],0,[0.0010022736314567737],2018_Jul_09_0737,60.0328171868,go-nogo,001,45,
logos/4.jpg,properties4.xlsx,frogs/ab6.jpg,0,0,400,l,0,1,1,3,0,8,8,5,,,['l'],0,[0.05133774078421993],2018_Jul_09_0737,60.0328171868,go-nogo,001,45,
logos/4.jpg,properties4.xlsx,frogs/ab18.jpg,0,0,400,l,0,1,1,3,0,9,9,17,,,['l'],0,[0.05107088431395823],2018_Jul_09_0737,60.0328171868,go-nogo,001,45,
logos/4.jpg,properties4.xlsx,frogs/ab15.jpg,0,0,400,l,0,1,1,3,0,10,10,14,,,['l'],0,[0.06790069190901704],2018_Jul_09_0737,60.0328171868,go-nogo,001,45,
logos/4.jpg,properties4.xlsx,logos/4.jpg,0,0,400,a,0,1,1,3,0,11,11,82,,,['a'],0,[0.05033502089645481],2018_Jul_09_0737,60.0328171868,go-nogo,001,45,
logos/4.jpg,properties4.xlsx,frogs/ab66.jpg,0,0,400,l,0,1,1,3,0,12,12,64,,,['l'],0,[0.13445549900643528],2018_Jul_09_0737,60.0328171868,go-nogo,001,45,
logos/4.jpg,properties4.xlsx,frogs/ab57.jpg,0,0,400,l,0,1,1,3,0,13,13,56,,,['l'],0,[0.0679988665287965],2018_Jul_09_0737,60.0328171868,go-nogo,001,45,
logos/4.jpg,properties4.xlsx,frogs/ab55.jpg,0,0,400,l,0,1,1,3,0,14,14,54,,,['l'],0,[0.28451228410267504],2018_Jul_09_0737,60.0328171868,go-nogo,001,45,
logos/4.jpg,properties4.xlsx,frogs/ab61.jpg,0,0,400,l,0,1,1,3,0,15,15,59,,,['l'],0,[0.25131989084911766],2018_Jul_09_0737,60.0328171868,go-nogo,001,45,
logos/4.jpg,properties4.xlsx,frogs/ab56.jpg,0,0,400,l,0,1,1,3,0,16,16,55,,,['l'],0,[0.38682139581942465],2018_Jul_09_0737,60.0328171868,go-nogo,001,45,
logos/4.jpg,properties4.xlsx,logos/4.jpg,0,0,400,a,0,1,1,3,0,17,17,81,,,['a'],0,[0.0845711888759979],2018_Jul_09_0737,60.0328171868,go-nogo,001,45,
logos/4.jpg,properties4.xlsx,frogs/ab44.jpg,0,0,400,l,0,1,1,3,0,18,18,43,,,['l'],0,[0.18467181785672437],2018_Jul_09_0737,60.0328171868,go-nogo,001,45,
logos/4.jpg,properties4.xlsx,frogs/ab32.jpg,0,0,400,l,0,1,1,3,0,19,19,31,,,['l'],0,[0.7348312400572468],2018_Jul_09_0737,60.0328171868,go-nogo,001,45,
logos/4.jpg,properties4.xlsx,frogs/ab16.jpg,0,0,400,l,0,1,1,3,0,20,20,15,,,['l'],0,[0.2845033591365791],2018_Jul_09_0737,60.0328171868,go-nogo,001,45,
logos/4.jpg,properties4.xlsx,frogs/ab49.jpg,0,0,400,l,0,1,1,3,0,21,21,48,,,['l'],0,[0.5511353671899997],2018_Jul_09_0737,60.0328171868,go-nogo,001,45,
logos/4.jpg,properties4.xlsx,logos/4.jpg,0,0,400,a,0,1,1,3,0,22,22,89,,,['a'],0,[0.034645377651031595],2018_Jul_09_0737,60.0328171868,go-nogo,001,45,
logos/4.jpg,properties4.xlsx,frogs/ab37.jpg,0,0,400,l,0,1,1,3,0,23,23,36,,,['l'],0,[0.3845138459728332],2018_Jul_09_0737,60.0328171868,go-nogo,001,45,
logos/4.jpg,properties4.xlsx,frogs/ab63.jpg,0,0,400,l,0,1,1,3,0,24,24,61,,,['l'],0,[0.36735426088853274],2018_Jul_09_0737,60.0328171868,go-nogo,001,45,
logos/4.jpg,properties4.xlsx,frogs/ab69.jpg,0,0,400,l,0,1,1,3,0,25,25,67,,,['l'],0,[0.23385819568648003],2018_Jul_09_0737,60.0328171868,go-nogo,001,45,
logos/4.jpg,properties4.xlsx,frogs/ab19.jpg,0,0,400,l,0,1,1,3,0,26,26,18,,,['l'],0,[0.2178584098801366],2018_Jul_09_0737,60.0328171868,go-nogo,001,45,
logos/4.jpg,properties4.xlsx,frogs/ab27.jpg,0,0,400,l,0,1,1,3,0,27,27,26,,,['l'],0,[0.20037663354742108],2018_Jul_09_0737,60.0328171868,go-nogo,001,45,
logos/4.jpg,properties4.xlsx,frogs/ab50.jpg,0,0,400,l,0,1,1,3,0,28,28,49,,,['l'],0,[0.2352678940005717],2018_Jul_09_0737,60.0328171868,go-nogo,001,45,
logos/4.jpg,properties4.xlsx,frogs/ab76.jpg,0,0,400,l,0,1,1,3,0,29,29,74,,,['l'],0,[0.16742699936003191],2018_Jul_09_0737,60.0328171868,go-nogo,001,45,
logos/4.jpg,properties4.xlsx,frogs/ab46.jpg,0,0,400,l,0,1,1,3,0,30,30,45,,,['l'],0,[0.16781077288032975],2018_Jul_09_0737,60.0328171868,go-nogo,001,45,
logos/4.jpg,properties4.xlsx,frogs/ab48.jpg,0,0,400,l,0,1,1,3,0,31,31,47,,,['l'],0,[0.2013271423857077],2018_Jul_09_0737,60.0328171868,go-nogo,001,45,
logos/4.jpg,properties4.xlsx,frogs/ab30.jpg,0,0,400,l,0,1,1,3,0,32,32,29,,,['l'],0,[0.1839185507633374],2018_Jul_09_0737,60.0328171868,go-nogo,001,45,
logos/4.jpg,properties4.xlsx,frogs/ab72.jpg,0,0,400,l,0,1,1,3,0,33,33,70,,,['l'],0,[0.11790415033465251],2018_Jul_09_0737,60.0328171868,go-nogo,001,45,
logos/4.jpg,properties4.xlsx,frogs/ab39.jpg,0,0,400,l,0,1,1,3,0,34,34,38,,,['l'],0,[0.2510994441981893],2018_Jul_09_0737,60.0328171868,go-nogo,001,45,
logos/4.jpg,properties4.xlsx,frogs/ab64.jpg,0,0,400,l,0,1,1,3,0,35,35,62,,,['l'],0,[0.25115656397974817],2018_Jul_09_0737,60.0328171868,go-nogo,001,45,
logos/4.jpg,properties4.xlsx,frogs/ab79.jpg,0,0,400,l,0,1,1,3,0,36,36,77,,,['l'],0,[0.23383052829740336],2018_Jul_09_0737,60.0328171868,go-nogo,001,45,
logos/4.jpg,properties4.xlsx,frogs/ab8.jpg,0,0,400,l,0,1,1,3,0,37,37,7,,,['l'],0,[0.20072559970139991],2018_Jul_09_0737,60.0328171868,go-nogo,001,45,
logos/4.jpg,properties4.xlsx,logos/4.jpg,0,0,400,a,0,1,1,3,0,38,38,88,,,['l'],0,[0.698884602432372],2018_Jul_09_0737,60.0328171868,go-nogo,001,45,
logos/4.jpg,properties4.xlsx,frogs/ab40.jpg,0,0,400,l,0,1,1,3,0,39,39,39,,,['l'],0,[0.27504958934150636],2018_Jul_09_0737,60.0328171868,go-nogo,001,45,
logos/4.jpg,properties4.xlsx,logos/4.jpg,0,0,400,a,0,1,1,3,0,40,40,80,,,['a'],0,[0.06118688654532889],2018_Jul_09_0737,60.0328171868,go-nogo,001,45,
logos/4.jpg,properties4.xlsx,frogs/ab68.jpg,0,0,400,l,0,1,1,3,0,41,41,66,,,['l'],0,[0.6703340837702854],2018_Jul_09_0737,60.0328171868,go-nogo,001,45,
logos/4.jpg,properties4.xlsx,frogs/ab12.jpg,0,0,400,l,0,1,1,3,0,42,42,11,,,['l'],0,[0.36442196344432887],2018_Jul_09_0737,60.0328171868,go-nogo,001,45,
logos/4.jpg,properties4.xlsx,frogs/ab67.jpg,0,0,400,l,0,1,1,3,0,43,43,65,,,['l'],0,[0.15297346384613775],2018_Jul_09_0737,60.0328171868,go-nogo,001,45,
logos/4.jpg,properties4.xlsx,frogs/ab2.jpg,0,0,400,l,0,1,1,3,0,44,44,1,,,['l'],0,[0.42538527961005457],2018_Jul_09_0737,60.0328171868,go-nogo,001,45,
logos/4.jpg,properties4.xlsx,frogs/ab80.jpg,0,0,400,l,0,1,1,3,0,45,45,78,,,['l'],0,[0.6962307639114442],2018_Jul_09_0737,60.0328171868,go-nogo,001,45,
logos/4.jpg,properties4.xlsx,frogs/ab31.jpg,0,0,400,l,0,1,1,3,0,46,46,30,,,['l'],0,[0.45944830325606745],2018_Jul_09_0737,60.0328171868,go-nogo,001,45,
logos/4.jpg,properties4.xlsx,frogs/ab52.jpg,0,0,400,l,0,1,1,3,0,47,47,51,,,['l'],0,[0.422643083933508],2018_Jul_09_0737,60.0328171868,go-nogo,001,45,
logos/4.jpg,properties4.xlsx,frogs/ab29.jpg,0,0,400,l,0,1,1,3,0,48,48,28,,,['l'],0,[0.3122626795884571],2018_Jul_09_0737,60.0328171868,go-nogo,001,45,
logos/4.jpg,properties4.xlsx,frogs/ab60.jpg,0,0,400,l,0,1,1,3,0,49,49,58,,,['l'],0,[0.30508432976785116],2018_Jul_09_0737,60.0328171868,go-nogo,001,45,
logos/4.jpg,properties4.xlsx,frogs/ab75.jpg,0,0,400,l,0,1,1,3,0,50,50,73,,,['l'],0,[0.42360965770785697],2018_Jul_09_0737,60.0328171868,go-nogo,001,45,
logos/4.jpg,properties4.xlsx,frogs/ab41.jpg,0,0,400,l,0,1,1,3,0,51,51,40,,,['l'],0,[0.9392678404474282],2018_Jul_09_0737,60.0328171868,go-nogo,001,45,
logos/4.jpg,properties4.xlsx,frogs/ab33.jpg,0,0,400,l,0,1,1,3,0,52,52,32,,,['l'],0,[0.7265622594422894],2018_Jul_09_0737,60.0328171868,go-nogo,001,45,
logos/4.jpg,properties4.xlsx,frogs/ab71.jpg,0,0,400,l,0,1,1,3,0,53,53,69,,,['l'],0,[0.30300079655717127],2018_Jul_09_0737,60.0328171868,go-nogo,001,45,
logos/4.jpg,properties4.xlsx,frogs/ab54.jpg,0,0,400,l,0,1,1,3,0,54,54,53,,,['l'],0,[0.36295603784674313],2018_Jul_09_0737,60.0328171868,go-nogo,001,45,
logos/4.jpg,properties4.xlsx,frogs/ab11.jpg,0,0,400,l,0,1,1,3,0,55,55,10,,,['l'],0,[0.4840289972125902],2018_Jul_09_0737,60.0328171868,go-nogo,001,45,
logos/4.jpg,properties4.xlsx,frogs/ab17.jpg,0,0,400,l,0,1,1,3,0,56,56,16,,,['l'],0,[0.39316972384403925],2018_Jul_09_0737,60.0328171868,go-nogo,001,45,
logos/4.jpg,properties4.xlsx,frogs/ab25.jpg,0,0,400,l,0,1,1,3,0,57,57,24,,,['l'],0,[0.36427023902797373],2018_Jul_09_0737,60.0328171868,go-nogo,001,45,
logos/4.jpg,properties4.xlsx,frogs/ab53.jpg,0,0,400,l,0,1,1,3,0,58,58,52,,,['l'],0,[0.36413547205302166],2018_Jul_09_0737,60.0328171868,go-nogo,001,45,
logos/4.jpg,properties4.xlsx,frogs/ab13.jpg,0,0,400,l,0,1,1,3,0,59,59,12,,,['l'],0,[0.3632594866794534],2018_Jul_09_0737,60.0328171868,go-nogo,001,45,
logos/4.jpg,properties4.xlsx,frogs/ab21.jpg,0,0,400,l,0,1,1,3,0,60,60,20,,,['l'],0,[0.39596368431375595],2018_Jul_09_0737,60.0328171868,go-nogo,001,45,
logos/4.jpg,properties4.xlsx,frogs/ab70.jpg,0,0,400,l,0,1,1,3,0,61,61,68,,,['l'],0,[0.3032556043181103],2018_Jul_09_0737,60.0328171868,go-nogo,001,45,
logos/4.jpg,properties4.xlsx,frogs/ab1.jpg,0,0,400,l,0,1,1,3,0,62,62,0,,,['l'],0,[0.36213494101684773],2018_Jul_09_0737,60.0328171868,go-nogo,001,45,
logos/4.jpg,properties4.xlsx,frogs/ab28.jpg,0,0,400,l,0,1,1,3,0,63,63,27,,,['l'],0,[0.30174505389732076],2018_Jul_09_0737,60.0328171868,go-nogo,001,45,
logos/4.jpg,properties4.xlsx,logos/4.jpg,0,0,400,a,0,1,1,3,0,64,64,84,,,['a'],0,[0.3916573884198442],2018_Jul_09_0737,60.0328171868,go-nogo,001,45,
logos/4.jpg,properties4.xlsx,frogs/ab65.jpg,0,0,400,l,0,1,1,3,0,65,65,63,,,['l'],0,[0.23984193885553395],2018_Jul_09_0737,60.0328171868,go-nogo,001,45,
logos/4.jpg,properties4.xlsx,logos/4.jpg,0,0,400,a,0,1,1,3,0,66,66,83,,,['a'],0,[0.09310702595394105],2018_Jul_09_0737,60.0328171868,go-nogo,001,45,
logos/4.jpg,properties4.xlsx,frogs/ab74.jpg,0,0,400,l,0,1,1,3,0,67,67,72,,,['l'],0,[0.18169489558931673],2018_Jul_09_0737,60.0328171868,go-nogo,001,45,
logos/4.jpg,properties4.xlsx,logos/4.jpg,0,0,400,a,0,1,1,3,0,68,68,85,,,['l'],0,[0.9400773348315852],2018_Jul_09_0737,60.0328171868,go-nogo,001,45,
logos/4.jpg,properties4.xlsx,frogs/ab51.jpg,0,0,400,l,0,1,1,3,0,69,69,50,,,['l'],0,[1.0560153152400744],2018_Jul_09_0737,60.0328171868,go-nogo,001,45,
logos/4.jpg,properties4.xlsx,frogs/ab26.jpg,0,0,400,l,0,1,1,3,0,70,70,25,,,['l'],0,[0.39307913544325856],2018_Jul_09_0737,60.0328171868,go-nogo,001,45,
logos/4.jpg,properties4.xlsx,frogs/ab58.jpg,0,0,400,l,0,1,1,3,0,71,71,57,,,['l'],0,[0.9992101405441645],2018_Jul_09_0737,60.0328171868,go-nogo,001,45,
logos/4.jpg,properties4.xlsx,frogs/ab77.jpg,0,0,400,l,0,1,1,3,0,72,72,75,,,['l'],0,[0.8158543088648003],2018_Jul_09_0737,60.0328171868,go-nogo,001,45,
logos/4.jpg,properties4.xlsx,frogs/ab5.jpg,0,0,400,l,0,1,1,3,0,73,73,4,,,['l'],0,[0.001195052893308457],2018_Jul_09_0737,60.0328171868,go-nogo,001,45,
logos/4.jpg,properties4.xlsx,frogs/ab10.jpg,0,0,400,l,0,1,1,3,0,74,74,9,,,['l'],0,[0.18193676215742016],2018_Jul_09_0737,60.0328171868,go-nogo,001,45,
logos/4.jpg,properties4.xlsx,frogs/ab24.jpg,0,0,400,l,0,1,1,3,0,75,75,23,,,['l'],0,[0.33376113668782637],2018_Jul_09_0737,60.0328171868,go-nogo,001,45,
logos/4.jpg,properties4.xlsx,frogs/ab34.jpg,0,0,400,l,0,1,1,3,0,76,76,33,,,['l'],0,[0.6048846336634597],2018_Jul_09_0737,60.0328171868,go-nogo,001,45,
logos/4.jpg,properties4.xlsx,frogs/ab9.jpg,0,0,400,l,0,1,1,3,0,77,77,8,,,['l'],0,[0.42441781333764084],2018_Jul_09_0737,60.0328171868,go-nogo,001,45,
logos/4.jpg,properties4.xlsx,frogs/ab35.jpg,0,0,400,l,0,1,1,3,0,78,78,34,,,['l'],0,[0.3032038395249401],2018_Jul_09_0737,60.0328171868,go-nogo,001,45,
logos/4.jpg,properties4.xlsx,frogs/ab47.jpg,0,0,400,l,0,1,1,3,0,79,79,46,,,['l'],0,[0.702267164386285],2018_Jul_09_0737,60.0328171868,go-nogo,001,45,
logos/4.jpg,properties4.xlsx,frogs/ab36.jpg,0,0,400,l,0,1,1,3,0,80,80,35,,,['l'],0,[0.4233204888223554],2018_Jul_09_0737,60.0328171868,go-nogo,001,45,
logos/4.jpg,properties4.xlsx,frogs/ab23.jpg,0,0,400,l,0,1,1,3,0,81,81,22,,,['l'],0,[0.18234507933084387],2018_Jul_09_0737,60.0328171868,go-nogo,001,45,
logos/4.jpg,properties4.xlsx,frogs/ab20.jpg,0,0,400,l,0,1,1,3,0,82,82,19,,,['l'],0,[0.36815259906143183],2018_Jul_09_0737,60.0328171868,go-nogo,001,45,
logos/4.jpg,properties4.xlsx,frogs/ab7.jpg,0,0,400,l,0,1,1,3,0,83,83,6,,,['l'],0,[0.4179476595381857],2018_Jul_09_0737,60.0328171868,go-nogo,001,45,
logos/4.jpg,properties4.xlsx,frogs/ab43.jpg,0,0,400,l,0,1,1,3,0,84,84,42,,,['l'],0,[0.3346295358351199],2018_Jul_09_0737,60.0328171868,go-nogo,001,45,
logos/4.jpg,properties4.xlsx,logos/4.jpg,0,0,400,a,0,1,1,3,0,85,85,87,,,['a'],0,[1.0180453879074776],2018_Jul_09_0737,60.0328171868,go-nogo,001,45,
logos/4.jpg,properties4.xlsx,frogs/ab14.jpg,0,0,400,l,0,1,1,3,0,86,86,13,,,['l'],0,[0.10121714218257694],2018_Jul_09_0737,60.0328171868,go-nogo,001,45,
logos/4.jpg,properties4.xlsx,frogs/ab4.jpg,0,0,400,l,0,1,1,3,0,87,87,3,,,['l'],0,[0.4012378927291138],2018_Jul_09_0737,60.0328171868,go-nogo,001,45,
logos/4.jpg,properties4.xlsx,logos/4.jpg,0,0,400,a,0,1,1,3,0,88,88,86,,,['a'],0,[0.6343695962132188],2018_Jul_09_0737,60.0328171868,go-nogo,001,45,
logos/4.jpg,properties4.xlsx,frogs/ab62.jpg,0,0,400,l,0,1,1,3,0,89,89,60,,,['l'],0,[0.5010747889828053],2018_Jul_09_0737,60.0328171868,go-nogo,001,45,
logos/4.jpg,properties4.xlsx,,,,,,0,1,1,3,,,,,,,,,,2018_Jul_09_0737,60.0328171868,go-nogo,001,45,
logos/3.jpg,properties3.xlsx,frogs/ab64.jpg,0,0,400,l,0,2,2,2,0,0,0,62,space,6.08867221056,['l'],0,[0.2010834908214747],2018_Jul_09_0737,60.0328171868,go-nogo,001,45,
logos/3.jpg,properties3.xlsx,frogs/ab49.jpg,0,0,400,l,0,2,2,2,0,1,1,48,,,['l'],0,[0.5842001334312954],2018_Jul_09_0737,60.0328171868,go-nogo,001,45,
logos/3.jpg,properties3.xlsx,frogs/ab50.jpg,0,0,400,l,0,2,2,2,0,2,2,49,,,['l'],0,[0.15108672612404916],2018_Jul_09_0737,60.0328171868,go-nogo,001,45,
logos/3.jpg,properties3.xlsx,frogs/ab2.jpg,0,0,400,l,0,2,2,2,0,3,3,1,,,['l'],0,[0.367555518867448],2018_Jul_09_0737,60.0328171868,go-nogo,001,45,
logos/3.jpg,properties3.xlsx,frogs/ab81.jpg,0,0,400,l,0,2,2,2,0,4,4,79,,,['l'],0,[0.38392926072265254],2018_Jul_09_0737,60.0328171868,go-nogo,001,45,
logos/3.jpg,properties3.xlsx,frogs/ab63.jpg,0,0,400,l,0,2,2,2,0,5,5,61,,,['l'],0,[0.41726356092840433],2018_Jul_09_0737,60.0328171868,go-nogo,001,45,
logos/3.jpg,properties3.xlsx,frogs/ab52.jpg,0,0,400,l,0,2,2,2,0,6,6,51,,,['l'],0,[0.1678281765562133],2018_Jul_09_0737,60.0328171868,go-nogo,001,45,
logos/3.jpg,properties3.xlsx,frogs/ab48.jpg,0,0,400,l,0,2,2,2,0,7,7,47,,,['l'],0,[0.5174556708079763],2018_Jul_09_0737,60.0328171868,go-nogo,001,45,
logos/3.jpg,properties3.xlsx,logos/3.jpg,0,0,400,a,0,2,2,2,0,8,8,81,,,['a'],0,[0.13369643068290316],2018_Jul_09_0737,60.0328171868,go-nogo,001,45,
logos/3.jpg,properties3.xlsx,logos/3.jpg,0,0,400,a,0,2,2,2,0,9,9,89,,,['a'],0,[0.784051979004289],2018_Jul_09_0737,60.0328171868,go-nogo,001,45,
logos/3.jpg,properties3.xlsx,frogs/ab68.jpg,0,0,400,l,0,2,2,2,0,10,10,66,,,['l'],0,[0.13436848059063777],2018_Jul_09_0737,60.0328171868,go-nogo,001,45,
logos/3.jpg,properties3.xlsx,frogs/ab72.jpg,0,0,400,l,0,2,2,2,0,11,11,70,,,['l'],0,[0.833942536606628],2018_Jul_09_0737,60.0328171868,go-nogo,001,45,
logos/3.jpg,properties3.xlsx,frogs/ab14.jpg,0,0,400,l,0,2,2,2,0,12,12,13,,,['l'],0,[0.4674843422617414],2018_Jul_09_0737,60.0328171868,go-nogo,001,45,
logos/3.jpg,properties3.xlsx,frogs/ab33.jpg,0,0,400,l,0,2,2,2,0,13,13,32,,,['l'],0,[0.46770523516170215],2018_Jul_09_0737,60.0328171868,go-nogo,001,45,
logos/3.jpg,properties3.xlsx,frogs/ab21.jpg,0,0,400,l,0,2,2,2,0,14,14,20,,,['l'],0,[0.4844288356762263],2018_Jul_09_0737,60.0328171868,go-nogo,001,45,
logos/3.jpg,properties3.xlsx,frogs/ab18.jpg,0,0,400,l,0,2,2,2,0,15,15,17,,,['l'],0,[0.4844997891486855],2018_Jul_09_0737,60.0328171868,go-nogo,001,45,
logos/3.jpg,properties3.xlsx,frogs/ab57.jpg,0,0,400,l,0,2,2,2,0,16,16,56,,,['l'],0,[0.18458212195400847],2018_Jul_09_0737,60.0328171868,go-nogo,001,45,
logos/3.jpg,properties3.xlsx,logos/3.jpg,0,0,400,a,0,2,2,2,0,17,17,83,,,['a'],0,[0.06778600609686691],2018_Jul_09_0737,60.0328171868,go-nogo,001,45,
logos/3.jpg,properties3.xlsx,frogs/ab31.jpg,0,0,400,l,0,2,2,2,0,18,18,30,,,['l'],0,[0.2014235320093576],2018_Jul_09_0737,60.0328171868,go-nogo,001,45,
logos/3.jpg,properties3.xlsx,frogs/ab56.jpg,0,0,400,l,0,2,2,2,0,19,19,55,,,['l'],0,[0.46990390043356456],2018_Jul_09_0737,60.0328171868,go-nogo,001,45,
logos/3.jpg,properties3.xlsx,frogs/ab35.jpg,0,0,400,l,0,2,2,2,0,20,20,34,,,['l'],0,[0.6504653253941797],2018_Jul_09_0737,60.0328171868,go-nogo,001,45,
logos/3.jpg,properties3.xlsx,logos/3.jpg,0,0,400,a,0,2,2,2,0,21,21,85,,,['a'],0,[0.3179434201811091],2018_Jul_09_0737,60.0328171868,go-nogo,001,45,
logos/3.jpg,properties3.xlsx,frogs/ab37.jpg,0,0,400,l,0,2,2,2,0,22,22,36,,,['l'],0,[0.4007050722866552],2018_Jul_09_0737,60.0328171868,go-nogo,001,45,
logos/3.jpg,properties3.xlsx,frogs/ab53.jpg,0,0,400,l,0,2,2,2,0,23,23,52,,,['l'],0,[1.1512629941935302],2018_Jul_09_0737,60.0328171868,go-nogo,001,45,
logos/3.jpg,properties3.xlsx,logos/3.jpg,0,0,400,a,0,2,2,2,0,24,24,88,,,['a'],0,[0.6343865536473459],2018_Jul_09_0737,60.0328171868,go-nogo,001,45,
logos/3.jpg,properties3.xlsx,frogs/ab4.jpg,0,0,400,l,0,2,2,2,0,25,25,3,,,['l'],0,[0.5825557085190667],2018_Jul_09_0737,60.0328171868,go-nogo,001,45,
logos/3.jpg,properties3.xlsx,logos/3.jpg,0,0,400,a,0,2,2,2,0,26,26,82,,,['a'],0,[0.35114206091384403],2018_Jul_09_0737,60.0328171868,go-nogo,001,45,
logos/3.jpg,properties3.xlsx,frogs/ab22.jpg,0,0,400,l,0,2,2,2,0,27,27,21,,,['l'],0,[0.3511724057898391],2018_Jul_09_0737,60.0328171868,go-nogo,001,45,
logos/3.jpg,properties3.xlsx,frogs/ab78.jpg,0,0,400,l,0,2,2,2,0,28,28,76,,,['l'],0,[0.10107925146439811],2018_Jul_09_0737,60.0328171868,go-nogo,001,45,
logos/3.jpg,properties3.xlsx,frogs/ab43.jpg,0,0,400,l,0,2,2,2,0,29,29,42,,,['l'],0,[0.2511329128174111],2018_Jul_09_0737,60.0328171868,go-nogo,001,45,
logos/3.jpg,properties3.xlsx,frogs/ab42.jpg,0,0,400,l,0,2,2,2,0,30,30,41,,,['l'],0,[0.3621759958623443],2018_Jul_09_0737,60.0328171868,go-nogo,001,45,
logos/3.jpg,properties3.xlsx,frogs/ab39.jpg,0,0,400,l,0,2,2,2,0,31,31,38,,,['l'],0,[0.12410432392061921],2018_Jul_09_0737,60.0328171868,go-nogo,001,45,
logos/3.jpg,properties3.xlsx,frogs/ab5.jpg,0,0,400,l,0,2,2,2,0,32,32,4,,,['l'],0,[0.15175118980550906],2018_Jul_09_0737,60.0328171868,go-nogo,001,45,
logos/3.jpg,properties3.xlsx,frogs/ab45.jpg,0,0,400,l,0,2,2,2,0,33,33,44,,,['l'],0,[0.09301108257932356],2018_Jul_09_0737,60.0328171868,go-nogo,001,45,
logos/3.jpg,properties3.xlsx,frogs/ab69.jpg,0,0,400,l,0,2,2,2,0,34,34,67,,,['l'],0,[0.06319812753645238],2018_Jul_09_0737,60.0328171868,go-nogo,001,45,
logos/3.jpg,properties3.xlsx,frogs/ab16.jpg,0,0,400,l,0,2,2,2,0,35,35,15,,,['l'],0,[0.03156581827352056],2018_Jul_09_0737,60.0328171868,go-nogo,001,45,
logos/3.jpg,properties3.xlsx,frogs/ab11.jpg,0,0,400,l,0,2,2,2,0,36,36,10,,,['l'],0,[0.06081426922901301],2018_Jul_09_0737,60.0328171868,go-nogo,001,45,
logos/3.jpg,properties3.xlsx,frogs/ab79.jpg,0,0,400,l,0,2,2,2,0,37,37,77,,,['l'],0,[0.061481410411943216],2018_Jul_09_0737,60.0328171868,go-nogo,001,45,
logos/3.jpg,properties3.xlsx,frogs/ab54.jpg,0,0,400,l,0,2,2,2,0,38,38,53,,,['l'],0,[0.03234452151809819],2018_Jul_09_0737,60.0328171868,go-nogo,001,45,
logos/3.jpg,properties3.xlsx,frogs/ab61.jpg,0,0,400,l,0,2,2,2,0,39,39,59,,,['l'],0,[0.27498220584675437],2018_Jul_09_0737,60.0328171868,go-nogo,001,45,
logos/3.jpg,properties3.xlsx,frogs/ab15.jpg,0,0,400,l,0,2,2,2,0,40,40,14,,,['l'],0,[0.3024487874281476],2018_Jul_09_0737,60.0328171868,go-nogo,001,45,
logos/3.jpg,properties3.xlsx,frogs/ab66.jpg,0,0,400,l,0,2,2,2,0,41,41,64,,,['l'],0,[0.21400594849546906],2018_Jul_09_0737,60.0328171868,go-nogo,001,45,
logos/3.jpg,properties3.xlsx,frogs/ab8.jpg,0,0,400,l,0,2,2,2,0,42,42,7,,,['l'],0,[0.09066872535913717],2018_Jul_09_0737,60.0328171868,go-nogo,001,45,
logos/3.jpg,properties3.xlsx,frogs/ab76.jpg,0,0,400,l,0,2,2,2,0,43,43,74,,,['l'],0,[0.0905772444602917],2018_Jul_09_0737,60.0328171868,go-nogo,001,45,
logos/3.jpg,properties3.xlsx,frogs/ab13.jpg,0,0,400,l,0,2,2,2,0,44,44,12,,,['l'],0,[0.3032506955860299],2018_Jul_09_0737,60.0328171868,go-nogo,001,45,
logos/3.jpg,properties3.xlsx,frogs/ab27.jpg,0,0,400,l,0,2,2,2,0,45,45,26,,,['l'],0,[0.24161979201016948],2018_Jul_09_0737,60.0328171868,go-nogo,001,45,
logos/3.jpg,properties3.xlsx,frogs/ab20.jpg,0,0,400,l,0,2,2,2,0,46,46,19,,,['l'],0,[0.12218947256042156],2018_Jul_09_0737,60.0328171868,go-nogo,001,45,
logos/3.jpg,properties3.xlsx,frogs/ab38.jpg,0,0,400,l,0,2,2,2,0,47,47,37,,,['l'],0,[0.1515249419317115],2018_Jul_09_0737,60.0328171868,go-nogo,001,45,
logos/3.jpg,properties3.xlsx,frogs/ab67.jpg,0,0,400,l,0,2,2,2,0,48,48,65,,,['l'],0,[0.18267351806571241],2018_Jul_09_0737,60.0328171868,go-nogo,001,45,
logos/3.jpg,properties3.xlsx,logos/3.jpg,0,0,400,a,0,2,2,2,0,49,49,86,,,['a'],0,[0.030102123913820833],2018_Jul_09_0737,60.0328171868,go-nogo,001,45,
logos/3.jpg,properties3.xlsx,frogs/ab51.jpg,0,0,400,l,0,2,2,2,0,50,50,50,,,['l'],0,[0.3624910471480689],2018_Jul_09_0737,60.0328171868,go-nogo,001,45,
logos/3.jpg,properties3.xlsx,frogs/ab46.jpg,0,0,400,l,0,2,2,2,0,51,51,45,,,['l'],0,[0.15218271189951338],2018_Jul_09_0737,60.0328171868,go-nogo,001,45,
logos/3.jpg,properties3.xlsx,logos/3.jpg,0,0,400,a,0,2,2,2,0,52,52,80,,,['a'],0,[0.4241696992976358],2018_Jul_09_0737,60.0328171868,go-nogo,001,45,
logos/3.jpg,properties3.xlsx,logos/3.jpg,0,0,400,a,0,2,2,2,0,53,53,84,,,['l'],0,[0.6649791044255835],2018_Jul_09_0737,60.0328171868,go-nogo,001,45,
logos/3.jpg,properties3.xlsx,frogs/ab12.jpg,0,0,400,l,0,2,2,2,0,54,54,11,,,['l'],0,[0.032392270091804676],2018_Jul_09_0737,60.0328171868,go-nogo,001,45,
logos/3.jpg,properties3.xlsx,frogs/ab40.jpg,0,0,400,l,0,2,2,2,0,55,55,39,,,['l'],0,[0.12144691542198416],2018_Jul_09_0737,60.0328171868,go-nogo,001,45,
logos/3.jpg,properties3.xlsx,frogs/ab77.jpg,0,0,400,l,0,2,2,2,0,56,56,75,,,['l'],0,[0.12217563886224525],2018_Jul_09_0737,60.0328171868,go-nogo,001,45,
logos/3.jpg,properties3.xlsx,frogs/ab36.jpg,0,0,400,l,0,2,2,2,0,57,57,35,,,['l'],0,[0.33366920953267254],2018_Jul_09_0737,60.0328171868,go-nogo,001,45,
logos/3.jpg,properties3.xlsx,frogs/ab70.jpg,0,0,400,l,0,2,2,2,0,58,58,68,,,['l'],0,[0.1831242288244539],2018_Jul_09_0737,60.0328171868,go-nogo,001,45,
logos/3.jpg,properties3.xlsx,frogs/ab71.jpg,0,0,400,l,0,2,2,2,0,59,59,69,,,['l'],0,[0.2733650020818459],2018_Jul_09_0737,60.0328171868,go-nogo,001,45,
logos/3.jpg,properties3.xlsx,frogs/ab23.jpg,0,0,400,l,0,2,2,2,0,60,60,22,,,['l'],0,[0.0907213826503721],2018_Jul_09_0737,60.0328171868,go-nogo,001,45,
logos/3.jpg,properties3.xlsx,frogs/ab73.jpg,0,0,400,l,0,2,2,2,0,61,61,71,,,['l'],0,[0.27088743163767504],2018_Jul_09_0737,60.0328171868,go-nogo,001,45,
logos/3.jpg,properties3.xlsx,logos/3.jpg,0,0,400,a,0,2,2,2,0,62,62,87,,,['a'],0,[0.27343640181061346],2018_Jul_09_0737,60.0328171868,go-nogo,001,45,
logos/3.jpg,properties3.xlsx,frogs/ab55.jpg,0,0,400,l,0,2,2,2,0,63,63,54,,,['l'],0,[0.24234003672609106],2018_Jul_09_0737,60.0328171868,go-nogo,001,45,
logos/3.jpg,properties3.xlsx,frogs/ab25.jpg,0,0,400,l,0,2,2,2,0,64,64,24,,,['l'],0,[0.06229045854706783],2018_Jul_09_0737,60.0328171868,go-nogo,001,45,
logos/3.jpg,properties3.xlsx,frogs/ab24.jpg,0,0,400,l,0,2,2,2,0,65,65,23,,,['l'],0,[0.18259274712909246],2018_Jul_09_0737,60.0328171868,go-nogo,001,45,
logos/3.jpg,properties3.xlsx,frogs/ab6.jpg,0,0,400,l,0,2,2,2,0,66,66,5,,,['l'],0,[0.09337611366208876],2018_Jul_09_0737,60.0328171868,go-nogo,001,45,
logos/3.jpg,properties3.xlsx,frogs/ab32.jpg,0,0,400,l,0,2,2,2,0,67,67,31,,,['l'],0,[0.12324127974716248],2018_Jul_09_0737,60.0328171868,go-nogo,001,45,
logos/3.jpg,properties3.xlsx,frogs/ab44.jpg,0,0,400,l,0,2,2,2,0,68,68,43,,,['l'],0,[0.2709856062574545],2018_Jul_09_0737,60.0328171868,go-nogo,001,45,
logos/3.jpg,properties3.xlsx,frogs/ab3.jpg,0,0,400,l,0,2,2,2,0,69,69,2,,,['l'],0,[0.15135269009624608],2018_Jul_09_0737,60.0328171868,go-nogo,001,45,
logos/3.jpg,properties3.xlsx,frogs/ab1.jpg,0,0,400,l,0,2,2,2,0,70,70,0,,,['l'],0,[0.18263781820132863],2018_Jul_09_0737,60.0328171868,go-nogo,001,45,
logos/3.jpg,properties3.xlsx,frogs/ab41.jpg,0,0,400,l,0,2,2,2,0,71,71,40,,,['l'],0,[0.18135351565433666],2018_Jul_09_0737,60.0328171868,go-nogo,001,45,
logos/3.jpg,properties3.xlsx,frogs/ab60.jpg,0,0,400,l,0,2,2,2,0,72,72,58,,,['l'],0,[0.12167539453366771],2018_Jul_09_0737,60.0328171868,go-nogo,001,45,
logos/3.jpg,properties3.xlsx,frogs/ab58.jpg,0,0,400,l,0,2,2,2,0,73,73,57,,,['l'],0,[0.4136784022557549],2018_Jul_09_0737,60.0328171868,go-nogo,001,45,
logos/3.jpg,properties3.xlsx,frogs/ab28.jpg,0,0,400,l,0,2,2,2,0,74,74,27,,,['l'],0,[0.8349550739512779],2018_Jul_09_0737,60.0328171868,go-nogo,001,45,
logos/3.jpg,properties3.xlsx,frogs/ab65.jpg,0,0,400,l,0,2,2,2,0,75,75,63,,,['l'],0,[0.3679236736934399],2018_Jul_09_0737,60.0328171868,go-nogo,001,45,
logos/3.jpg,properties3.xlsx,frogs/ab7.jpg,0,0,400,l,0,2,2,2,0,76,76,6,,,['l'],0,[0.2681354185042437],2018_Jul_09_0737,60.0328171868,go-nogo,001,45,
logos/3.jpg,properties3.xlsx,frogs/ab29.jpg,0,0,400,l,0,2,2,2,0,77,77,28,,,['l'],0,[0.3680678118907963],2018_Jul_09_0737,60.0328171868,go-nogo,001,45,
logos/3.jpg,properties3.xlsx,frogs/ab75.jpg,0,0,400,l,0,2,2,2,0,78,78,73,,,['l'],0,[0.2179057122048107],2018_Jul_09_0737,60.0328171868,go-nogo,001,45,
logos/3.jpg,properties3.xlsx,frogs/ab62.jpg,0,0,400,l,0,2,2,2,0,79,79,60,,,['l'],0,[0.31787603669363307],2018_Jul_09_0737,60.0328171868,go-nogo,001,45,
logos/3.jpg,properties3.xlsx,frogs/ab34.jpg,0,0,400,l,0,2,2,2,0,80,80,33,,,['l'],0,[0.38434918035636656],2018_Jul_09_0737,60.0328171868,go-nogo,001,45,
logos/3.jpg,properties3.xlsx,frogs/ab74.jpg,0,0,400,l,0,2,2,2,0,81,81,72,,,['l'],0,[0.3837936012423597],2018_Jul_09_0737,60.0328171868,go-nogo,001,45,
logos/3.jpg,properties3.xlsx,frogs/ab9.jpg,0,0,400,l,0,2,2,2,0,82,82,8,,,['l'],0,[0.28451049910654547],2018_Jul_09_0737,60.0328171868,go-nogo,001,45,
logos/3.jpg,properties3.xlsx,frogs/ab17.jpg,0,0,400,l,0,2,2,2,0,83,83,16,,,['l'],0,[0.3178671117275371],2018_Jul_09_0737,60.0328171868,go-nogo,001,45,
logos/3.jpg,properties3.xlsx,frogs/ab80.jpg,0,0,400,l,0,2,2,2,0,84,84,78,,,['l'],0,[0.3181219194884761],2018_Jul_09_0737,60.0328171868,go-nogo,001,45,
logos/3.jpg,properties3.xlsx,frogs/ab30.jpg,0,0,400,l,0,2,2,2,0,85,85,29,,,['l'],0,[0.33472101673396537],2018_Jul_09_0737,60.0328171868,go-nogo,001,45,
logos/3.jpg,properties3.xlsx,frogs/ab47.jpg,0,0,400,l,0,2,2,2,0,86,86,46,,,['l'],0,[0.4667904261877993],2018_Jul_09_0737,60.0328171868,go-nogo,001,45,
logos/3.jpg,properties3.xlsx,frogs/ab26.jpg,0,0,400,l,0,2,2,2,0,87,87,25,,,['l'],0,[0.2848840089136502],2018_Jul_09_0737,60.0328171868,go-nogo,001,45,
logos/3.jpg,properties3.xlsx,frogs/ab19.jpg,0,0,400,l,0,2,2,2,0,88,88,18,,,['l'],0,[0.3340271006527473],2018_Jul_09_0737,60.0328171868,go-nogo,001,45,
logos/3.jpg,properties3.xlsx,frogs/ab10.jpg,0,0,400,l,0,2,2,2,0,89,89,9,,,['l'],0,[0.3503040066352696],2018_Jul_09_0737,60.0328171868,go-nogo,001,45,
logos/3.jpg,properties3.xlsx,,,,,,0,2,2,2,,,,,,,,,,2018_Jul_09_0737,60.0328171868,go-nogo,001,45,
logos/2.jpg,properties2.xlsx,frogs/ab72.jpg,0,0,400,l,0,3,3,1,0,0,0,70,space,1.59000939353,['l'],0,[0.11756366289773723],2018_Jul_09_0737,60.0328171868,go-nogo,001,45,
logos/2.jpg,properties2.xlsx,frogs/ab15.jpg,0,0,400,l,0,3,3,1,0,1,1,14,,,['l'],0,[0.3680138158451882],2018_Jul_09_0737,60.0328171868,go-nogo,001,45,
logos/2.jpg,properties2.xlsx,frogs/ab43.jpg,0,0,400,l,0,3,3,1,0,2,2,42,,,['l'],0,[0.3012425783308572],2018_Jul_09_0737,60.0328171868,go-nogo,001,45,
logos/2.jpg,properties2.xlsx,frogs/ab66.jpg,0,0,400,l,0,3,3,1,0,3,3,64,,,['l'],0,[0.3178229331460898],2018_Jul_09_0737,60.0328171868,go-nogo,001,45,
logos/2.jpg,properties2.xlsx,frogs/ab81.jpg,0,0,400,l,0,3,3,1,0,4,4,79,,,['l'],0,[0.2844252656796016],2018_Jul_09_0737,60.0328171868,go-nogo,001,45,
logos/2.jpg,properties2.xlsx,frogs/ab74.jpg,0,0,400,l,0,3,3,1,0,5,5,72,,,['l'],0,[0.20112409941793885],2018_Jul_09_0737,60.0328171868,go-nogo,001,45,
logos/2.jpg,properties2.xlsx,frogs/ab73.jpg,0,0,400,l,0,3,3,1,0,6,6,71,,,['l'],0,[0.31769128989981255],2018_Jul_09_0737,60.0328171868,go-nogo,001,45,
logos/2.jpg,properties2.xlsx,frogs/ab52.jpg,0,0,400,l,0,3,3,1,0,7,7,51,,,['l'],0,[0.2511521014967002],2018_Jul_09_0737,60.0328171868,go-nogo,001,45,
logos/2.jpg,properties2.xlsx,frogs/ab76.jpg,0,0,400,l,0,3,3,1,0,8,8,74,,,['l'],0,[0.3714459113616613],2018_Jul_09_0737,60.0328171868,go-nogo,001,45,
logos/2.jpg,properties2.xlsx,frogs/ab42.jpg,0,0,400,l,0,3,3,1,0,9,9,41,,,['l'],0,[0.2745640712091699],2018_Jul_09_0737,60.0328171868,go-nogo,001,45,
logos/2.jpg,properties2.xlsx,frogs/ab16.jpg,0,0,400,l,0,3,3,1,0,10,10,15,,,['l'],0,[0.2722944524648483],2018_Jul_09_0737,60.0328171868,go-nogo,001,45,
logos/2.jpg,properties2.xlsx,frogs/ab49.jpg,0,0,400,l,0,3,3,1,0,11,11,48,,,['l'],0,[0.15345050325413467],2018_Jul_09_0737,60.0328171868,go-nogo,001,45,
logos/2.jpg,properties2.xlsx,frogs/ab24.jpg,0,0,400,l,0,3,3,1,0,12,12,23,,,['l'],0,[0.36634306229098],2018_Jul_09_0737,60.0328171868,go-nogo,001,45,
logos/2.jpg,properties2.xlsx,frogs/ab22.jpg,0,0,400,l,0,3,3,1,0,13,13,21,,,['l'],0,[0.23988210121024167],2018_Jul_09_0737,60.0328171868,go-nogo,001,45,
logos/2.jpg,properties2.xlsx,frogs/ab4.jpg,0,0,400,l,0,3,3,1,0,14,14,3,,,['l'],0,[0.21464854601072147],2018_Jul_09_0737,60.0328171868,go-nogo,001,45,
logos/2.jpg,properties2.xlsx,logos/2.jpg,0,0,400,a,0,3,3,1,0,15,15,82,,,['a'],0,[0.39193004612025106],2018_Jul_09_0737,60.0328171868,go-nogo,001,45,
logos/2.jpg,properties2.xlsx,frogs/ab29.jpg,0,0,400,l,0,3,3,1,0,16,16,28,,,['l'],0,[0.1837248790106969],2018_Jul_09_0737,60.0328171868,go-nogo,001,45,
logos/2.jpg,properties2.xlsx,frogs/ab65.jpg,0,0,400,l,0,3,3,1,0,17,17,63,,,['l'],0,[0.3018775896343868],2018_Jul_09_0737,60.0328171868,go-nogo,001,45,
logos/2.jpg,properties2.xlsx,frogs/ab39.jpg,0,0,400,l,0,3,3,1,0,18,18,38,,,['l'],0,[0.24043009409069782],2018_Jul_09_0737,60.0328171868,go-nogo,001,45,
logos/2.jpg,properties2.xlsx,frogs/ab58.jpg,0,0,400,l,0,3,3,1,0,19,19,57,,,['l'],0,[0.21473645692458376],2018_Jul_09_0737,60.0328171868,go-nogo,001,45,
logos/2.jpg,properties2.xlsx,frogs/ab70.jpg,0,0,400,l,0,3,3,1,0,20,20,68,,,['l'],0,[0.3615508020229754],2018_Jul_09_0737,60.0328171868,go-nogo,001,45,
logos/2.jpg,properties2.xlsx,frogs/ab25.jpg,0,0,400,l,0,3,3,1,0,21,21,24,,,['l'],0,[0.2758693474243046],2018_Jul_09_0737,60.0328171868,go-nogo,001,45,
logos/2.jpg,properties2.xlsx,frogs/ab31.jpg,0,0,400,l,0,3,3,1,0,22,22,30,,,['l'],0,[0.39089296511519933],2018_Jul_09_0737,60.0328171868,go-nogo,001,45,
logos/2.jpg,properties2.xlsx,frogs/ab10.jpg,0,0,400,l,0,3,3,1,0,23,23,9,,,['l'],0,[0.33312746413139394],2018_Jul_09_0737,60.0328171868,go-nogo,001,45,
logos/2.jpg,properties2.xlsx,logos/2.jpg,0,0,400,a,0,3,3,1,0,24,24,83,,,['a'],0,[0.45516744351334637],2018_Jul_09_0737,60.0328171868,go-nogo,001,45,
logos/2.jpg,properties2.xlsx,frogs/ab32.jpg,0,0,400,l,0,3,3,1,0,25,25,31,,,['l'],0,[0.3014942623631214],2018_Jul_09_0737,60.0328171868,go-nogo,001,45,
logos/2.jpg,properties2.xlsx,frogs/ab12.jpg,0,0,400,l,0,3,3,1,0,26,26,11,,,['l'],0,[0.39800973267119844],2018_Jul_09_0737,60.0328171868,go-nogo,001,45,
logos/2.jpg,properties2.xlsx,logos/2.jpg,0,0,400,a,0,3,3,1,0,27,27,87,,,['a'],0,[0.3341855187973124],2018_Jul_09_0737,60.0328171868,go-nogo,001,45,
logos/2.jpg,properties2.xlsx,frogs/ab9.jpg,0,0,400,l,0,3,3,1,0,28,28,8,,,['a'],0,[0.8169302134629106],2018_Jul_09_0737,60.0328171868,go-nogo,001,45,
logos/2.jpg,properties2.xlsx,frogs/ab56.jpg,0,0,400,l,0,3,3,1,0,29,29,55,,,['a'],0,[0.33485489121085266],2018_Jul_09_0737,60.0328171868,go-nogo,001,45,
logos/2.jpg,properties2.xlsx,frogs/ab41.jpg,0,0,400,l,0,3,3,1,0,30,30,40,,,['l'],0,[0.24262920561159262],2018_Jul_09_0737,60.0328171868,go-nogo,001,45,
logos/2.jpg,properties2.xlsx,frogs/ab27.jpg,0,0,400,l,0,3,3,1,0,31,31,26,,,['l'],0,[0.39575216262892354],2018_Jul_09_0737,60.0328171868,go-nogo,001,45,
logos/2.jpg,properties2.xlsx,frogs/ab21.jpg,0,0,400,l,0,3,3,1,0,32,32,20,,,['l'],0,[0.1524620633208542],2018_Jul_09_0737,60.0328171868,go-nogo,001,45,
logos/2.jpg,properties2.xlsx,frogs/ab69.jpg,0,0,400,l,0,3,3,1,0,33,33,67,,,['l'],0,[0.6360390110276057],2018_Jul_09_0737,60.0328171868,go-nogo,001,45,
logos/2.jpg,properties2.xlsx,frogs/ab20.jpg,0,0,400,l,0,3,3,1,0,34,34,19,,,['l'],0,[0.42494884879124584],2018_Jul_09_0737,60.0328171868,go-nogo,001,45,
logos/2.jpg,properties2.xlsx,frogs/ab17.jpg,0,0,400,l,0,3,3,1,0,35,35,16,,,['l'],0,[0.3942184072948294],2018_Jul_09_0737,60.0328171868,go-nogo,001,45,
logos/2.jpg,properties2.xlsx,frogs/ab14.jpg,0,0,400,l,0,3,3,1,0,36,36,13,,,['l'],0,[0.2147257469696342],2018_Jul_09_0737,60.0328171868,go-nogo,001,45,
logos/2.jpg,properties2.xlsx,frogs/ab28.jpg,0,0,400,l,0,3,3,1,0,37,37,27,,,['l'],0,[0.3644808682220173],2018_Jul_09_0737,60.0328171868,go-nogo,001,45,
logos/2.jpg,properties2.xlsx,logos/2.jpg,0,0,400,a,0,3,3,1,0,38,38,88,,,['a'],0,[0.3030088290179265],2018_Jul_09_0737,60.0328171868,go-nogo,001,45,
logos/2.jpg,properties2.xlsx,frogs/ab11.jpg,0,0,400,l,0,3,3,1,0,39,39,10,,,['l'],0,[0.36535640734655317],2018_Jul_09_0737,60.0328171868,go-nogo,001,45,
logos/2.jpg,properties2.xlsx,frogs/ab57.jpg,0,0,400,l,0,3,3,1,0,40,40,56,,,['l'],0,[0.48472603702248307],2018_Jul_09_0737,60.0328171868,go-nogo,001,45,
logos/2.jpg,properties2.xlsx,frogs/ab7.jpg,0,0,400,l,0,3,3,1,0,41,41,6,,,['l'],0,[0.18091083736362634],2018_Jul_09_0737,60.0328171868,go-nogo,001,45,
logos/2.jpg,properties2.xlsx,frogs/ab54.jpg,0,0,400,l,0,3,3,1,0,42,42,53,,,['l'],0,[0.39097953728196444],2018_Jul_09_0737,60.0328171868,go-nogo,001,45,
logos/2.jpg,properties2.xlsx,frogs/ab2.jpg,0,0,400,l,0,3,3,1,0,43,43,1,,,['l'],0,[0.48894933074188884],2018_Jul_09_0737,60.0328171868,go-nogo,001,45,
logos/2.jpg,properties2.xlsx,frogs/ab13.jpg,0,0,400,l,0,3,3,1,0,44,44,12,,,['l'],0,[0.4259341649885755],2018_Jul_09_0737,60.0328171868,go-nogo,001,45,
logos/2.jpg,properties2.xlsx,frogs/ab8.jpg,0,0,400,l,0,3,3,1,0,45,45,7,,,['l'],0,[0.36159498060442274],2018_Jul_09_0737,60.0328171868,go-nogo,001,45,
logos/2.jpg,properties2.xlsx,frogs/ab33.jpg,0,0,400,l,0,3,3,1,0,46,46,32,,,['l'],0,[0.3314406456265715],2018_Jul_09_0737,60.0328171868,go-nogo,001,45,
logos/2.jpg,properties2.xlsx,frogs/ab1.jpg,0,0,400,l,0,3,3,1,0,47,47,0,,,['l'],0,[0.3340418268489884],2018_Jul_09_0737,60.0328171868,go-nogo,001,45,
logos/2.jpg,properties2.xlsx,frogs/ab5.jpg,0,0,400,l,0,3,3,1,0,48,48,4,,,['l'],0,[0.26806223378662253],2018_Jul_09_0737,60.0328171868,go-nogo,001,45,
logos/2.jpg,properties2.xlsx,frogs/ab45.jpg,0,0,400,l,0,3,3,1,0,49,49,44,,,['l'],0,[0.31799116874753963],2018_Jul_09_0737,60.0328171868,go-nogo,001,45,
logos/2.jpg,properties2.xlsx,logos/2.jpg,0,0,400,a,0,3,3,1,0,50,50,89,,,['l'],0,[0.36822355253389105],2018_Jul_09_0737,60.0328171868,go-nogo,001,45,
logos/2.jpg,properties2.xlsx,frogs/ab62.jpg,0,0,400,l,0,3,3,1,0,51,51,60,,,['l'],0,[0.15136830879055196],2018_Jul_09_0737,60.0328171868,go-nogo,001,45,
logos/2.jpg,properties2.xlsx,frogs/ab37.jpg,0,0,400,l,0,3,3,1,0,52,52,36,,,['l'],0,[0.35152851192106027],2018_Jul_09_0737,60.0328171868,go-nogo,001,45,
logos/2.jpg,properties2.xlsx,logos/2.jpg,0,0,400,a,0,3,3,1,0,53,53,85,,,['a'],0,[0.45119538757717237],2018_Jul_09_0737,60.0328171868,go-nogo,001,45,
logos/2.jpg,properties2.xlsx,frogs/ab46.jpg,0,0,400,l,0,3,3,1,0,54,54,45,,,['l'],0,[0.08454262898158049],2018_Jul_09_0737,60.0328171868,go-nogo,001,45,
logos/2.jpg,properties2.xlsx,frogs/ab34.jpg,0,0,400,l,0,3,3,1,0,55,55,33,,,['l'],0,[0.20057164404715877],2018_Jul_09_0737,60.0328171868,go-nogo,001,45,
logos/2.jpg,properties2.xlsx,frogs/ab68.jpg,0,0,400,l,0,3,3,1,0,56,56,66,,,['l'],0,[0.21784457618923625],2018_Jul_09_0737,60.0328171868,go-nogo,001,45,
logos/2.jpg,properties2.xlsx,frogs/ab71.jpg,0,0,400,l,0,3,3,1,0,57,57,69,,,['l'],0,[0.26809257866989356],2018_Jul_09_0737,60.0328171868,go-nogo,001,45,
logos/2.jpg,properties2.xlsx,frogs/ab18.jpg,0,0,400,l,0,3,3,1,0,58,58,17,,,['l'],0,[0.1521617382313707],2018_Jul_09_0737,60.0328171868,go-nogo,001,45,
logos/2.jpg,properties2.xlsx,frogs/ab35.jpg,0,0,400,l,0,3,3,1,0,59,59,34,,,['l'],0,[0.2345266756019555],2018_Jul_09_0737,60.0328171868,go-nogo,001,45,
logos/2.jpg,properties2.xlsx,logos/2.jpg,0,0,400,a,0,3,3,1,0,60,60,86,,,['a'],0,[0.3844161175948102],2018_Jul_09_0737,60.0328171868,go-nogo,001,45,
logos/2.jpg,properties2.xlsx,frogs/ab3.jpg,0,0,400,l,0,3,3,1,0,61,61,2,,,['l'],0,[0.06790827812801581],2018_Jul_09_0737,60.0328171868,go-nogo,001,45,
logos/2.jpg,properties2.xlsx,frogs/ab23.jpg,0,0,400,l,0,3,3,1,0,62,62,22,,,['l'],0,[0.1512933390768012],2018_Jul_09_0737,60.0328171868,go-nogo,001,45,
logos/2.jpg,properties2.xlsx,logos/2.jpg,0,0,400,a,0,3,3,1,0,63,63,81,,,['a'],0,[0.3678964525461197],2018_Jul_09_0737,60.0328171868,go-nogo,001,45,
logos/2.jpg,properties2.xlsx,frogs/ab38.jpg,0,0,400,l,0,3,3,1,0,64,64,37,,,['l'],0,[0.2678908744419459],2018_Jul_09_0737,60.0328171868,go-nogo,001,45,
logos/2.jpg,properties2.xlsx,frogs/ab60.jpg,0,0,400,l,0,3,3,1,0,65,65,58,,,['l'],0,[0.30124971830809955],2018_Jul_09_0737,60.0328171868,go-nogo,001,45,
logos/2.jpg,properties2.xlsx,frogs/ab19.jpg,0,0,400,l,0,3,3,1,0,66,66,18,,,['l'],0,[0.3512763816397637],2018_Jul_09_0737,60.0328171868,go-nogo,001,45,
logos/2.jpg,properties2.xlsx,frogs/ab40.jpg,0,0,400,l,0,3,3,1,0,67,67,39,,,['l'],0,[0.21775621903361753],2018_Jul_09_0737,60.0328171868,go-nogo,001,45,
logos/2.jpg,properties2.xlsx,frogs/ab61.jpg,0,0,400,l,0,3,3,1,0,68,68,59,,,['l'],0,[0.5179121827968629],2018_Jul_09_0737,60.0328171868,go-nogo,001,45,
logos/2.jpg,properties2.xlsx,frogs/ab30.jpg,0,0,400,l,0,3,3,1,0,69,69,29,,,['l'],0,[0.1845691807611729],2018_Jul_09_0737,60.0328171868,go-nogo,001,45,
logos/2.jpg,properties2.xlsx,frogs/ab67.jpg,0,0,400,l,0,3,3,1,0,70,70,65,,,['l'],0,[0.33455144238541834],2018_Jul_09_0737,60.0328171868,go-nogo,001,45,
logos/2.jpg,properties2.xlsx,logos/2.jpg,0,0,400,a,0,3,3,1,0,71,71,84,,,['a'],0,[0.3670766944560455],2018_Jul_09_0737,60.0328171868,go-nogo,001,45,
logos/2.jpg,properties2.xlsx,frogs/ab36.jpg,0,0,400,l,0,3,3,1,0,72,72,35,,,['l'],0,[0.2676409754130873],2018_Jul_09_0737,60.0328171868,go-nogo,001,45,
logos/2.jpg,properties2.xlsx,frogs/ab47.jpg,0,0,400,l,0,3,3,1,0,73,73,46,,,['l'],0,[0.36777194928436074],2018_Jul_09_0737,60.0328171868,go-nogo,001,45,
logos/2.jpg,properties2.xlsx,frogs/ab75.jpg,0,0,400,l,0,3,3,1,0,74,74,73,,,['l'],0,[0.40050515305483714],2018_Jul_09_0737,60.0328171868,go-nogo,001,45,
logos/2.jpg,properties2.xlsx,logos/2.jpg,0,0,400,a,0,3,3,1,0,75,75,80,,,['a'],0,[0.3677183994805091],2018_Jul_09_0737,60.0328171868,go-nogo,001,45,
logos/2.jpg,properties2.xlsx,frogs/ab80.jpg,0,0,400,l,0,3,3,1,0,76,76,78,,,['l'],0,[0.2849005200987449],2018_Jul_09_0737,60.0328171868,go-nogo,001,45,
logos/2.jpg,properties2.xlsx,frogs/ab50.jpg,0,0,400,l,0,3,3,1,0,77,77,49,,,['l'],0,[0.48444311561615905],2018_Jul_09_0737,60.0328171868,go-nogo,001,45,
logos/2.jpg,properties2.xlsx,frogs/ab64.jpg,0,0,400,l,0,3,3,1,0,78,78,62,,,['l'],0,[0.13425781101977918],2018_Jul_09_0737,60.0328171868,go-nogo,001,45,
logos/2.jpg,properties2.xlsx,frogs/ab48.jpg,0,0,400,l,0,3,3,1,0,79,79,47,,,['l'],0,[0.4343834299070295],2018_Jul_09_0737,60.0328171868,go-nogo,001,45,
logos/2.jpg,properties2.xlsx,frogs/ab79.jpg,0,0,400,l,0,3,3,1,0,80,80,77,,,['l'],0,[0.3336745645137853],2018_Jul_09_0737,60.0328171868,go-nogo,001,45,
logos/2.jpg,properties2.xlsx,frogs/ab63.jpg,0,0,400,l,0,3,3,1,0,81,81,61,,,['l'],0,[0.2735140490112826],2018_Jul_09_0737,60.0328171868,go-nogo,001,45,
logos/2.jpg,properties2.xlsx,frogs/ab51.jpg,0,0,400,l,0,3,3,1,0,82,82,50,,,['l'],0,[0.3953545554104494],2018_Jul_09_0737,60.0328171868,go-nogo,001,45,
logos/2.jpg,properties2.xlsx,frogs/ab44.jpg,0,0,400,l,0,3,3,1,0,83,83,43,,,['l'],0,[0.21350302667997312],2018_Jul_09_0737,60.0328171868,go-nogo,001,45,
logos/2.jpg,properties2.xlsx,frogs/ab77.jpg,0,0,400,l,0,3,3,1,0,84,84,75,,,['l'],0,[0.3321091255565989],2018_Jul_09_0737,60.0328171868,go-nogo,001,45,
logos/2.jpg,properties2.xlsx,frogs/ab6.jpg,0,0,400,l,0,3,3,1,0,85,85,5,,,['l'],0,[0.3339186623270507],2018_Jul_09_0737,60.0328171868,go-nogo,001,45,
logos/2.jpg,properties2.xlsx,frogs/ab78.jpg,0,0,400,l,0,3,3,1,0,86,86,76,,,['l'],0,[0.36340407112584217],2018_Jul_09_0737,60.0328171868,go-nogo,001,45,
logos/2.jpg,properties2.xlsx,frogs/ab53.jpg,0,0,400,l,0,3,3,1,0,87,87,52,,,['l'],0,[0.3637722259518341],2018_Jul_09_0737,60.0328171868,go-nogo,001,45,
logos/2.jpg,properties2.xlsx,frogs/ab26.jpg,0,0,400,l,0,3,3,1,0,88,88,25,,,['l'],0,[0.33353845879173605],2018_Jul_09_0737,60.0328171868,go-nogo,001,45,
logos/2.jpg,properties2.xlsx,frogs/ab55.jpg,0,0,400,l,0,3,3,1,0,89,89,54,,,['l'],0,[1.0578632293618284],2018_Jul_09_0737,60.0328171868,go-nogo,001,45,
logos/2.jpg,properties2.xlsx,,,,,,0,3,3,1,,,,,,,,,,2018_Jul_09_0737,60.0328171868,go-nogo,001,45,
