pix,source,image1,x,y,size,answer,trials_2.thisRepN,trials_2.thisTrialN,trials_2.thisN,trials_2.thisIndex,trials.thisRepN,trials.thisTrialN,trials.thisN,trials.thisIndex,key_resp_3.keys,key_resp_3.rt,key_resp_2.keys,key_resp_2.corr,key_resp_2.rt,date,frameRate,expName,session,participant,
logos/1.jpg,properties1.xlsx,frogs/ab39.jpg,0,0,400,l,0,0,0,0,0,0,0,38,space,1.20956234771,['l'],0,[0.05049689642328303],2018_Jul_09_1440,60.0371942741,go-nogo,001,46,
logos/1.jpg,properties1.xlsx,frogs/ab27.jpg,0,0,400,l,0,0,0,0,0,1,1,26,,,['l'],0,[0.7666449919815932],2018_Jul_09_1440,60.0371942741,go-nogo,001,46,
logos/1.jpg,properties1.xlsx,frogs/ab12.jpg,0,0,400,l,0,0,0,0,0,2,2,11,,,['l'],0,[0.4169856713833724],2018_Jul_09_1440,60.0371942741,go-nogo,001,46,
logos/1.jpg,properties1.xlsx,logos/1.jpg,0,0,400,a,0,0,0,0,0,3,3,86,,,['l'],0,[0.31709552392203477],2018_Jul_09_1440,60.0371942741,go-nogo,001,46,
logos/1.jpg,properties1.xlsx,frogs/ab48.jpg,0,0,400,l,0,0,0,0,0,4,4,47,,,['l'],0,[0.4171301692840643],2018_Jul_09_1440,60.0371942741,go-nogo,001,46,
logos/1.jpg,properties1.xlsx,frogs/ab49.jpg,0,0,400,l,0,0,0,0,0,5,5,48,,,['l'],0,[0.39993150571899605],2018_Jul_09_1440,60.0371942741,go-nogo,001,46,
logos/1.jpg,properties1.xlsx,frogs/ab64.jpg,0,0,400,l,0,0,0,0,0,6,6,62,,,['l'],0,[0.28334161067323294],2018_Jul_09_1440,60.0371942741,go-nogo,001,46,
logos/1.jpg,properties1.xlsx,frogs/ab33.jpg,0,0,400,l,0,0,0,0,0,7,7,32,,,['l'],0,[0.30012100276871934],2018_Jul_09_1440,60.0371942741,go-nogo,001,46,
logos/1.jpg,properties1.xlsx,frogs/ab17.jpg,0,0,400,l,0,0,0,0,0,8,8,16,,,['l'],0,[0.26708673458233534],2018_Jul_09_1440,60.0371942741,go-nogo,001,46,
logos/1.jpg,properties1.xlsx,frogs/ab79.jpg,0,0,400,l,0,0,0,0,0,9,9,77,,,['l'],0,[0.2666680320016894],2018_Jul_09_1440,60.0371942741,go-nogo,001,46,
logos/1.jpg,properties1.xlsx,frogs/ab47.jpg,0,0,400,l,0,0,0,0,0,10,10,46,,,['l'],0,[0.3170192927464086],2018_Jul_09_1440,60.0371942741,go-nogo,001,46,
logos/1.jpg,properties1.xlsx,frogs/ab5.jpg,0,0,400,l,0,0,0,0,0,11,11,4,,,['l'],0,[0.31687934595902334],2018_Jul_09_1440,60.0371942741,go-nogo,001,46,
logos/1.jpg,properties1.xlsx,frogs/ab42.jpg,0,0,400,l,0,0,0,0,0,12,12,41,,,['l'],0,[0.26715443241482717],2018_Jul_09_1440,60.0371942741,go-nogo,001,46,
logos/1.jpg,properties1.xlsx,frogs/ab20.jpg,0,0,400,l,0,0,0,0,0,13,13,19,,,['l'],0,[0.3835759362063982],2018_Jul_09_1440,60.0371942741,go-nogo,001,46,
logos/1.jpg,properties1.xlsx,frogs/ab24.jpg,0,0,400,l,0,0,0,0,0,14,14,23,,,['l'],0,[0.23360475045410567],2018_Jul_09_1440,60.0371942741,go-nogo,001,46,
logos/1.jpg,properties1.xlsx,frogs/ab62.jpg,0,0,400,l,0,0,0,0,0,15,15,60,,,['l'],0,[0.23348357701615896],2018_Jul_09_1440,60.0371942741,go-nogo,001,46,
logos/1.jpg,properties1.xlsx,frogs/ab8.jpg,0,0,400,l,0,0,0,0,0,16,16,7,,,['l'],0,[0.3003104429317318],2018_Jul_09_1440,60.0371942741,go-nogo,001,46,
logos/1.jpg,properties1.xlsx,frogs/ab38.jpg,0,0,400,l,0,0,0,0,0,17,17,37,,,['l'],0,[0.23378281282748503],2018_Jul_09_1440,60.0371942741,go-nogo,001,46,
logos/1.jpg,properties1.xlsx,frogs/ab30.jpg,0,0,400,l,0,0,0,0,0,18,18,29,,,['l'],0,[0.20023142419813666],2018_Jul_09_1440,60.0371942741,go-nogo,001,46,
logos/1.jpg,properties1.xlsx,logos/1.jpg,0,0,400,a,0,0,0,0,0,19,19,80,,,['a'],0,[0.1672102404627367],2018_Jul_09_1440,60.0371942741,go-nogo,001,46,
logos/1.jpg,properties1.xlsx,frogs/ab1.jpg,0,0,400,l,0,0,0,0,0,20,20,0,,,['l'],0,[0.2337412839042372],2018_Jul_09_1440,60.0371942741,go-nogo,001,46,
logos/1.jpg,properties1.xlsx,frogs/ab37.jpg,0,0,400,l,0,0,0,0,0,21,21,36,,,['l'],0,[0.21698635404936795],2018_Jul_09_1440,60.0371942741,go-nogo,001,46,
logos/1.jpg,properties1.xlsx,frogs/ab40.jpg,0,0,400,l,0,0,0,0,0,22,22,39,,,['l'],0,[0.2334295325272251],2018_Jul_09_1440,60.0371942741,go-nogo,001,46,
logos/1.jpg,properties1.xlsx,frogs/ab66.jpg,0,0,400,l,0,0,0,0,0,23,23,64,,,['l'],0,[0.31720930179653806],2018_Jul_09_1440,60.0371942741,go-nogo,001,46,
logos/1.jpg,properties1.xlsx,frogs/ab3.jpg,0,0,400,l,0,0,0,0,0,24,24,2,,,['l'],0,[0.2669945745019504],2018_Jul_09_1440,60.0371942741,go-nogo,001,46,
logos/1.jpg,properties1.xlsx,frogs/ab54.jpg,0,0,400,l,0,0,0,0,0,25,25,53,,,['l'],0,[0.3003366118427948],2018_Jul_09_1440,60.0371942741,go-nogo,001,46,
logos/1.jpg,properties1.xlsx,frogs/ab36.jpg,0,0,400,l,0,0,0,0,0,26,26,35,,,['l'],0,[0.3669865531628602],2018_Jul_09_1440,60.0371942741,go-nogo,001,46,
logos/1.jpg,properties1.xlsx,frogs/ab55.jpg,0,0,400,l,0,0,0,0,0,27,27,54,,,['l'],0,[0.3668744819551648],2018_Jul_09_1440,60.0371942741,go-nogo,001,46,
logos/1.jpg,properties1.xlsx,frogs/ab18.jpg,0,0,400,l,0,0,0,0,0,28,28,17,,,['l'],0,[0.21736921659794461],2018_Jul_09_1440,60.0371942741,go-nogo,001,46,
logos/1.jpg,properties1.xlsx,frogs/ab72.jpg,0,0,400,l,0,0,0,0,0,29,29,70,,,['l'],0,[0.21727307429500797],2018_Jul_09_1440,60.0371942741,go-nogo,001,46,
logos/1.jpg,properties1.xlsx,frogs/ab7.jpg,0,0,400,l,0,0,0,0,0,30,30,6,,,['l'],0,[0.20070018904152676],2018_Jul_09_1440,60.0371942741,go-nogo,001,46,
logos/1.jpg,properties1.xlsx,frogs/ab44.jpg,0,0,400,l,0,0,0,0,0,31,31,43,,,['l'],0,[0.2501173334330815],2018_Jul_09_1440,60.0371942741,go-nogo,001,46,
logos/1.jpg,properties1.xlsx,frogs/ab76.jpg,0,0,400,l,0,0,0,0,0,32,32,74,,,['l'],0,[0.18389576581466827],2018_Jul_09_1440,60.0371942741,go-nogo,001,46,
logos/1.jpg,properties1.xlsx,frogs/ab77.jpg,0,0,400,l,0,0,0,0,0,33,33,75,,,['l'],0,[0.15057819071626],2018_Jul_09_1440,60.0371942741,go-nogo,001,46,
logos/1.jpg,properties1.xlsx,frogs/ab53.jpg,0,0,400,l,0,0,0,0,0,34,34,52,,,['l'],0,[0.21715360752750712],2018_Jul_09_1440,60.0371942741,go-nogo,001,46,
logos/1.jpg,properties1.xlsx,logos/1.jpg,0,0,400,a,0,0,0,0,0,35,35,81,,,['a'],0,[0.017245881383132655],2018_Jul_09_1440,60.0371942741,go-nogo,001,46,
logos/1.jpg,properties1.xlsx,frogs/ab26.jpg,0,0,400,l,0,0,0,0,0,36,36,25,,,['l'],0,[0.16704753810336115],2018_Jul_09_1440,60.0371942741,go-nogo,001,46,
logos/1.jpg,properties1.xlsx,frogs/ab14.jpg,0,0,400,l,0,0,0,0,0,37,37,13,,,['l'],0,[0.2504199825798423],2018_Jul_09_1440,60.0371942741,go-nogo,001,46,
logos/1.jpg,properties1.xlsx,frogs/ab13.jpg,0,0,400,l,0,0,0,0,0,38,38,12,,,['l'],0,[0.11711896216365858],2018_Jul_09_1440,60.0371942741,go-nogo,001,46,
logos/1.jpg,properties1.xlsx,frogs/ab43.jpg,0,0,400,l,0,0,0,0,0,39,39,42,,,['l'],0,[0.1005403880171798],2018_Jul_09_1440,60.0371942741,go-nogo,001,46,
logos/1.jpg,properties1.xlsx,frogs/ab52.jpg,0,0,400,l,0,0,0,0,0,40,40,51,,,['l'],0,[0.11721624224810512],2018_Jul_09_1440,60.0371942741,go-nogo,001,46,
logos/1.jpg,properties1.xlsx,frogs/ab6.jpg,0,0,400,l,0,0,0,0,0,41,41,5,,,['l'],0,[0.10049260131017945],2018_Jul_09_1440,60.0371942741,go-nogo,001,46,
logos/1.jpg,properties1.xlsx,frogs/ab35.jpg,0,0,400,l,0,0,0,0,0,42,42,34,,,['l'],0,[0.03369531764292333],2018_Jul_09_1440,60.0371942741,go-nogo,001,46,
logos/1.jpg,properties1.xlsx,frogs/ab75.jpg,0,0,400,l,0,0,0,0,0,43,43,73,,,['l'],0,[0.03384550443661283],2018_Jul_09_1440,60.0371942741,go-nogo,001,46,
logos/1.jpg,properties1.xlsx,frogs/ab51.jpg,0,0,400,l,0,0,0,0,0,44,44,50,,,['l'],0,[0.6169070508713048],2018_Jul_09_1440,60.0371942741,go-nogo,001,46,
logos/1.jpg,properties1.xlsx,frogs/ab9.jpg,0,0,400,l,0,0,0,0,0,45,45,8,,,['l'],0,[0.36692226866398414],2018_Jul_09_1440,60.0371942741,go-nogo,001,46,
logos/1.jpg,properties1.xlsx,frogs/ab58.jpg,0,0,400,l,0,0,0,0,0,46,46,57,,,['l'],0,[0.36698370871454244],2018_Jul_09_1440,60.0371942741,go-nogo,001,46,
logos/1.jpg,properties1.xlsx,logos/1.jpg,0,0,400,a,0,0,0,0,0,47,47,82,,,['a'],0,[0.16717838265867613],2018_Jul_09_1440,60.0371942741,go-nogo,001,46,
logos/1.jpg,properties1.xlsx,frogs/ab63.jpg,0,0,400,l,0,0,0,0,0,48,48,61,,,['l'],0,[0.45023554864565085],2018_Jul_09_1440,60.0371942741,go-nogo,001,46,
logos/1.jpg,properties1.xlsx,frogs/ab4.jpg,0,0,400,l,0,0,0,0,0,49,49,3,,,['l'],0,[0.017223125807504402],2018_Jul_09_1440,60.0371942741,go-nogo,001,46,
logos/1.jpg,properties1.xlsx,frogs/ab16.jpg,0,0,400,l,0,0,0,0,0,50,50,15,,,['l'],0,[0.4835457281806157],2018_Jul_09_1440,60.0371942741,go-nogo,001,46,
logos/1.jpg,properties1.xlsx,frogs/ab28.jpg,0,0,400,l,0,0,0,0,0,51,51,27,,,['l'],0,[0.466652558210626],2018_Jul_09_1440,60.0371942741,go-nogo,001,46,
logos/1.jpg,properties1.xlsx,frogs/ab29.jpg,0,0,400,l,0,0,0,0,0,52,52,28,,,['l'],0,[0.16704412476610742],2018_Jul_09_1440,60.0371942741,go-nogo,001,46,
logos/1.jpg,properties1.xlsx,frogs/ab32.jpg,0,0,400,l,0,0,0,0,0,53,53,31,,,['l'],0,[0.16704355587717146],2018_Jul_09_1440,60.0371942741,go-nogo,001,46,
logos/1.jpg,properties1.xlsx,frogs/ab65.jpg,0,0,400,l,0,0,0,0,0,54,54,63,,,['l'],0,[0.16738204505600152],2018_Jul_09_1440,60.0371942741,go-nogo,001,46,
logos/1.jpg,properties1.xlsx,frogs/ab2.jpg,0,0,400,l,0,0,0,0,0,55,55,1,,,['l'],0,[0.18364829893653223],2018_Jul_09_1440,60.0371942741,go-nogo,001,46,
logos/1.jpg,properties1.xlsx,frogs/ab25.jpg,0,0,400,l,0,0,0,0,0,56,56,24,,,['l'],0,[0.06712894617157872],2018_Jul_09_1440,60.0371942741,go-nogo,001,46,
logos/1.jpg,properties1.xlsx,frogs/ab15.jpg,0,0,400,l,0,0,0,0,0,57,57,14,,,['l'],0,[0.10058760583524418],2018_Jul_09_1440,60.0371942741,go-nogo,001,46,
logos/1.jpg,properties1.xlsx,frogs/ab21.jpg,0,0,400,l,0,0,0,0,0,58,58,20,,,['l'],0,[0.017198094674313325],2018_Jul_09_1440,60.0371942741,go-nogo,001,46,
logos/1.jpg,properties1.xlsx,frogs/ab34.jpg,0,0,400,l,0,0,0,0,0,59,59,33,,,['l'],0,[0.05065902989554161],2018_Jul_09_1440,60.0371942741,go-nogo,001,46,
logos/1.jpg,properties1.xlsx,frogs/ab23.jpg,0,0,400,l,0,0,0,0,0,60,60,22,,,['l'],0,[0.5502810029065586],2018_Jul_09_1440,60.0371942741,go-nogo,001,46,
logos/1.jpg,properties1.xlsx,frogs/ab22.jpg,0,0,400,l,0,0,0,0,0,61,61,21,,,['l'],0,[0.4168718935070501],2018_Jul_09_1440,60.0371942741,go-nogo,001,46,
logos/1.jpg,properties1.xlsx,logos/1.jpg,0,0,400,a,0,0,0,0,0,62,62,85,,,['a'],0,[0.2504268092525308],2018_Jul_09_1440,60.0371942741,go-nogo,001,46,
logos/1.jpg,properties1.xlsx,frogs/ab41.jpg,0,0,400,l,0,0,0,0,0,63,63,40,,,['l'],0,[0.5835775290961465],2018_Jul_09_1440,60.0371942741,go-nogo,001,46,
logos/1.jpg,properties1.xlsx,frogs/ab50.jpg,0,0,400,l,0,0,0,0,0,64,64,49,,,['l'],0,[0.017203783570948872],2018_Jul_09_1440,60.0371942741,go-nogo,001,46,
logos/1.jpg,properties1.xlsx,logos/1.jpg,0,0,400,a,0,0,0,0,0,65,65,89,,,['a'],0,[0.16711751149705378],2018_Jul_09_1440,60.0371942741,go-nogo,001,46,
logos/1.jpg,properties1.xlsx,frogs/ab31.jpg,0,0,400,l,0,0,0,0,0,66,66,30,,,['l'],0,[0.48354743484924256],2018_Jul_09_1440,60.0371942741,go-nogo,001,46,
logos/1.jpg,properties1.xlsx,frogs/ab67.jpg,0,0,400,l,0,0,0,0,0,67,67,65,,,['l'],0,[0.017101383480621735],2018_Jul_09_1440,60.0371942741,go-nogo,001,46,
logos/1.jpg,properties1.xlsx,frogs/ab11.jpg,0,0,400,l,0,0,0,0,0,68,68,10,,,['l'],0,[0.03359689978060487],2018_Jul_09_1440,60.0371942741,go-nogo,001,46,
logos/1.jpg,properties1.xlsx,frogs/ab56.jpg,0,0,400,l,0,0,0,0,0,69,69,55,,,['l'],0,[0.1838548057785374],2018_Jul_09_1440,60.0371942741,go-nogo,001,46,
logos/1.jpg,properties1.xlsx,frogs/ab81.jpg,0,0,400,l,0,0,0,0,0,70,70,79,,,['l'],0,[0.0840232539230783],2018_Jul_09_1440,60.0371942741,go-nogo,001,46,
logos/1.jpg,properties1.xlsx,logos/1.jpg,0,0,400,a,0,0,0,0,0,71,71,88,,,['a'],0,[0.2170079718453053],2018_Jul_09_1440,60.0371942741,go-nogo,001,46,
logos/1.jpg,properties1.xlsx,frogs/ab80.jpg,0,0,400,l,0,0,0,0,0,72,72,78,,,['l'],0,[0.016954610022366978],2018_Jul_09_1440,60.0371942741,go-nogo,001,46,
logos/1.jpg,properties1.xlsx,frogs/ab70.jpg,0,0,400,l,0,0,0,0,0,73,73,68,,,['l'],0,[0.08410517399170203],2018_Jul_09_1440,60.0371942741,go-nogo,001,46,
logos/1.jpg,properties1.xlsx,frogs/ab74.jpg,0,0,400,l,0,0,0,0,0,74,74,72,,,['l'],0,[0.08382926264675916],2018_Jul_09_1440,60.0371942741,go-nogo,001,46,
logos/1.jpg,properties1.xlsx,frogs/ab71.jpg,0,0,400,l,0,0,0,0,0,75,75,69,,,['l'],0,[0.06692869711150706],2018_Jul_09_1440,60.0371942741,go-nogo,001,46,
logos/1.jpg,properties1.xlsx,frogs/ab68.jpg,0,0,400,l,0,0,0,0,0,76,76,66,,,['l'],0,[0.050529323118098546],2018_Jul_09_1440,60.0371942741,go-nogo,001,46,
logos/1.jpg,properties1.xlsx,frogs/ab46.jpg,0,0,400,l,0,0,0,0,0,77,77,45,,,['l'],0,[0.017280583635510993],2018_Jul_09_1440,60.0371942741,go-nogo,001,46,
logos/1.jpg,properties1.xlsx,frogs/ab61.jpg,0,0,400,l,0,0,0,0,0,78,78,59,,,['l'],0,[0.017167943538879626],2018_Jul_09_1440,60.0371942741,go-nogo,001,46,
logos/1.jpg,properties1.xlsx,frogs/ab78.jpg,0,0,400,l,0,0,0,0,0,79,79,76,,,['l'],0,[0.4335522988549201],2018_Jul_09_1440,60.0371942741,go-nogo,001,46,
logos/1.jpg,properties1.xlsx,frogs/ab57.jpg,0,0,400,l,0,0,0,0,0,80,80,56,,,['l'],0,[0.3670309265326068],2018_Jul_09_1440,60.0371942741,go-nogo,001,46,
logos/1.jpg,properties1.xlsx,logos/1.jpg,0,0,400,a,0,0,0,0,0,81,81,87,,,['a'],0,[0.2835680286443676],2018_Jul_09_1440,60.0371942741,go-nogo,001,46,
logos/1.jpg,properties1.xlsx,frogs/ab45.jpg,0,0,400,l,0,0,0,0,0,82,82,44,,,['l'],0,[0.083857707113566],2018_Jul_09_1440,60.0371942741,go-nogo,001,46,
logos/1.jpg,properties1.xlsx,logos/1.jpg,0,0,400,a,0,0,0,0,0,83,83,84,,,['a'],0,[0.43315748962777434],2018_Jul_09_1440,60.0371942741,go-nogo,001,46,
logos/1.jpg,properties1.xlsx,frogs/ab19.jpg,0,0,400,l,0,0,0,0,0,84,84,18,,,['l'],0,[0.10039987234085856],2018_Jul_09_1440,60.0371942741,go-nogo,001,46,
logos/1.jpg,properties1.xlsx,frogs/ab10.jpg,0,0,400,l,0,0,0,0,0,85,85,9,,,['l'],0,[0.050553785362353665],2018_Jul_09_1440,60.0371942741,go-nogo,001,46,
logos/1.jpg,properties1.xlsx,logos/1.jpg,0,0,400,a,0,0,0,0,0,86,86,83,,,['a'],0,[0.20038445544014394],2018_Jul_09_1440,60.0371942741,go-nogo,001,46,
logos/1.jpg,properties1.xlsx,frogs/ab73.jpg,0,0,400,l,0,0,0,0,0,87,87,71,,,['l'],0,[0.06728425297114882],2018_Jul_09_1440,60.0371942741,go-nogo,001,46,
logos/1.jpg,properties1.xlsx,frogs/ab69.jpg,0,0,400,l,0,0,0,0,0,88,88,67,,,['l'],0,[0.051172168110497296],2018_Jul_09_1440,60.0371942741,go-nogo,001,46,
logos/1.jpg,properties1.xlsx,frogs/ab60.jpg,0,0,400,l,0,0,0,0,0,89,89,58,,,['l'],0,[0.0671278083937068],2018_Jul_09_1440,60.0371942741,go-nogo,001,46,
logos/1.jpg,properties1.xlsx,,,,,,0,0,0,0,,,,,,,,,,2018_Jul_09_1440,60.0371942741,go-nogo,001,46,
logos/4.jpg,properties4.xlsx,logos/4.jpg,0,0,400,a,0,1,1,3,0,0,0,81,space,2.12648174349,['a'],0,[0.200696775706092],2018_Jul_09_1440,60.0371942741,go-nogo,001,46,
logos/4.jpg,properties4.xlsx,frogs/ab15.jpg,0,0,400,l,0,1,1,3,0,1,1,14,,,['l'],0,[0.18378881461103447],2018_Jul_09_1440,60.0371942741,go-nogo,001,46,
logos/4.jpg,properties4.xlsx,frogs/ab11.jpg,0,0,400,l,0,1,1,3,0,2,2,10,,,['l'],0,[0.13374702968576457],2018_Jul_09_1440,60.0371942741,go-nogo,001,46,
logos/4.jpg,properties4.xlsx,frogs/ab5.jpg,0,0,400,l,0,1,1,3,0,3,3,4,,,['l'],0,[0.250410880349591],2018_Jul_09_1440,60.0371942741,go-nogo,001,46,
logos/4.jpg,properties4.xlsx,frogs/ab7.jpg,0,0,400,l,0,1,1,3,0,4,4,6,,,['l'],0,[0.16703445364692016],2018_Jul_09_1440,60.0371942741,go-nogo,001,46,
logos/4.jpg,properties4.xlsx,logos/4.jpg,0,0,400,a,0,1,1,3,0,5,5,86,,,['a'],0,[0.21705632744306058],2018_Jul_09_1440,60.0371942741,go-nogo,001,46,
logos/4.jpg,properties4.xlsx,frogs/ab56.jpg,0,0,400,l,0,1,1,3,0,6,6,55,,,['l'],0,[0.1836619522800902],2018_Jul_09_1440,60.0371942741,go-nogo,001,46,
logos/4.jpg,properties4.xlsx,frogs/ab42.jpg,0,0,400,l,0,1,1,3,0,7,7,41,,,['l'],0,[0.15060151517900522],2018_Jul_09_1440,60.0371942741,go-nogo,001,46,
logos/4.jpg,properties4.xlsx,frogs/ab40.jpg,0,0,400,l,0,1,1,3,0,8,8,39,,,['l'],0,[0.08383495153975673],2018_Jul_09_1440,60.0371942741,go-nogo,001,46,
logos/4.jpg,properties4.xlsx,logos/4.jpg,0,0,400,a,0,1,1,3,0,9,9,82,,,['a'],0,[0.033871673347675824],2018_Jul_09_1440,60.0371942741,go-nogo,001,46,
logos/4.jpg,properties4.xlsx,frogs/ab55.jpg,0,0,400,l,0,1,1,3,0,10,10,54,,,['l'],0,[0.6003216500521376],2018_Jul_09_1440,60.0371942741,go-nogo,001,46,
logos/4.jpg,properties4.xlsx,frogs/ab21.jpg,0,0,400,l,0,1,1,3,0,11,11,20,,,['l'],0,[0.4669853584928205],2018_Jul_09_1440,60.0371942741,go-nogo,001,46,
logos/4.jpg,properties4.xlsx,frogs/ab58.jpg,0,0,400,l,0,1,1,3,0,12,12,57,,,['l'],0,[0.06728880408627447],2018_Jul_09_1440,60.0371942741,go-nogo,001,46,
logos/4.jpg,properties4.xlsx,frogs/ab41.jpg,0,0,400,l,0,1,1,3,0,13,13,40,,,['l'],0,[0.017191836892379797],2018_Jul_09_1440,60.0371942741,go-nogo,001,46,
logos/4.jpg,properties4.xlsx,frogs/ab74.jpg,0,0,400,l,0,1,1,3,0,14,14,72,,,['l'],0,[0.06727970185602317],2018_Jul_09_1440,60.0371942741,go-nogo,001,46,
logos/4.jpg,properties4.xlsx,frogs/ab48.jpg,0,0,400,l,0,1,1,3,0,15,15,47,,,['l'],0,[0.017279445855820086],2018_Jul_09_1440,60.0371942741,go-nogo,001,46,
logos/4.jpg,properties4.xlsx,frogs/ab38.jpg,0,0,400,l,0,1,1,3,0,16,16,37,,,['l'],0,[0.0005677515946445055],2018_Jul_09_1440,60.0371942741,go-nogo,001,46,
logos/4.jpg,properties4.xlsx,frogs/ab9.jpg,0,0,400,l,0,1,1,3,0,17,17,8,,,['l'],0,[0.06716990620770957],2018_Jul_09_1440,60.0371942741,go-nogo,001,46,
logos/4.jpg,properties4.xlsx,frogs/ab50.jpg,0,0,400,l,0,1,1,3,0,18,18,49,,,['l'],0,[0.10043741904155468],2018_Jul_09_1440,60.0371942741,go-nogo,001,46,
logos/4.jpg,properties4.xlsx,frogs/ab6.jpg,0,0,400,l,0,1,1,3,0,19,19,5,,,['l'],0,[0.0671983506745164],2018_Jul_09_1440,60.0371942741,go-nogo,001,46,
logos/4.jpg,properties4.xlsx,logos/4.jpg,0,0,400,a,0,1,1,3,0,20,20,80,,,['l'],0,[0.4003052660391404],2018_Jul_09_1440,60.0371942741,go-nogo,001,46,
logos/4.jpg,properties4.xlsx,frogs/ab73.jpg,0,0,400,l,0,1,1,3,0,21,21,71,,,['l'],0,[0.15038476832887682],2018_Jul_09_1440,60.0371942741,go-nogo,001,46,
logos/4.jpg,properties4.xlsx,frogs/ab39.jpg,0,0,400,l,0,1,1,3,0,22,22,38,,,['l'],0,[0.5503896607770002],2018_Jul_09_1440,60.0371942741,go-nogo,001,46,
logos/4.jpg,properties4.xlsx,frogs/ab22.jpg,0,0,400,l,0,1,1,3,0,23,23,21,,,['l'],0,[0.38372384744434385],2018_Jul_09_1440,60.0371942741,go-nogo,001,46,
logos/4.jpg,properties4.xlsx,frogs/ab80.jpg,0,0,400,l,0,1,1,3,0,24,24,78,,,['l'],0,[0.15060265295869613],2018_Jul_09_1440,60.0371942741,go-nogo,001,46,
logos/4.jpg,properties4.xlsx,frogs/ab76.jpg,0,0,400,l,0,1,1,3,0,25,25,74,,,['l'],0,[0.06696396825464035],2018_Jul_09_1440,60.0371942741,go-nogo,001,46,
logos/4.jpg,properties4.xlsx,frogs/ab30.jpg,0,0,400,l,0,1,1,3,0,26,26,29,,,['l'],0,[0.08352376905168057],2018_Jul_09_1440,60.0371942741,go-nogo,001,46,
logos/4.jpg,properties4.xlsx,frogs/ab49.jpg,0,0,400,l,0,1,1,3,0,27,27,48,,,['l'],0,[0.10031226337741828],2018_Jul_09_1440,60.0371942741,go-nogo,001,46,
logos/4.jpg,properties4.xlsx,logos/4.jpg,0,0,400,a,0,1,1,3,0,28,28,88,,,['a'],0,[0.2172440609356272],2018_Jul_09_1440,60.0371942741,go-nogo,001,46,
logos/4.jpg,properties4.xlsx,frogs/ab57.jpg,0,0,400,l,0,1,1,3,0,29,29,56,,,['l'],0,[0.0504895008616586],2018_Jul_09_1440,60.0371942741,go-nogo,001,46,
logos/4.jpg,properties4.xlsx,logos/4.jpg,0,0,400,a,0,1,1,3,0,30,30,83,,,['a'],0,[0.1502948838078737],2018_Jul_09_1440,60.0371942741,go-nogo,001,46,
logos/4.jpg,properties4.xlsx,frogs/ab65.jpg,0,0,400,l,0,1,1,3,0,31,31,63,,,['l'],0,[0.017186716888318188],2018_Jul_09_1440,60.0371942741,go-nogo,001,46,
logos/4.jpg,properties4.xlsx,frogs/ab10.jpg,0,0,400,l,0,1,1,3,0,32,32,9,,,['l'],0,[0.10050739243160933],2018_Jul_09_1440,60.0371942741,go-nogo,001,46,
logos/4.jpg,properties4.xlsx,frogs/ab45.jpg,0,0,400,l,0,1,1,3,0,33,33,44,,,['l'],0,[0.05045878083546995],2018_Jul_09_1440,60.0371942741,go-nogo,001,46,
logos/4.jpg,properties4.xlsx,frogs/ab44.jpg,0,0,400,l,0,1,1,3,0,34,34,43,,,['l'],0,[0.03391547783030546],2018_Jul_09_1440,60.0371942741,go-nogo,001,46,
logos/4.jpg,properties4.xlsx,frogs/ab35.jpg,0,0,400,l,0,1,1,3,0,35,35,34,,,['l'],0,[0.0005677515946445055],2018_Jul_09_1440,60.0371942741,go-nogo,001,46,
logos/4.jpg,properties4.xlsx,frogs/ab19.jpg,0,0,400,l,0,1,1,3,0,36,36,18,,,['l'],0,[0.017178183547002845],2018_Jul_09_1440,60.0371942741,go-nogo,001,46,
logos/4.jpg,properties4.xlsx,frogs/ab66.jpg,0,0,400,l,0,1,1,3,0,37,37,64,,,['l'],0,[0.11710530881828163],2018_Jul_09_1440,60.0371942741,go-nogo,001,46,
logos/4.jpg,properties4.xlsx,frogs/ab77.jpg,0,0,400,l,0,1,1,3,0,38,38,75,,,['l'],0,[0.05013565167064371],2018_Jul_09_1440,60.0371942741,go-nogo,001,46,
logos/4.jpg,properties4.xlsx,frogs/ab24.jpg,0,0,400,l,0,1,1,3,0,39,39,23,,,['l'],0,[0.13374646079682861],2018_Jul_09_1440,60.0371942741,go-nogo,001,46,
logos/4.jpg,properties4.xlsx,frogs/ab46.jpg,0,0,400,l,0,1,1,3,0,40,40,45,,,['l'],0,[0.150303986038125],2018_Jul_09_1440,60.0371942741,go-nogo,001,46,
logos/4.jpg,properties4.xlsx,frogs/ab63.jpg,0,0,400,l,0,1,1,3,0,41,41,61,,,['l'],0,[0.15054917735687923],2018_Jul_09_1440,60.0371942741,go-nogo,001,46,
logos/4.jpg,properties4.xlsx,frogs/ab27.jpg,0,0,400,l,0,1,1,3,0,42,42,26,,,['l'],0,[0.15046384395282075],2018_Jul_09_1440,60.0371942741,go-nogo,001,46,
logos/4.jpg,properties4.xlsx,logos/4.jpg,0,0,400,a,0,1,1,3,0,43,43,84,,,['a'],0,[0.20001410845725331],2018_Jul_09_1440,60.0371942741,go-nogo,001,46,
logos/4.jpg,properties4.xlsx,frogs/ab51.jpg,0,0,400,l,0,1,1,3,0,44,44,50,,,['l'],0,[0.03378633994179836],2018_Jul_09_1440,60.0371942741,go-nogo,001,46,
logos/4.jpg,properties4.xlsx,frogs/ab71.jpg,0,0,400,l,0,1,1,3,0,45,45,69,,,['l'],0,[0.08379683595012466],2018_Jul_09_1440,60.0371942741,go-nogo,001,46,
logos/4.jpg,properties4.xlsx,frogs/ab54.jpg,0,0,400,l,0,1,1,3,0,46,46,53,,,['l'],0,[0.2173629588160111],2018_Jul_09_1440,60.0371942741,go-nogo,001,46,
logos/4.jpg,properties4.xlsx,frogs/ab17.jpg,0,0,400,l,0,1,1,3,0,47,47,16,,,['l'],0,[0.05061920763910166],2018_Jul_09_1440,60.0371942741,go-nogo,001,46,
logos/4.jpg,properties4.xlsx,frogs/ab3.jpg,0,0,400,l,0,1,1,3,0,48,48,2,,,['l'],0,[0.11686978861689568],2018_Jul_09_1440,60.0371942741,go-nogo,001,46,
logos/4.jpg,properties4.xlsx,frogs/ab60.jpg,0,0,400,l,0,1,1,3,0,49,49,58,,,['l'],0,[0.1170194065234682],2018_Jul_09_1440,60.0371942741,go-nogo,001,46,
logos/4.jpg,properties4.xlsx,frogs/ab16.jpg,0,0,400,l,0,1,1,3,0,50,50,15,,,['l'],0,[0.10037427231873153],2018_Jul_09_1440,60.0371942741,go-nogo,001,46,
logos/4.jpg,properties4.xlsx,frogs/ab43.jpg,0,0,400,l,0,1,1,3,0,51,51,42,,,['l'],0,[0.08395384941832162],2018_Jul_09_1440,60.0371942741,go-nogo,001,46,
logos/4.jpg,properties4.xlsx,frogs/ab36.jpg,0,0,400,l,0,1,1,3,0,52,52,35,,,['l'],0,[0.15037623498756147],2018_Jul_09_1440,60.0371942741,go-nogo,001,46,
logos/4.jpg,properties4.xlsx,frogs/ab72.jpg,0,0,400,l,0,1,1,3,0,53,53,70,,,['l'],0,[0.11718950444628717],2018_Jul_09_1440,60.0371942741,go-nogo,001,46,
logos/4.jpg,properties4.xlsx,frogs/ab68.jpg,0,0,400,l,0,1,1,3,0,54,54,66,,,['l'],0,[0.01718102799532062],2018_Jul_09_1440,60.0371942741,go-nogo,001,46,
logos/4.jpg,properties4.xlsx,frogs/ab18.jpg,0,0,400,l,0,1,1,3,0,55,55,17,,,['l'],0,[0.0340076379088714],2018_Jul_09_1440,60.0371942741,go-nogo,001,46,
logos/4.jpg,properties4.xlsx,frogs/ab4.jpg,0,0,400,l,0,1,1,3,0,56,56,3,,,['l'],0,[0.45023042864158924],2018_Jul_09_1440,60.0371942741,go-nogo,001,46,
logos/4.jpg,properties4.xlsx,frogs/ab69.jpg,0,0,400,l,0,1,1,3,0,57,57,67,,,['l'],0,[0.45024351309621125],2018_Jul_09_1440,60.0371942741,go-nogo,001,46,
logos/4.jpg,properties4.xlsx,frogs/ab75.jpg,0,0,400,l,0,1,1,3,0,58,58,73,,,['l'],0,[0.25043932482003584],2018_Jul_09_1440,60.0371942741,go-nogo,001,46,
logos/4.jpg,properties4.xlsx,frogs/ab23.jpg,0,0,400,l,0,1,1,3,0,59,59,22,,,['l'],0,[0.0005694582650903612],2018_Jul_09_1440,60.0371942741,go-nogo,001,46,
logos/4.jpg,properties4.xlsx,frogs/ab53.jpg,0,0,400,l,0,1,1,3,0,60,60,52,,,['l'],0,[0.03393766451517877],2018_Jul_09_1440,60.0371942741,go-nogo,001,46,
logos/4.jpg,properties4.xlsx,frogs/ab31.jpg,0,0,400,l,0,1,1,3,0,61,61,30,,,['l'],0,[0.0671056217088335],2018_Jul_09_1440,60.0371942741,go-nogo,001,46,
logos/4.jpg,properties4.xlsx,frogs/ab37.jpg,0,0,400,l,0,1,1,3,0,62,62,36,,,['l'],0,[0.4838108306284994],2018_Jul_09_1440,60.0371942741,go-nogo,001,46,
logos/4.jpg,properties4.xlsx,frogs/ab20.jpg,0,0,400,l,0,1,1,3,0,63,63,19,,,['l'],0,[0.050612380966413184],2018_Jul_09_1440,60.0371942741,go-nogo,001,46,
logos/4.jpg,properties4.xlsx,frogs/ab47.jpg,0,0,400,l,0,1,1,3,0,64,64,46,,,['l'],0,[0.016936405563683365],2018_Jul_09_1440,60.0371942741,go-nogo,001,46,
logos/4.jpg,properties4.xlsx,frogs/ab1.jpg,0,0,400,l,0,1,1,3,0,65,65,0,,,['l'],0,[0.10042433458511368],2018_Jul_09_1440,60.0371942741,go-nogo,001,46,
logos/4.jpg,properties4.xlsx,logos/4.jpg,0,0,400,a,0,1,1,3,0,66,66,87,,,['a'],0,[0.5002534402174206],2018_Jul_09_1440,60.0371942741,go-nogo,001,46,
logos/4.jpg,properties4.xlsx,frogs/ab25.jpg,0,0,400,l,0,1,1,3,0,67,67,24,,,['l'],0,[0.45005919293907937],2018_Jul_09_1440,60.0371942741,go-nogo,001,46,
logos/4.jpg,properties4.xlsx,frogs/ab13.jpg,0,0,400,l,0,1,1,3,0,68,68,12,,,['l'],0,[0.017444423774577444],2018_Jul_09_1440,60.0371942741,go-nogo,001,46,
logos/4.jpg,properties4.xlsx,frogs/ab64.jpg,0,0,400,l,0,1,1,3,0,69,69,62,,,['l'],0,[0.05059531428560149],2018_Jul_09_1440,60.0371942741,go-nogo,001,46,
logos/4.jpg,properties4.xlsx,frogs/ab78.jpg,0,0,400,l,0,1,1,3,0,70,70,76,,,['l'],0,[0.017319268112260033],2018_Jul_09_1440,60.0371942741,go-nogo,001,46,
logos/4.jpg,properties4.xlsx,frogs/ab79.jpg,0,0,400,l,0,1,1,3,0,71,71,77,,,['l'],0,[0.03386257111742452],2018_Jul_09_1440,60.0371942741,go-nogo,001,46,
logos/4.jpg,properties4.xlsx,frogs/ab14.jpg,0,0,400,l,0,1,1,3,0,72,72,13,,,['l'],0,[0.06728652852871164],2018_Jul_09_1440,60.0371942741,go-nogo,001,46,
logos/4.jpg,properties4.xlsx,frogs/ab2.jpg,0,0,400,l,0,1,1,3,0,73,73,1,,,['l'],0,[0.13378514527357765],2018_Jul_09_1440,60.0371942741,go-nogo,001,46,
logos/4.jpg,properties4.xlsx,frogs/ab26.jpg,0,0,400,l,0,1,1,3,0,74,74,25,,,['l'],0,[0.13388299424696015],2018_Jul_09_1440,60.0371942741,go-nogo,001,46,
logos/4.jpg,properties4.xlsx,frogs/ab28.jpg,0,0,400,l,0,1,1,3,0,75,75,27,,,['l'],0,[0.1003719967611687],2018_Jul_09_1440,60.0371942741,go-nogo,001,46,
logos/4.jpg,properties4.xlsx,logos/4.jpg,0,0,400,a,0,1,1,3,0,76,76,85,,,['a'],0,[0.01723848582150822],2018_Jul_09_1440,60.0371942741,go-nogo,001,46,
logos/4.jpg,properties4.xlsx,logos/4.jpg,0,0,400,a,0,1,1,3,0,77,77,89,,,['l'],0,[0.48359692822486977],2018_Jul_09_1440,60.0371942741,go-nogo,001,46,
logos/4.jpg,properties4.xlsx,frogs/ab12.jpg,0,0,400,l,0,1,1,3,0,78,78,11,,,['l'],0,[0.350374414541875],2018_Jul_09_1440,60.0371942741,go-nogo,001,46,
logos/4.jpg,properties4.xlsx,frogs/ab8.jpg,0,0,400,l,0,1,1,3,0,79,79,7,,,['l'],0,[0.45059736228722613],2018_Jul_09_1440,60.0371942741,go-nogo,001,46,
logos/4.jpg,properties4.xlsx,frogs/ab52.jpg,0,0,400,l,0,1,1,3,0,80,80,51,,,['l'],0,[0.23368610163379344],2018_Jul_09_1440,60.0371942741,go-nogo,001,46,
logos/4.jpg,properties4.xlsx,frogs/ab29.jpg,0,0,400,l,0,1,1,3,0,81,81,28,,,['l'],0,[0.25003200002720405],2018_Jul_09_1440,60.0371942741,go-nogo,001,46,
logos/4.jpg,properties4.xlsx,frogs/ab62.jpg,0,0,400,l,0,1,1,3,0,82,82,60,,,['l'],0,[0.11721681113522209],2018_Jul_09_1440,60.0371942741,go-nogo,001,46,
logos/4.jpg,properties4.xlsx,frogs/ab70.jpg,0,0,400,l,0,1,1,3,0,83,83,68,,,['l'],0,[0.10038053010248404],2018_Jul_09_1440,60.0371942741,go-nogo,001,46,
logos/4.jpg,properties4.xlsx,frogs/ab32.jpg,0,0,400,l,0,1,1,3,0,84,84,31,,,['l'],0,[0.1004123879083636],2018_Jul_09_1440,60.0371942741,go-nogo,001,46,
logos/4.jpg,properties4.xlsx,frogs/ab81.jpg,0,0,400,l,0,1,1,3,0,85,85,79,,,['l'],0,[0.1003953212275519],2018_Jul_09_1440,60.0371942741,go-nogo,001,46,
logos/4.jpg,properties4.xlsx,frogs/ab34.jpg,0,0,400,l,0,1,1,3,0,86,86,33,,,['l'],0,[0.11701485540834256],2018_Jul_09_1440,60.0371942741,go-nogo,001,46,
logos/4.jpg,properties4.xlsx,frogs/ab33.jpg,0,0,400,l,0,1,1,3,0,87,87,32,,,['l'],0,[0.1170677621212235],2018_Jul_09_1440,60.0371942741,go-nogo,001,46,
logos/4.jpg,properties4.xlsx,frogs/ab61.jpg,0,0,400,l,0,1,1,3,0,88,88,59,,,['l'],0,[0.11711839327472262],2018_Jul_09_1440,60.0371942741,go-nogo,001,46,
logos/4.jpg,properties4.xlsx,frogs/ab67.jpg,0,0,400,l,0,1,1,3,0,89,89,65,,,['l'],0,[0.06711813727451954],2018_Jul_09_1440,60.0371942741,go-nogo,001,46,
logos/4.jpg,properties4.xlsx,,,,,,0,1,1,3,,,,,,,,,,2018_Jul_09_1440,60.0371942741,go-nogo,001,46,
logos/2.jpg,properties2.xlsx,frogs/ab68.jpg,0,0,400,l,0,2,2,1,0,0,0,66,space,1.17583517227,['l'],0,[0.13387901202077046],2018_Jul_09_1440,60.0371942741,go-nogo,001,46,
logos/2.jpg,properties2.xlsx,frogs/ab45.jpg,0,0,400,l,0,2,2,1,0,1,1,44,,,['l'],0,[0.1337311007828248],2018_Jul_09_1440,60.0371942741,go-nogo,001,46,
logos/2.jpg,properties2.xlsx,frogs/ab70.jpg,0,0,400,l,0,2,2,1,0,2,2,68,,,['l'],0,[0.05051623866347654],2018_Jul_09_1440,60.0371942741,go-nogo,001,46,
logos/2.jpg,properties2.xlsx,frogs/ab50.jpg,0,0,400,l,0,2,2,1,0,3,3,49,,,['l'],0,[0.11710246437178284],2018_Jul_09_1440,60.0371942741,go-nogo,001,46,
logos/2.jpg,properties2.xlsx,frogs/ab63.jpg,0,0,400,l,0,2,2,1,0,4,4,61,,,['l'],0,[0.01727318807388656],2018_Jul_09_1440,60.0371942741,go-nogo,001,46,
logos/2.jpg,properties2.xlsx,frogs/ab46.jpg,0,0,400,l,0,2,2,1,0,5,5,45,,,['l'],0,[0.16669425780128222],2018_Jul_09_1440,60.0371942741,go-nogo,001,46,
logos/2.jpg,properties2.xlsx,frogs/ab16.jpg,0,0,400,l,0,2,2,1,0,6,6,15,,,['l'],0,[0.03386712223255017],2018_Jul_09_1440,60.0371942741,go-nogo,001,46,
logos/2.jpg,properties2.xlsx,frogs/ab54.jpg,0,0,400,l,0,2,2,1,0,7,7,53,,,['l'],0,[0.033933113401872106],2018_Jul_09_1440,60.0371942741,go-nogo,001,46,
logos/2.jpg,properties2.xlsx,frogs/ab78.jpg,0,0,400,l,0,2,2,1,0,8,8,76,,,['l'],0,[0.4335978100025386],2018_Jul_09_1440,60.0371942741,go-nogo,001,46,
logos/2.jpg,properties2.xlsx,frogs/ab30.jpg,0,0,400,l,0,2,2,1,0,9,9,29,,,['l'],0,[0.03390694448899012],2018_Jul_09_1440,60.0371942741,go-nogo,001,46,
logos/2.jpg,properties2.xlsx,frogs/ab26.jpg,0,0,400,l,0,2,2,1,0,10,10,25,,,['l'],0,[0.1004243345832947],2018_Jul_09_1440,60.0371942741,go-nogo,001,46,
logos/2.jpg,properties2.xlsx,frogs/ab79.jpg,0,0,400,l,0,2,2,1,0,11,11,77,,,['l'],0,[0.06736503526190063],2018_Jul_09_1440,60.0371942741,go-nogo,001,46,
logos/2.jpg,properties2.xlsx,frogs/ab52.jpg,0,0,400,l,0,2,2,1,0,12,12,51,,,['l'],0,[0.08360398245349643],2018_Jul_09_1440,60.0371942741,go-nogo,001,46,
logos/2.jpg,properties2.xlsx,frogs/ab73.jpg,0,0,400,l,0,2,2,1,0,13,13,71,,,['l'],0,[0.05041554524359526],2018_Jul_09_1440,60.0371942741,go-nogo,001,46,
logos/2.jpg,properties2.xlsx,frogs/ab29.jpg,0,0,400,l,0,2,2,1,0,14,14,28,,,['l'],0,[0.05066130545310443],2018_Jul_09_1440,60.0371942741,go-nogo,001,46,
logos/2.jpg,properties2.xlsx,frogs/ab11.jpg,0,0,400,l,0,2,2,1,0,15,15,10,,,['l'],0,[0.0837843203862576],2018_Jul_09_1440,60.0371942741,go-nogo,001,46,
logos/2.jpg,properties2.xlsx,frogs/ab77.jpg,0,0,400,l,0,2,2,1,0,16,16,75,,,['l'],0,[0.03373684656799014],2018_Jul_09_1440,60.0371942741,go-nogo,001,46,
logos/2.jpg,properties2.xlsx,frogs/ab13.jpg,0,0,400,l,0,2,2,1,0,17,17,12,,,['l'],0,[0.050558905366415274],2018_Jul_09_1440,60.0371942741,go-nogo,001,46,
logos/2.jpg,properties2.xlsx,frogs/ab56.jpg,0,0,400,l,0,2,2,1,0,18,18,55,,,['l'],0,[0.7167488427367061],2018_Jul_09_1440,60.0371942741,go-nogo,001,46,
logos/2.jpg,properties2.xlsx,frogs/ab47.jpg,0,0,400,l,0,2,2,1,0,19,19,46,,,['l'],0,[0.11743014465173474],2018_Jul_09_1440,60.0371942741,go-nogo,001,46,
logos/2.jpg,properties2.xlsx,frogs/ab40.jpg,0,0,400,l,0,2,2,1,0,20,20,39,,,['l'],0,[0.1504894439731288],2018_Jul_09_1440,60.0371942741,go-nogo,001,46,
logos/2.jpg,properties2.xlsx,frogs/ab80.jpg,0,0,400,l,0,2,2,1,0,21,21,78,,,['l'],0,[0.4669608962503844],2018_Jul_09_1440,60.0371942741,go-nogo,001,46,
logos/2.jpg,properties2.xlsx,frogs/ab28.jpg,0,0,400,l,0,2,2,1,0,22,22,27,,,['l'],0,[0.13375613191601587],2018_Jul_09_1440,60.0371942741,go-nogo,001,46,
logos/2.jpg,properties2.xlsx,frogs/ab7.jpg,0,0,400,l,0,2,2,1,0,23,23,6,,,['l'],0,[0.11718893555735121],2018_Jul_09_1440,60.0371942741,go-nogo,001,46,
logos/2.jpg,properties2.xlsx,frogs/ab27.jpg,0,0,400,l,0,2,2,1,0,24,24,26,,,['l'],0,[0.13383065642483416],2018_Jul_09_1440,60.0371942741,go-nogo,001,46,
logos/2.jpg,properties2.xlsx,frogs/ab43.jpg,0,0,400,l,0,2,2,1,0,25,25,42,,,['l'],0,[0.1670418492085446],2018_Jul_09_1440,60.0371942741,go-nogo,001,46,
logos/2.jpg,properties2.xlsx,frogs/ab20.jpg,0,0,400,l,0,2,2,1,0,26,26,19,,,['l'],0,[0.08386396489731851],2018_Jul_09_1440,60.0371942741,go-nogo,001,46,
logos/2.jpg,properties2.xlsx,logos/2.jpg,0,0,400,a,0,2,2,1,0,27,27,87,,,['a'],0,[0.3004321852586145],2018_Jul_09_1440,60.0371942741,go-nogo,001,46,
logos/2.jpg,properties2.xlsx,frogs/ab3.jpg,0,0,400,l,0,2,2,1,0,28,28,2,,,['l'],0,[0.06729392409033608],2018_Jul_09_1440,60.0371942741,go-nogo,001,46,
logos/2.jpg,properties2.xlsx,frogs/ab81.jpg,0,0,400,l,0,2,2,1,0,29,29,79,,,['l'],0,[0.13353995395482343],2018_Jul_09_1440,60.0371942741,go-nogo,001,46,
logos/2.jpg,properties2.xlsx,frogs/ab67.jpg,0,0,400,l,0,2,2,1,0,30,30,65,,,['l'],0,[0.2170586030006234],2018_Jul_09_1440,60.0371942741,go-nogo,001,46,
logos/2.jpg,properties2.xlsx,frogs/ab66.jpg,0,0,400,l,0,2,2,1,0,31,31,64,,,['l'],0,[0.0672376040420204],2018_Jul_09_1440,60.0371942741,go-nogo,001,46,
logos/2.jpg,properties2.xlsx,frogs/ab49.jpg,0,0,400,l,0,2,2,1,0,32,32,48,,,['l'],0,[0.08377635593205923],2018_Jul_09_1440,60.0371942741,go-nogo,001,46,
logos/2.jpg,properties2.xlsx,frogs/ab61.jpg,0,0,400,l,0,2,2,1,0,33,33,59,,,['l'],0,[0.11709336214153154],2018_Jul_09_1440,60.0371942741,go-nogo,001,46,
logos/2.jpg,properties2.xlsx,frogs/ab48.jpg,0,0,400,l,0,2,2,1,0,34,34,47,,,['l'],0,[0.050157838357336004],2018_Jul_09_1440,60.0371942741,go-nogo,001,46,
logos/2.jpg,properties2.xlsx,frogs/ab41.jpg,0,0,400,l,0,2,2,1,0,35,35,40,,,['l'],0,[0.43364047670547734],2018_Jul_09_1440,60.0371942741,go-nogo,001,46,
logos/2.jpg,properties2.xlsx,frogs/ab31.jpg,0,0,400,l,0,2,2,1,0,36,36,30,,,['l'],0,[0.2171592964205047],2018_Jul_09_1440,60.0371942741,go-nogo,001,46,
logos/2.jpg,properties2.xlsx,frogs/ab76.jpg,0,0,400,l,0,2,2,1,0,37,37,74,,,['l'],0,[0.10033331228441966],2018_Jul_09_1440,60.0371942741,go-nogo,001,46,
logos/2.jpg,properties2.xlsx,logos/2.jpg,0,0,400,a,0,2,2,1,0,38,38,83,,,['a'],0,[0.20072351350609097],2018_Jul_09_1440,60.0371942741,go-nogo,001,46,
logos/2.jpg,properties2.xlsx,frogs/ab75.jpg,0,0,400,l,0,2,2,1,0,39,39,73,,,['l'],0,[0.03337161958916113],2018_Jul_09_1440,60.0371942741,go-nogo,001,46,
logos/2.jpg,properties2.xlsx,frogs/ab65.jpg,0,0,400,l,0,2,2,1,0,40,40,63,,,['l'],0,[0.017236210263945395],2018_Jul_09_1440,60.0371942741,go-nogo,001,46,
logos/2.jpg,properties2.xlsx,frogs/ab5.jpg,0,0,400,l,0,2,2,1,0,41,41,4,,,['l'],0,[0.05032907405802689],2018_Jul_09_1440,60.0371942741,go-nogo,001,46,
logos/2.jpg,properties2.xlsx,logos/2.jpg,0,0,400,a,0,2,2,1,0,42,42,85,,,['a'],0,[0.10040385456704826],2018_Jul_09_1440,60.0371942741,go-nogo,001,46,
logos/2.jpg,properties2.xlsx,frogs/ab23.jpg,0,0,400,l,0,2,2,1,0,43,43,22,,,['l'],0,[0.4336916767497314],2018_Jul_09_1440,60.0371942741,go-nogo,001,46,
logos/2.jpg,properties2.xlsx,frogs/ab14.jpg,0,0,400,l,0,2,2,1,0,44,44,13,,,['l'],0,[0.3001471716816013],2018_Jul_09_1440,60.0371942741,go-nogo,001,46,
logos/2.jpg,properties2.xlsx,frogs/ab57.jpg,0,0,400,l,0,2,2,1,0,45,45,56,,,['l'],0,[0.4332769563970942],2018_Jul_09_1440,60.0371942741,go-nogo,001,46,
logos/2.jpg,properties2.xlsx,frogs/ab44.jpg,0,0,400,l,0,2,2,1,0,46,46,43,,,['l'],0,[0.21700057628368086],2018_Jul_09_1440,60.0371942741,go-nogo,001,46,
logos/2.jpg,properties2.xlsx,frogs/ab37.jpg,0,0,400,l,0,2,2,1,0,47,47,36,,,['l'],0,[0.10050397909617459],2018_Jul_09_1440,60.0371942741,go-nogo,001,46,
logos/2.jpg,properties2.xlsx,frogs/ab69.jpg,0,0,400,l,0,2,2,1,0,48,48,67,,,['l'],0,[0.11687377084308537],2018_Jul_09_1440,60.0371942741,go-nogo,001,46,
logos/2.jpg,properties2.xlsx,frogs/ab42.jpg,0,0,400,l,0,2,2,1,0,49,49,41,,,['l'],0,[0.11711270438172505],2018_Jul_09_1440,60.0371942741,go-nogo,001,46,
logos/2.jpg,properties2.xlsx,logos/2.jpg,0,0,400,a,0,2,2,1,0,50,50,89,,,['a'],0,[0.033894428923304076],2018_Jul_09_1440,60.0371942741,go-nogo,001,46,
logos/2.jpg,properties2.xlsx,frogs/ab17.jpg,0,0,400,l,0,2,2,1,0,51,51,16,,,['l'],0,[0.4000651947226288],2018_Jul_09_1440,60.0371942741,go-nogo,001,46,
logos/2.jpg,properties2.xlsx,frogs/ab19.jpg,0,0,400,l,0,2,2,1,0,52,52,18,,,['l'],0,[0.2168993139766826],2018_Jul_09_1440,60.0371942741,go-nogo,001,46,
logos/2.jpg,properties2.xlsx,frogs/ab10.jpg,0,0,400,l,0,2,2,1,0,53,53,9,,,['l'],0,[0.16712888928304892],2018_Jul_09_1440,60.0371942741,go-nogo,001,46,
logos/2.jpg,properties2.xlsx,frogs/ab15.jpg,0,0,400,l,0,2,2,1,0,54,54,14,,,['l'],0,[0.25001265778882953],2018_Jul_09_1440,60.0371942741,go-nogo,001,46,
logos/2.jpg,properties2.xlsx,frogs/ab64.jpg,0,0,400,l,0,2,2,1,0,55,55,62,,,['l'],0,[0.017178752437757794],2018_Jul_09_1440,60.0371942741,go-nogo,001,46,
logos/2.jpg,properties2.xlsx,frogs/ab6.jpg,0,0,400,l,0,2,2,1,0,56,56,5,,,['l'],0,[0.5165947874957055],2018_Jul_09_1440,60.0371942741,go-nogo,001,46,
logos/2.jpg,properties2.xlsx,frogs/ab33.jpg,0,0,400,l,0,2,2,1,0,57,57,32,,,['l'],0,[0.23349267924822925],2018_Jul_09_1440,60.0371942741,go-nogo,001,46,
logos/2.jpg,properties2.xlsx,frogs/ab25.jpg,0,0,400,l,0,2,2,1,0,58,58,24,,,['l'],0,[0.23380556840311328],2018_Jul_09_1440,60.0371942741,go-nogo,001,46,
logos/2.jpg,properties2.xlsx,frogs/ab12.jpg,0,0,400,l,0,2,2,1,0,59,59,11,,,['l'],0,[0.18396118809141626],2018_Jul_09_1440,60.0371942741,go-nogo,001,46,
logos/2.jpg,properties2.xlsx,logos/2.jpg,0,0,400,a,0,2,2,1,0,60,60,80,,,['a'],0,[0.20038616210695182],2018_Jul_09_1440,60.0371942741,go-nogo,001,46,
logos/2.jpg,properties2.xlsx,frogs/ab72.jpg,0,0,400,l,0,2,2,1,0,61,61,70,,,['l'],0,[0.1501464036791731],2018_Jul_09_1440,60.0371942741,go-nogo,001,46,
logos/2.jpg,properties2.xlsx,frogs/ab51.jpg,0,0,400,l,0,2,2,1,0,62,62,50,,,['l'],0,[0.11701542429727851],2018_Jul_09_1440,60.0371942741,go-nogo,001,46,
logos/2.jpg,properties2.xlsx,logos/2.jpg,0,0,400,a,0,2,2,1,0,63,63,82,,,['a'],0,[0.11774303380843776],2018_Jul_09_1440,60.0371942741,go-nogo,001,46,
logos/2.jpg,properties2.xlsx,logos/2.jpg,0,0,400,a,0,2,2,1,0,64,64,86,,,['a'],0,[0.15034039495731122],2018_Jul_09_1440,60.0371942741,go-nogo,001,46,
logos/2.jpg,properties2.xlsx,frogs/ab60.jpg,0,0,400,l,0,2,2,1,0,65,65,58,,,['l'],0,[0.0005688893743354129],2018_Jul_09_1440,60.0371942741,go-nogo,001,46,
logos/2.jpg,properties2.xlsx,frogs/ab36.jpg,0,0,400,l,0,2,2,1,0,66,66,35,,,['l'],0,[0.017194112449942622],2018_Jul_09_1440,60.0371942741,go-nogo,001,46,
logos/2.jpg,properties2.xlsx,frogs/ab35.jpg,0,0,400,l,0,2,2,1,0,67,67,34,,,['l'],0,[0.050540132015157724],2018_Jul_09_1440,60.0371942741,go-nogo,001,46,
logos/2.jpg,properties2.xlsx,frogs/ab2.jpg,0,0,400,l,0,2,2,1,0,68,68,1,,,['l'],0,[0.6002300588643266],2018_Jul_09_1440,60.0371942741,go-nogo,001,46,
logos/2.jpg,properties2.xlsx,frogs/ab62.jpg,0,0,400,l,0,2,2,1,0,69,69,60,,,['l'],0,[0.1672739560726768],2018_Jul_09_1440,60.0371942741,go-nogo,001,46,
logos/2.jpg,properties2.xlsx,frogs/ab74.jpg,0,0,400,l,0,2,2,1,0,70,70,72,,,['l'],0,[0.21710752748731466],2018_Jul_09_1440,60.0371942741,go-nogo,001,46,
logos/2.jpg,properties2.xlsx,frogs/ab71.jpg,0,0,400,l,0,2,2,1,0,71,71,69,,,['l'],0,[0.08378147593793983],2018_Jul_09_1440,60.0371942741,go-nogo,001,46,
logos/2.jpg,properties2.xlsx,frogs/ab24.jpg,0,0,400,l,0,2,2,1,0,72,72,23,,,['l'],0,[0.13349102946813218],2018_Jul_09_1440,60.0371942741,go-nogo,001,46,
logos/2.jpg,properties2.xlsx,frogs/ab4.jpg,0,0,400,l,0,2,2,1,0,73,73,3,,,['l'],0,[0.06708514168894908],2018_Jul_09_1440,60.0371942741,go-nogo,001,46,
logos/2.jpg,properties2.xlsx,logos/2.jpg,0,0,400,a,0,2,2,1,0,74,74,88,,,['a'],0,[0.16716416042436322],2018_Jul_09_1440,60.0371942741,go-nogo,001,46,
logos/2.jpg,properties2.xlsx,frogs/ab55.jpg,0,0,400,l,0,2,2,1,0,75,75,54,,,['l'],0,[0.5335710153140099],2018_Jul_09_1440,60.0371942741,go-nogo,001,46,
logos/2.jpg,properties2.xlsx,frogs/ab8.jpg,0,0,400,l,0,2,2,1,0,76,76,7,,,['l'],0,[0.4502935753607744],2018_Jul_09_1440,60.0371942741,go-nogo,001,46,
logos/2.jpg,properties2.xlsx,frogs/ab1.jpg,0,0,400,l,0,2,2,1,0,77,77,0,,,['l'],0,[0.6836167255751207],2018_Jul_09_1440,60.0371942741,go-nogo,001,46,
logos/2.jpg,properties2.xlsx,logos/2.jpg,0,0,400,a,0,2,2,1,0,78,78,84,,,['a'],0,[0.11729986898535572],2018_Jul_09_1440,60.0371942741,go-nogo,001,46,
logos/2.jpg,properties2.xlsx,frogs/ab39.jpg,0,0,400,l,0,2,2,1,0,79,79,38,,,['l'],0,[0.05036206964359735],2018_Jul_09_1440,60.0371942741,go-nogo,001,46,
logos/2.jpg,properties2.xlsx,frogs/ab9.jpg,0,0,400,l,0,2,2,1,0,80,80,8,,,['l'],0,[0.1499672035279218],2018_Jul_09_1440,60.0371942741,go-nogo,001,46,
logos/2.jpg,properties2.xlsx,frogs/ab34.jpg,0,0,400,l,0,2,2,1,0,81,81,33,,,['l'],0,[0.1004123879083636],2018_Jul_09_1440,60.0371942741,go-nogo,001,46,
logos/2.jpg,properties2.xlsx,frogs/ab21.jpg,0,0,400,l,0,2,2,1,0,82,82,20,,,['l'],0,[0.06728197741358599],2018_Jul_09_1440,60.0371942741,go-nogo,001,46,
logos/2.jpg,properties2.xlsx,frogs/ab18.jpg,0,0,400,l,0,2,2,1,0,83,83,17,,,['l'],0,[0.11694658868327679],2018_Jul_09_1440,60.0371942741,go-nogo,001,46,
logos/2.jpg,properties2.xlsx,logos/2.jpg,0,0,400,a,0,2,2,1,0,84,84,81,,,['a'],0,[0.08423146743189136],2018_Jul_09_1440,60.0371942741,go-nogo,001,46,
logos/2.jpg,properties2.xlsx,frogs/ab22.jpg,0,0,400,l,0,2,2,1,0,85,85,21,,,['l'],0,[0.0005717338226531865],2018_Jul_09_1440,60.0371942741,go-nogo,001,46,
logos/2.jpg,properties2.xlsx,frogs/ab53.jpg,0,0,400,l,0,2,2,1,0,86,86,52,,,['l'],0,[0.18378426349590882],2018_Jul_09_1440,60.0371942741,go-nogo,001,46,
logos/2.jpg,properties2.xlsx,frogs/ab38.jpg,0,0,400,l,0,2,2,1,0,87,87,37,,,['l'],0,[0.06718697288852127],2018_Jul_09_1440,60.0371942741,go-nogo,001,46,
logos/2.jpg,properties2.xlsx,frogs/ab32.jpg,0,0,400,l,0,2,2,1,0,88,88,31,,,['l'],0,[0.10043002347811125],2018_Jul_09_1440,60.0371942741,go-nogo,001,46,
logos/2.jpg,properties2.xlsx,frogs/ab58.jpg,0,0,400,l,0,2,2,1,0,89,89,57,,,['l'],0,[0.16693888023291947],2018_Jul_09_1440,60.0371942741,go-nogo,001,46,
logos/2.jpg,properties2.xlsx,,,,,,0,2,2,1,,,,,,,,,,2018_Jul_09_1440,60.0371942741,go-nogo,001,46,
logos/3.jpg,properties3.xlsx,frogs/ab40.jpg,0,0,400,l,0,3,3,2,0,0,0,39,space,1.26006948415,['l'],0,[0.583557617968836],2018_Jul_09_1440,60.0371942741,go-nogo,001,46,
logos/3.jpg,properties3.xlsx,frogs/ab30.jpg,0,0,400,l,0,3,3,2,0,1,1,29,,,['l'],0,[0.1337885586108314],2018_Jul_09_1440,60.0371942741,go-nogo,001,46,
logos/3.jpg,properties3.xlsx,frogs/ab26.jpg,0,0,400,l,0,3,3,2,0,2,2,25,,,['l'],0,[0.16697358248347882],2018_Jul_09_1440,60.0371942741,go-nogo,001,46,
logos/3.jpg,properties3.xlsx,frogs/ab24.jpg,0,0,400,l,0,3,3,2,0,3,3,23,,,['l'],0,[0.20032585983426543],2018_Jul_09_1440,60.0371942741,go-nogo,001,46,
logos/3.jpg,properties3.xlsx,frogs/ab6.jpg,0,0,400,l,0,3,3,2,0,4,4,5,,,['l'],0,[0.21683218503130774],2018_Jul_09_1440,60.0371942741,go-nogo,001,46,
logos/3.jpg,properties3.xlsx,frogs/ab65.jpg,0,0,400,l,0,3,3,2,0,5,5,63,,,['l'],0,[0.21696132291799586],2018_Jul_09_1440,60.0371942741,go-nogo,001,46,
logos/3.jpg,properties3.xlsx,frogs/ab50.jpg,0,0,400,l,0,3,3,2,0,6,6,49,,,['l'],0,[0.1840283170386101],2018_Jul_09_1440,60.0371942741,go-nogo,001,46,
logos/3.jpg,properties3.xlsx,frogs/ab57.jpg,0,0,400,l,0,3,3,2,0,7,7,56,,,['l'],0,[0.15045360394287854],2018_Jul_09_1440,60.0371942741,go-nogo,001,46,
logos/3.jpg,properties3.xlsx,frogs/ab2.jpg,0,0,400,l,0,3,3,2,0,8,8,1,,,['l'],0,[0.3835901584407111],2018_Jul_09_1440,60.0371942741,go-nogo,001,46,
logos/3.jpg,properties3.xlsx,frogs/ab5.jpg,0,0,400,l,0,3,3,2,0,9,9,4,,,['l'],0,[0.28376315770037763],2018_Jul_09_1440,60.0371942741,go-nogo,001,46,
logos/3.jpg,properties3.xlsx,frogs/ab60.jpg,0,0,400,l,0,3,3,2,0,10,10,58,,,['l'],0,[0.0005649071481457213],2018_Jul_09_1440,60.0371942741,go-nogo,001,46,
logos/3.jpg,properties3.xlsx,frogs/ab69.jpg,0,0,400,l,0,3,3,2,0,11,11,67,,,['l'],0,[0.13334368712094147],2018_Jul_09_1440,60.0371942741,go-nogo,001,46,
logos/3.jpg,properties3.xlsx,logos/3.jpg,0,0,400,a,0,3,3,2,0,12,12,81,,,['a'],0,[0.06699639494763687],2018_Jul_09_1440,60.0371942741,go-nogo,001,46,
logos/3.jpg,properties3.xlsx,frogs/ab25.jpg,0,0,400,l,0,3,3,2,0,13,13,24,,,['l'],0,[0.017342592576824245],2018_Jul_09_1440,60.0371942741,go-nogo,001,46,
logos/3.jpg,properties3.xlsx,frogs/ab1.jpg,0,0,400,l,0,3,3,2,0,14,14,0,,,['l'],0,[0.017169081316751544],2018_Jul_09_1440,60.0371942741,go-nogo,001,46,
logos/3.jpg,properties3.xlsx,frogs/ab27.jpg,0,0,400,l,0,3,3,2,0,15,15,26,,,['l'],0,[0.033614535352171515],2018_Jul_09_1440,60.0371942741,go-nogo,001,46,
logos/3.jpg,properties3.xlsx,frogs/ab68.jpg,0,0,400,l,0,3,3,2,0,16,16,66,,,['l'],0,[0.5503452874054346],2018_Jul_09_1440,60.0371942741,go-nogo,001,46,
logos/3.jpg,properties3.xlsx,frogs/ab34.jpg,0,0,400,l,0,3,3,2,0,17,17,33,,,['l'],0,[0.4001630436941923],2018_Jul_09_1440,60.0371942741,go-nogo,001,46,
logos/3.jpg,properties3.xlsx,frogs/ab61.jpg,0,0,400,l,0,3,3,2,0,18,18,59,,,['l'],0,[0.4335904144409142],2018_Jul_09_1440,60.0371942741,go-nogo,001,46,
logos/3.jpg,properties3.xlsx,logos/3.jpg,0,0,400,a,0,3,3,2,0,19,19,83,,,['a'],0,[0.06735991525783902],2018_Jul_09_1440,60.0371942741,go-nogo,001,46,
logos/3.jpg,properties3.xlsx,frogs/ab55.jpg,0,0,400,l,0,3,3,2,0,20,20,54,,,['l'],0,[0.0005637693702738034],2018_Jul_09_1440,60.0371942741,go-nogo,001,46,
logos/3.jpg,properties3.xlsx,frogs/ab78.jpg,0,0,400,l,0,3,3,2,0,21,21,76,,,['l'],0,[0.25041429368684476],2018_Jul_09_1440,60.0371942741,go-nogo,001,46,
logos/3.jpg,properties3.xlsx,logos/3.jpg,0,0,400,a,0,3,3,2,0,22,22,87,,,['a'],0,[0.1335467806275119],2018_Jul_09_1440,60.0371942741,go-nogo,001,46,
logos/3.jpg,properties3.xlsx,frogs/ab44.jpg,0,0,400,l,0,3,3,2,0,23,23,43,,,['l'],0,[0.017315285886070342],2018_Jul_09_1440,60.0371942741,go-nogo,001,46,
logos/3.jpg,properties3.xlsx,frogs/ab12.jpg,0,0,400,l,0,3,3,2,0,24,24,11,,,['l'],0,[0.06710107059370785],2018_Jul_09_1440,60.0371942741,go-nogo,001,46,
logos/3.jpg,properties3.xlsx,frogs/ab52.jpg,0,0,400,l,0,3,3,2,0,25,25,51,,,['l'],0,[0.06713520395533124],2018_Jul_09_1440,60.0371942741,go-nogo,001,46,
logos/3.jpg,properties3.xlsx,frogs/ab67.jpg,0,0,400,l,0,3,3,2,0,26,26,65,,,['l'],0,[0.08380195595600526],2018_Jul_09_1440,60.0371942741,go-nogo,001,46,
logos/3.jpg,properties3.xlsx,frogs/ab63.jpg,0,0,400,l,0,3,3,2,0,27,27,61,,,['l'],0,[0.0671943684501457],2018_Jul_09_1440,60.0371942741,go-nogo,001,46,
logos/3.jpg,properties3.xlsx,frogs/ab74.jpg,0,0,400,l,0,3,3,2,0,28,28,72,,,['l'],0,[0.10058589916661731],2018_Jul_09_1440,60.0371942741,go-nogo,001,46,
logos/3.jpg,properties3.xlsx,frogs/ab39.jpg,0,0,400,l,0,3,3,2,0,29,29,38,,,['l'],0,[0.1170626421153429],2018_Jul_09_1440,60.0371942741,go-nogo,001,46,
logos/3.jpg,properties3.xlsx,frogs/ab13.jpg,0,0,400,l,0,3,3,2,0,30,30,12,,,['l'],0,[0.10055631691830058],2018_Jul_09_1440,60.0371942741,go-nogo,001,46,
logos/3.jpg,properties3.xlsx,logos/3.jpg,0,0,400,a,0,3,3,2,0,31,31,80,,,['a'],0,[0.05050258531809959],2018_Jul_09_1440,60.0371942741,go-nogo,001,46,
logos/3.jpg,properties3.xlsx,frogs/ab54.jpg,0,0,400,l,0,3,3,2,0,32,32,53,,,['l'],0,[0.5336506598268898],2018_Jul_09_1440,60.0371942741,go-nogo,001,46,
logos/3.jpg,properties3.xlsx,frogs/ab53.jpg,0,0,400,l,0,3,3,2,0,33,33,52,,,['l'],0,[0.08384291599031712],2018_Jul_09_1440,60.0371942741,go-nogo,001,46,
logos/3.jpg,properties3.xlsx,frogs/ab70.jpg,0,0,400,l,0,3,3,2,0,34,34,68,,,['l'],0,[0.06690935487313254],2018_Jul_09_1440,60.0371942741,go-nogo,001,46,
logos/3.jpg,properties3.xlsx,frogs/ab47.jpg,0,0,400,l,0,3,3,2,0,35,35,46,,,['l'],0,[0.15057648404763313],2018_Jul_09_1440,60.0371942741,go-nogo,001,46,
logos/3.jpg,properties3.xlsx,logos/3.jpg,0,0,400,a,0,3,3,2,0,36,36,85,,,['l'],0,[0.6001634988060687],2018_Jul_09_1440,60.0371942741,go-nogo,001,46,
logos/3.jpg,properties3.xlsx,frogs/ab62.jpg,0,0,400,l,0,3,3,2,0,37,37,60,,,['l'],0,[0.25016113791389216],2018_Jul_09_1440,60.0371942741,go-nogo,001,46,
logos/3.jpg,properties3.xlsx,frogs/ab19.jpg,0,0,400,l,0,3,3,2,0,38,38,18,,,['l'],0,[0.18366764117490675],2018_Jul_09_1440,60.0371942741,go-nogo,001,46,
logos/3.jpg,properties3.xlsx,frogs/ab28.jpg,0,0,400,l,0,3,3,2,0,39,39,27,,,['l'],0,[0.23333395911140542],2018_Jul_09_1440,60.0371942741,go-nogo,001,46,
logos/3.jpg,properties3.xlsx,frogs/ab48.jpg,0,0,400,l,0,3,3,2,0,40,40,47,,,['l'],0,[0.20025247310513805],2018_Jul_09_1440,60.0371942741,go-nogo,001,46,
logos/3.jpg,properties3.xlsx,frogs/ab45.jpg,0,0,400,l,0,3,3,2,0,41,41,44,,,['l'],0,[0.2504359114827821],2018_Jul_09_1440,60.0371942741,go-nogo,001,46,
logos/3.jpg,properties3.xlsx,frogs/ab73.jpg,0,0,400,l,0,3,3,2,0,42,42,71,,,['l'],0,[0.2003730776523298],2018_Jul_09_1440,60.0371942741,go-nogo,001,46,
logos/3.jpg,properties3.xlsx,frogs/ab4.jpg,0,0,400,l,0,3,3,2,0,43,43,3,,,['l'],0,[0.3003849674405501],2018_Jul_09_1440,60.0371942741,go-nogo,001,46,
logos/3.jpg,properties3.xlsx,frogs/ab75.jpg,0,0,400,l,0,3,3,2,0,44,44,73,,,['l'],0,[0.08394019607294467],2018_Jul_09_1440,60.0371942741,go-nogo,001,46,
logos/3.jpg,properties3.xlsx,frogs/ab8.jpg,0,0,400,l,0,3,3,2,0,45,45,7,,,['l'],0,[0.0840090316869464],2018_Jul_09_1440,60.0371942741,go-nogo,001,46,
logos/3.jpg,properties3.xlsx,frogs/ab56.jpg,0,0,400,l,0,3,3,2,0,46,46,55,,,['l'],0,[0.3004492519376072],2018_Jul_09_1440,60.0371942741,go-nogo,001,46,
logos/3.jpg,properties3.xlsx,frogs/ab7.jpg,0,0,400,l,0,3,3,2,0,47,47,6,,,['l'],0,[0.017121294609751203],2018_Jul_09_1440,60.0371942741,go-nogo,001,46,
logos/3.jpg,properties3.xlsx,frogs/ab10.jpg,0,0,400,l,0,3,3,2,0,48,48,9,,,['l'],0,[0.13383350087133294],2018_Jul_09_1440,60.0371942741,go-nogo,001,46,
logos/3.jpg,properties3.xlsx,logos/3.jpg,0,0,400,a,0,3,3,2,0,49,49,84,,,['a'],0,[0.20038331766045303],2018_Jul_09_1440,60.0371942741,go-nogo,001,46,
logos/3.jpg,properties3.xlsx,frogs/ab15.jpg,0,0,400,l,0,3,3,2,0,50,50,14,,,['l'],0,[0.18377629904534842],2018_Jul_09_1440,60.0371942741,go-nogo,001,46,
logos/3.jpg,properties3.xlsx,frogs/ab72.jpg,0,0,400,l,0,3,3,2,0,51,51,70,,,['l'],0,[0.2670247256392031],2018_Jul_09_1440,60.0371942741,go-nogo,001,46,
logos/3.jpg,properties3.xlsx,frogs/ab16.jpg,0,0,400,l,0,3,3,2,0,52,52,15,,,['l'],0,[0.23384937288574292],2018_Jul_09_1440,60.0371942741,go-nogo,001,46,
logos/3.jpg,properties3.xlsx,logos/3.jpg,0,0,400,a,0,3,3,2,0,53,53,82,,,['a'],0,[0.13373906523520418],2018_Jul_09_1440,60.0371942741,go-nogo,001,46,
logos/3.jpg,properties3.xlsx,frogs/ab58.jpg,0,0,400,l,0,3,3,2,0,54,54,57,,,['l'],0,[0.2168105672335514],2018_Jul_09_1440,60.0371942741,go-nogo,001,46,
logos/3.jpg,properties3.xlsx,frogs/ab18.jpg,0,0,400,l,0,3,3,2,0,55,55,17,,,['l'],0,[0.20020070417012903],2018_Jul_09_1440,60.0371942741,go-nogo,001,46,
logos/3.jpg,properties3.xlsx,frogs/ab11.jpg,0,0,400,l,0,3,3,2,0,56,56,10,,,['l'],0,[0.450220757522402],2018_Jul_09_1440,60.0371942741,go-nogo,001,46,
logos/3.jpg,properties3.xlsx,frogs/ab9.jpg,0,0,400,l,0,3,3,2,0,57,57,8,,,['l'],0,[0.18410397932348133],2018_Jul_09_1440,60.0371942741,go-nogo,001,46,
logos/3.jpg,properties3.xlsx,frogs/ab23.jpg,0,0,400,l,0,3,3,2,0,58,58,22,,,['l'],0,[0.7168563628274569],2018_Jul_09_1440,60.0371942741,go-nogo,001,46,
logos/3.jpg,properties3.xlsx,frogs/ab32.jpg,0,0,400,l,0,3,3,2,0,59,59,31,,,['l'],0,[0.2170483629925002],2018_Jul_09_1440,60.0371942741,go-nogo,001,46,
logos/3.jpg,properties3.xlsx,frogs/ab51.jpg,0,0,400,l,0,3,3,2,0,60,60,50,,,['l'],0,[0.20022914863875485],2018_Jul_09_1440,60.0371942741,go-nogo,001,46,
logos/3.jpg,properties3.xlsx,frogs/ab77.jpg,0,0,400,l,0,3,3,2,0,61,61,75,,,['l'],0,[0.1171695933171577],2018_Jul_09_1440,60.0371942741,go-nogo,001,46,
logos/3.jpg,properties3.xlsx,frogs/ab80.jpg,0,0,400,l,0,3,3,2,0,62,62,78,,,['l'],0,[0.18367674340515805],2018_Jul_09_1440,60.0371942741,go-nogo,001,46,
logos/3.jpg,properties3.xlsx,frogs/ab81.jpg,0,0,400,l,0,3,3,2,0,63,63,79,,,['l'],0,[0.20055910447626957],2018_Jul_09_1440,60.0371942741,go-nogo,001,46,
logos/3.jpg,properties3.xlsx,frogs/ab43.jpg,0,0,400,l,0,3,3,2,0,64,64,42,,,['l'],0,[0.23369747942160757],2018_Jul_09_1440,60.0371942741,go-nogo,001,46,
logos/3.jpg,properties3.xlsx,frogs/ab64.jpg,0,0,400,l,0,3,3,2,0,65,65,62,,,['l'],0,[0.46679705611131794],2018_Jul_09_1440,60.0371942741,go-nogo,001,46,
logos/3.jpg,properties3.xlsx,frogs/ab79.jpg,0,0,400,l,0,3,3,2,0,66,66,77,,,['l'],0,[0.20051928221982962],2018_Jul_09_1440,60.0371942741,go-nogo,001,46,
logos/3.jpg,properties3.xlsx,frogs/ab49.jpg,0,0,400,l,0,3,3,2,0,67,67,48,,,['l'],0,[0.15075397753207653],2018_Jul_09_1440,60.0371942741,go-nogo,001,46,
logos/3.jpg,properties3.xlsx,logos/3.jpg,0,0,400,a,0,3,3,2,0,68,68,89,,,['a'],0,[0.08368078251805855],2018_Jul_09_1440,60.0371942741,go-nogo,001,46,
logos/3.jpg,properties3.xlsx,frogs/ab42.jpg,0,0,400,l,0,3,3,2,0,69,69,41,,,['l'],0,[0.1671499381900503],2018_Jul_09_1440,60.0371942741,go-nogo,001,46,
logos/3.jpg,properties3.xlsx,frogs/ab21.jpg,0,0,400,l,0,3,3,2,0,70,70,20,,,['l'],0,[0.36691430421160476],2018_Jul_09_1440,60.0371942741,go-nogo,001,46,
logos/3.jpg,properties3.xlsx,logos/3.jpg,0,0,400,a,0,3,3,2,0,71,71,88,,,['a'],0,[0.06715966619776736],2018_Jul_09_1440,60.0371942741,go-nogo,001,46,
logos/3.jpg,properties3.xlsx,frogs/ab36.jpg,0,0,400,l,0,3,3,2,0,72,72,35,,,['l'],0,[0.20041801991283137],2018_Jul_09_1440,60.0371942741,go-nogo,001,46,
logos/3.jpg,properties3.xlsx,frogs/ab46.jpg,0,0,400,l,0,3,3,2,0,73,73,45,,,['l'],0,[0.16701397363067372],2018_Jul_09_1440,60.0371942741,go-nogo,001,46,
logos/3.jpg,properties3.xlsx,frogs/ab29.jpg,0,0,400,l,0,3,3,2,0,74,74,28,,,['l'],0,[0.23380898174036702],2018_Jul_09_1440,60.0371942741,go-nogo,001,46,
logos/3.jpg,properties3.xlsx,frogs/ab71.jpg,0,0,400,l,0,3,3,2,0,75,75,69,,,['l'],0,[0.35023048553011904],2018_Jul_09_1440,60.0371942741,go-nogo,001,46,
logos/3.jpg,properties3.xlsx,frogs/ab22.jpg,0,0,400,l,0,3,3,2,0,76,76,21,,,['l'],0,[0.6836013655629358],2018_Jul_09_1440,60.0371942741,go-nogo,001,46,
logos/3.jpg,properties3.xlsx,frogs/ab38.jpg,0,0,400,l,0,3,3,2,0,77,77,37,,,['l'],0,[0.7501403734513588],2018_Jul_09_1440,60.0371942741,go-nogo,001,46,
logos/3.jpg,properties3.xlsx,frogs/ab37.jpg,0,0,400,l,0,3,3,2,0,78,78,36,,,['l'],0,[0.4499840995431441],2018_Jul_09_1440,60.0371942741,go-nogo,001,46,
logos/3.jpg,properties3.xlsx,frogs/ab31.jpg,0,0,400,l,0,3,3,2,0,79,79,30,,,['l'],0,[0.2505309160078468],2018_Jul_09_1440,60.0371942741,go-nogo,001,46,
logos/3.jpg,properties3.xlsx,frogs/ab20.jpg,0,0,400,l,0,3,3,2,0,80,80,19,,,['l'],0,[0.11713261550903553],2018_Jul_09_1440,60.0371942741,go-nogo,001,46,
logos/3.jpg,properties3.xlsx,frogs/ab41.jpg,0,0,400,l,0,3,3,2,0,81,81,40,,,['l'],0,[0.2169385673441866],2018_Jul_09_1440,60.0371942741,go-nogo,001,46,
logos/3.jpg,properties3.xlsx,frogs/ab76.jpg,0,0,400,l,0,3,3,2,0,82,82,74,,,['l'],0,[0.1837620768110355],2018_Jul_09_1440,60.0371942741,go-nogo,001,46,
logos/3.jpg,properties3.xlsx,frogs/ab14.jpg,0,0,400,l,0,3,3,2,0,83,83,13,,,['l'],0,[0.13378116304920695],2018_Jul_09_1440,60.0371942741,go-nogo,001,46,
logos/3.jpg,properties3.xlsx,logos/3.jpg,0,0,400,a,0,3,3,2,0,84,84,86,,,['l'],0,[0.666958506915762],2018_Jul_09_1440,60.0371942741,go-nogo,001,46,
logos/3.jpg,properties3.xlsx,frogs/ab17.jpg,0,0,400,l,0,3,3,2,0,85,85,16,,,['l'],0,[0.15052755956094188],2018_Jul_09_1440,60.0371942741,go-nogo,001,46,
logos/3.jpg,properties3.xlsx,frogs/ab33.jpg,0,0,400,l,0,3,3,2,0,86,86,32,,,['l'],0,[0.18378255682728195],2018_Jul_09_1440,60.0371942741,go-nogo,001,46,
logos/3.jpg,properties3.xlsx,frogs/ab35.jpg,0,0,400,l,0,3,3,2,0,87,87,34,,,['l'],0,[0.15035063496725343],2018_Jul_09_1440,60.0371942741,go-nogo,001,46,
logos/3.jpg,properties3.xlsx,frogs/ab66.jpg,0,0,400,l,0,3,3,2,0,88,88,64,,,['l'],0,[0.21708135857625166],2018_Jul_09_1440,60.0371942741,go-nogo,001,46,
logos/3.jpg,properties3.xlsx,frogs/ab3.jpg,0,0,400,l,0,3,3,2,0,89,89,2,,,['l'],0,[0.1505207328882534],2018_Jul_09_1440,60.0371942741,go-nogo,001,46,
logos/3.jpg,properties3.xlsx,,,,,,0,3,3,2,,,,,,,,,,2018_Jul_09_1440,60.0371942741,go-nogo,001,46,
