pix,source,image1,x,y,size,answer,trials_2.thisRepN,trials_2.thisTrialN,trials_2.thisN,trials_2.thisIndex,trials.thisRepN,trials.thisTrialN,trials.thisN,trials.thisIndex,key_resp_3.keys,key_resp_3.rt,key_resp_2.keys,key_resp_2.corr,key_resp_2.rt,date,frameRate,expName,session,participant,
logos/4.jpg,properties4.xlsx,frogs/ab69.jpg,0,0,400,l,0,0,0,3,0,0,0,67,space,22.1844254888,['l'],0,[0.42961035831831396],2018_Jul_09_0729,57.128635381,go-nogo,001,47,
logos/4.jpg,properties4.xlsx,frogs/ab73.jpg,0,0,400,l,0,0,0,3,0,1,1,71,,,['l'],0,[0.3708452611754183],2018_Jul_09_0729,57.128635381,go-nogo,001,47,
logos/4.jpg,properties4.xlsx,frogs/ab60.jpg,0,0,400,l,0,0,0,3,0,2,2,58,,,['l'],0,[4.355538052703196],2018_Jul_09_0729,57.128635381,go-nogo,001,47,
logos/4.jpg,properties4.xlsx,frogs/ab55.jpg,0,0,400,l,0,0,0,3,0,3,3,54,,,['l'],0,[0.44747010694118217],2018_Jul_09_0729,57.128635381,go-nogo,001,47,
logos/4.jpg,properties4.xlsx,frogs/ab65.jpg,0,0,400,l,0,0,0,3,0,4,4,63,,,['l'],0,[0.4421137888493831],2018_Jul_09_0729,57.128635381,go-nogo,001,47,
logos/4.jpg,properties4.xlsx,frogs/ab74.jpg,0,0,400,l,0,0,0,3,0,5,5,72,,,['l'],0,[0.32436537916510133],2018_Jul_09_0729,57.128635381,go-nogo,001,47,
logos/4.jpg,properties4.xlsx,frogs/ab70.jpg,0,0,400,l,0,0,0,3,0,6,6,68,,,['l'],0,[0.44681947695062263],2018_Jul_09_0729,57.128635381,go-nogo,001,47,
logos/4.jpg,properties4.xlsx,frogs/ab9.jpg,0,0,400,l,0,0,0,3,0,7,7,8,,,['l'],0,[0.7336067347787321],2018_Jul_09_0729,57.128635381,go-nogo,001,47,
logos/4.jpg,properties4.xlsx,frogs/ab13.jpg,0,0,400,l,0,0,0,3,0,8,8,12,,,['l'],0,[0.42231598394573666],2018_Jul_09_0729,57.128635381,go-nogo,001,47,
logos/4.jpg,properties4.xlsx,frogs/ab52.jpg,0,0,400,l,0,0,0,3,0,9,9,51,,,['l'],0,[0.4136351161650964],2018_Jul_09_0729,57.128635381,go-nogo,001,47,
logos/4.jpg,properties4.xlsx,frogs/ab17.jpg,0,0,400,l,0,0,0,3,0,10,10,16,,,['l'],0,[0.3180322235857602],2018_Jul_09_0729,57.128635381,go-nogo,001,47,
logos/4.jpg,properties4.xlsx,frogs/ab57.jpg,0,0,400,l,0,0,0,3,0,11,11,56,,,['l'],0,[0.3497328088415088],2018_Jul_09_0729,57.128635381,go-nogo,001,47,
logos/4.jpg,properties4.xlsx,frogs/ab11.jpg,0,0,400,l,0,0,0,3,0,12,12,10,,,['l'],0,[0.8068954284099163],2018_Jul_09_0729,57.128635381,go-nogo,001,47,
logos/4.jpg,properties4.xlsx,frogs/ab12.jpg,0,0,400,l,0,0,0,3,0,13,13,11,,,['l'],0,[0.2537073191415402],2018_Jul_09_0729,57.128635381,go-nogo,001,47,
logos/4.jpg,properties4.xlsx,frogs/ab34.jpg,0,0,400,l,0,0,0,3,0,14,14,33,,,['l'],0,[0.09210653731133789],2018_Jul_09_0729,57.128635381,go-nogo,001,47,
logos/4.jpg,properties4.xlsx,frogs/ab38.jpg,0,0,400,l,0,0,0,3,0,15,15,37,,,['l'],0,[0.22327586399478605],2018_Jul_09_0729,57.128635381,go-nogo,001,47,
logos/4.jpg,properties4.xlsx,frogs/ab47.jpg,0,0,400,l,0,0,0,3,0,16,16,46,,,['l'],0,[0.6408526912127854],2018_Jul_09_0729,57.128635381,go-nogo,001,47,
logos/4.jpg,properties4.xlsx,frogs/ab75.jpg,0,0,400,l,0,0,0,3,0,17,17,73,,,['l'],0,[0.13006932467396837],2018_Jul_09_0729,57.128635381,go-nogo,001,47,
logos/4.jpg,properties4.xlsx,frogs/ab31.jpg,0,0,400,l,0,0,0,3,0,18,18,30,,,['l'],0,[0.45042203930643154],2018_Jul_09_0729,57.128635381,go-nogo,001,47,
logos/4.jpg,properties4.xlsx,frogs/ab28.jpg,0,0,400,l,0,0,0,3,0,19,19,27,,,['l'],0,[0.0014659255975857377],2018_Jul_09_0729,57.128635381,go-nogo,001,47,
logos/4.jpg,properties4.xlsx,frogs/ab56.jpg,0,0,400,l,0,0,0,3,0,20,20,55,,,['l'],0,[0.09410929958539782],2018_Jul_09_0729,57.128635381,go-nogo,001,47,
logos/4.jpg,properties4.xlsx,frogs/ab51.jpg,0,0,400,l,0,0,0,3,0,21,21,50,,,['l'],0,[0.3668955176617601],2018_Jul_09_0729,57.128635381,go-nogo,001,47,
logos/4.jpg,properties4.xlsx,logos/4.jpg,0,0,400,a,0,0,0,3,0,22,22,80,,,['a'],0,[0.46385188127169386],2018_Jul_09_0729,57.128635381,go-nogo,001,47,
logos/4.jpg,properties4.xlsx,frogs/ab16.jpg,0,0,400,l,0,0,0,3,0,23,23,15,,,['l'],0,[0.28833261561521795],2018_Jul_09_0729,57.128635381,go-nogo,001,47,
logos/4.jpg,properties4.xlsx,frogs/ab54.jpg,0,0,400,l,0,0,0,3,0,24,24,53,,,['l'],0,[0.2653789428877644],2018_Jul_09_0729,57.128635381,go-nogo,001,47,
logos/4.jpg,properties4.xlsx,logos/4.jpg,0,0,400,a,0,0,0,3,0,25,25,89,,,['a'],0,[0.34777110140566947],2018_Jul_09_0729,57.128635381,go-nogo,001,47,
logos/4.jpg,properties4.xlsx,frogs/ab76.jpg,0,0,400,l,0,0,0,3,0,26,26,74,,,['l'],0,[0.21690611605299637],2018_Jul_09_0729,57.128635381,go-nogo,001,47,
logos/4.jpg,properties4.xlsx,frogs/ab72.jpg,0,0,400,l,0,0,0,3,0,27,27,70,,,['l'],0,[0.24707160723482957],2018_Jul_09_0729,57.128635381,go-nogo,001,47,
logos/4.jpg,properties4.xlsx,logos/4.jpg,0,0,400,a,0,0,0,3,0,28,28,88,,,['a'],0,[0.25617239463463193],2018_Jul_09_0729,57.128635381,go-nogo,001,47,
logos/4.jpg,properties4.xlsx,frogs/ab36.jpg,0,0,400,l,0,0,0,3,0,29,29,35,,,['l'],0,[0.162544596940279],2018_Jul_09_0729,57.128635381,go-nogo,001,47,
logos/4.jpg,properties4.xlsx,frogs/ab19.jpg,0,0,400,l,0,0,0,3,0,30,30,18,,,['l'],0,[0.23172557516227243],2018_Jul_09_0729,57.128635381,go-nogo,001,47,
logos/4.jpg,properties4.xlsx,frogs/ab42.jpg,0,0,400,l,0,0,0,3,0,31,31,41,,,['l'],0,[0.24707919345382834],2018_Jul_09_0729,57.128635381,go-nogo,001,47,
logos/4.jpg,properties4.xlsx,frogs/ab39.jpg,0,0,400,l,0,0,0,3,0,32,32,38,,,['l'],0,[0.2778337323543383],2018_Jul_09_0729,57.128635381,go-nogo,001,47,
logos/4.jpg,properties4.xlsx,frogs/ab78.jpg,0,0,400,l,0,0,0,3,0,33,33,76,,,['l'],0,[0.307241940201493],2018_Jul_09_0729,57.128635381,go-nogo,001,47,
logos/4.jpg,properties4.xlsx,frogs/ab63.jpg,0,0,400,l,0,0,0,3,0,34,34,61,,,['l'],0,[0.2788761683405028],2018_Jul_09_0729,57.128635381,go-nogo,001,47,
logos/4.jpg,properties4.xlsx,frogs/ab33.jpg,0,0,400,l,0,0,0,3,0,35,35,32,,,['l'],0,[0.4433628377810237],2018_Jul_09_0729,57.128635381,go-nogo,001,47,
logos/4.jpg,properties4.xlsx,frogs/ab44.jpg,0,0,400,l,0,0,0,3,0,36,36,43,,,['l'],0,[0.36823515499418136],2018_Jul_09_0729,57.128635381,go-nogo,001,47,
logos/4.jpg,properties4.xlsx,logos/4.jpg,0,0,400,a,0,0,0,3,0,37,37,82,,,['a'],0,[0.3242899632023182],2018_Jul_09_0729,57.128635381,go-nogo,001,47,
logos/4.jpg,properties4.xlsx,logos/4.jpg,0,0,400,a,0,0,0,3,0,38,38,86,,,['a'],0,[0.35314839317288715],2018_Jul_09_0729,57.128635381,go-nogo,001,47,
logos/4.jpg,properties4.xlsx,frogs/ab77.jpg,0,0,400,l,0,0,0,3,0,39,39,75,,,['l'],0,[0.19752644578693435],2018_Jul_09_0729,57.128635381,go-nogo,001,47,
logos/4.jpg,properties4.xlsx,frogs/ab14.jpg,0,0,400,l,0,0,0,3,0,40,40,13,,,['l'],0,[0.0662638532157871],2018_Jul_09_0729,57.128635381,go-nogo,001,47,
logos/4.jpg,properties4.xlsx,frogs/ab40.jpg,0,0,400,l,0,0,0,3,0,41,41,39,,,['l'],0,[0.2546859416179359],2018_Jul_09_0729,57.128635381,go-nogo,001,47,
logos/4.jpg,properties4.xlsx,frogs/ab66.jpg,0,0,400,l,0,0,0,3,0,42,42,64,,,['l'],0,[0.25345518886024365],2018_Jul_09_0729,57.128635381,go-nogo,001,47,
logos/4.jpg,properties4.xlsx,frogs/ab25.jpg,0,0,400,l,0,0,0,3,0,43,43,24,,,['l'],0,[0.2645315174013376],2018_Jul_09_0729,57.128635381,go-nogo,001,47,
logos/4.jpg,properties4.xlsx,frogs/ab50.jpg,0,0,400,l,0,0,0,3,0,44,44,49,,,['l'],0,[0.36320950687513687],2018_Jul_09_0729,57.128635381,go-nogo,001,47,
logos/4.jpg,properties4.xlsx,frogs/ab80.jpg,0,0,400,l,0,0,0,3,0,45,45,78,,,['l'],0,[0.36184264839539537],2018_Jul_09_0729,57.128635381,go-nogo,001,47,
logos/4.jpg,properties4.xlsx,frogs/ab45.jpg,0,0,400,l,0,0,0,3,0,46,46,44,,,['l'],0,[0.26257739618449705],2018_Jul_09_0729,57.128635381,go-nogo,001,47,
logos/4.jpg,properties4.xlsx,frogs/ab48.jpg,0,0,400,l,0,0,0,3,0,47,47,47,,,['l'],0,[0.28536372581584146],2018_Jul_09_0729,57.128635381,go-nogo,001,47,
logos/4.jpg,properties4.xlsx,frogs/ab35.jpg,0,0,400,l,0,0,0,3,0,48,48,34,,,['l'],0,[0.2865654724300839],2018_Jul_09_0729,57.128635381,go-nogo,001,47,
logos/4.jpg,properties4.xlsx,frogs/ab53.jpg,0,0,400,l,0,0,0,3,0,49,49,52,,,['l'],0,[0.2615032765752403],2018_Jul_09_0729,57.128635381,go-nogo,001,47,
logos/4.jpg,properties4.xlsx,frogs/ab26.jpg,0,0,400,l,0,0,0,3,0,50,50,25,,,['l'],0,[0.2537671164100175],2018_Jul_09_0729,57.128635381,go-nogo,001,47,
logos/4.jpg,properties4.xlsx,logos/4.jpg,0,0,400,a,0,0,0,3,0,51,51,87,,,['a'],0,[0.2802403493260499],2018_Jul_09_0729,57.128635381,go-nogo,001,47,
logos/4.jpg,properties4.xlsx,frogs/ab3.jpg,0,0,400,l,0,0,0,3,0,52,52,2,,,['l'],0,[0.12508696263103047],2018_Jul_09_0729,57.128635381,go-nogo,001,47,
logos/4.jpg,properties4.xlsx,frogs/ab49.jpg,0,0,400,l,0,0,0,3,0,53,53,48,,,['l'],0,[0.17207244394376175],2018_Jul_09_0729,57.128635381,go-nogo,001,47,
logos/4.jpg,properties4.xlsx,frogs/ab10.jpg,0,0,400,l,0,0,0,3,0,54,54,9,,,['l'],0,[0.22896017457242124],2018_Jul_09_0729,57.128635381,go-nogo,001,47,
logos/4.jpg,properties4.xlsx,frogs/ab22.jpg,0,0,400,l,0,0,0,3,0,55,55,21,,,['l'],0,[0.25027968610811513],2018_Jul_09_0729,57.128635381,go-nogo,001,47,
logos/4.jpg,properties4.xlsx,frogs/ab1.jpg,0,0,400,l,0,0,0,3,0,56,56,0,,,['l'],0,[0.18703291750716744],2018_Jul_09_0729,57.128635381,go-nogo,001,47,
logos/4.jpg,properties4.xlsx,frogs/ab61.jpg,0,0,400,l,0,0,0,3,0,57,57,59,,,['l'],0,[0.24850629544380354],2018_Jul_09_0729,57.128635381,go-nogo,001,47,
logos/4.jpg,properties4.xlsx,frogs/ab2.jpg,0,0,400,l,0,0,0,3,0,58,58,1,,,['l'],0,[0.38983446420752443],2018_Jul_09_0729,57.128635381,go-nogo,001,47,
logos/4.jpg,properties4.xlsx,frogs/ab18.jpg,0,0,400,l,0,0,0,3,0,59,59,17,,,['l'],0,[0.41209734459698666],2018_Jul_09_0729,57.128635381,go-nogo,001,47,
logos/4.jpg,properties4.xlsx,logos/4.jpg,0,0,400,a,0,0,0,3,0,60,60,83,,,['a'],0,[0.41287292411288945],2018_Jul_09_0729,57.128635381,go-nogo,001,47,
logos/4.jpg,properties4.xlsx,logos/4.jpg,0,0,400,a,0,0,0,3,0,61,61,85,,,['a'],0,[0.7301585743261967],2018_Jul_09_0729,57.128635381,go-nogo,001,47,
logos/4.jpg,properties4.xlsx,frogs/ab37.jpg,0,0,400,l,0,0,0,3,0,62,62,36,,,['l'],0,[0.22877275029168231],2018_Jul_09_0729,57.128635381,go-nogo,001,47,
logos/4.jpg,properties4.xlsx,frogs/ab8.jpg,0,0,400,l,0,0,0,3,0,63,63,7,,,['l'],0,[0.22826715099654393],2018_Jul_09_0729,57.128635381,go-nogo,001,47,
logos/4.jpg,properties4.xlsx,frogs/ab7.jpg,0,0,400,l,0,0,0,3,0,64,64,6,,,['l'],0,[0.26174112690932816],2018_Jul_09_0729,57.128635381,go-nogo,001,47,
logos/4.jpg,properties4.xlsx,frogs/ab24.jpg,0,0,400,l,0,0,0,3,0,65,65,23,,,['l'],0,[0.28527358366409317],2018_Jul_09_0729,57.128635381,go-nogo,001,47,
logos/4.jpg,properties4.xlsx,frogs/ab81.jpg,0,0,400,l,0,0,0,3,0,66,66,79,,,['l'],0,[0.31969449843018083],2018_Jul_09_0729,57.128635381,go-nogo,001,47,
logos/4.jpg,properties4.xlsx,logos/4.jpg,0,0,400,a,0,0,0,3,0,67,67,81,,,['a'],0,[0.2873017820966197],2018_Jul_09_0729,57.128635381,go-nogo,001,47,
logos/4.jpg,properties4.xlsx,frogs/ab43.jpg,0,0,400,l,0,0,0,3,0,68,68,42,,,['l'],0,[0.2849674573444645],2018_Jul_09_0729,57.128635381,go-nogo,001,47,
logos/4.jpg,properties4.xlsx,frogs/ab20.jpg,0,0,400,l,0,0,0,3,0,69,69,19,,,['l'],0,[0.22595201492367778],2018_Jul_09_0729,57.128635381,go-nogo,001,47,
logos/4.jpg,properties4.xlsx,frogs/ab67.jpg,0,0,400,l,0,0,0,3,0,70,70,65,,,['l'],0,[0.19765764277690323],2018_Jul_09_0729,57.128635381,go-nogo,001,47,
logos/4.jpg,properties4.xlsx,frogs/ab4.jpg,0,0,400,l,0,0,0,3,0,71,71,3,,,['l'],0,[0.22816049765970092],2018_Jul_09_0729,57.128635381,go-nogo,001,47,
logos/4.jpg,properties4.xlsx,frogs/ab5.jpg,0,0,400,l,0,0,0,3,0,72,72,4,,,['l'],0,[0.32735881262487965],2018_Jul_09_0729,57.128635381,go-nogo,001,47,
logos/4.jpg,properties4.xlsx,frogs/ab29.jpg,0,0,400,l,0,0,0,3,0,73,73,28,,,['l'],0,[1.362556199397659],2018_Jul_09_0729,57.128635381,go-nogo,001,47,
logos/4.jpg,properties4.xlsx,frogs/ab79.jpg,0,0,400,l,0,0,0,3,0,74,74,77,,,['l'],0,[0.42106247252377216],2018_Jul_09_0729,57.128635381,go-nogo,001,47,
logos/4.jpg,properties4.xlsx,frogs/ab23.jpg,0,0,400,l,0,0,0,3,0,75,75,22,,,['l'],0,[0.2481693779991474],2018_Jul_09_0729,57.128635381,go-nogo,001,47,
logos/4.jpg,properties4.xlsx,frogs/ab27.jpg,0,0,400,l,0,0,0,3,0,76,76,26,,,['l'],0,[0.22026948934217216],2018_Jul_09_0729,57.128635381,go-nogo,001,47,
logos/4.jpg,properties4.xlsx,logos/4.jpg,0,0,400,a,0,0,0,3,0,77,77,84,,,['a'],0,[0.2535761221515713],2018_Jul_09_0729,57.128635381,go-nogo,001,47,
logos/4.jpg,properties4.xlsx,frogs/ab68.jpg,0,0,400,l,0,0,0,3,0,78,78,66,,,['l'],0,[0.2864739915385144],2018_Jul_09_0729,57.128635381,go-nogo,001,47,
logos/4.jpg,properties4.xlsx,frogs/ab30.jpg,0,0,400,l,0,0,0,3,0,79,79,29,,,['l'],0,[0.21659240351436893],2018_Jul_09_0729,57.128635381,go-nogo,001,47,
logos/4.jpg,properties4.xlsx,frogs/ab71.jpg,0,0,400,l,0,0,0,3,0,80,80,69,,,['l'],0,[0.247888241581677],2018_Jul_09_0729,57.128635381,go-nogo,001,47,
logos/4.jpg,properties4.xlsx,frogs/ab32.jpg,0,0,400,l,0,0,0,3,0,81,81,31,,,['l'],0,[0.25190938482410274],2018_Jul_09_0729,57.128635381,go-nogo,001,47,
logos/4.jpg,properties4.xlsx,frogs/ab58.jpg,0,0,400,l,0,0,0,3,0,82,82,57,,,['l'],0,[0.23847641912288964],2018_Jul_09_0729,57.128635381,go-nogo,001,47,
logos/4.jpg,properties4.xlsx,frogs/ab41.jpg,0,0,400,l,0,0,0,3,0,83,83,40,,,['l'],0,[0.3010984401407768],2018_Jul_09_0729,57.128635381,go-nogo,001,47,
logos/4.jpg,properties4.xlsx,frogs/ab21.jpg,0,0,400,l,0,0,0,3,0,84,84,20,,,['l'],0,[0.382926094593131],2018_Jul_09_0729,57.128635381,go-nogo,001,47,
logos/4.jpg,properties4.xlsx,frogs/ab15.jpg,0,0,400,l,0,0,0,3,0,85,85,14,,,['l'],0,[0.32885552934749285],2018_Jul_09_0729,57.128635381,go-nogo,001,47,
logos/4.jpg,properties4.xlsx,frogs/ab64.jpg,0,0,400,l,0,0,0,3,0,86,86,62,,,['l'],0,[0.13022774281125749],2018_Jul_09_0729,57.128635381,go-nogo,001,47,
logos/4.jpg,properties4.xlsx,frogs/ab46.jpg,0,0,400,l,0,0,0,3,0,87,87,45,,,['l'],0,[0.5260053415913717],2018_Jul_09_0729,57.128635381,go-nogo,001,47,
logos/4.jpg,properties4.xlsx,frogs/ab6.jpg,0,0,400,l,0,0,0,3,0,88,88,5,,,['l'],0,[0.375893667958735],2018_Jul_09_0729,57.128635381,go-nogo,001,47,
logos/4.jpg,properties4.xlsx,frogs/ab62.jpg,0,0,400,l,0,0,0,3,0,89,89,60,,,['l'],0,[0.6273487720391131],2018_Jul_09_0729,57.128635381,go-nogo,001,47,
logos/4.jpg,properties4.xlsx,,,,,,0,0,0,3,,,,,,,,,,2018_Jul_09_0729,57.128635381,go-nogo,001,47,
logos/1.jpg,properties1.xlsx,frogs/ab63.jpg,0,0,400,l,0,1,1,0,0,0,0,61,space,7.68001633269,['l'],0,[0.3349655607889872],2018_Jul_09_0729,57.128635381,go-nogo,001,47,
logos/1.jpg,properties1.xlsx,frogs/ab48.jpg,0,0,400,l,0,1,1,0,0,1,1,47,,,['l'],0,[0.25285989366238937],2018_Jul_09_0729,57.128635381,go-nogo,001,47,
logos/1.jpg,properties1.xlsx,frogs/ab25.jpg,0,0,400,l,0,1,1,0,0,2,2,24,,,['l'],0,[0.22921230484644184],2018_Jul_09_0729,57.128635381,go-nogo,001,47,
logos/1.jpg,properties1.xlsx,frogs/ab29.jpg,0,0,400,l,0,1,1,0,0,3,3,28,,,['l'],0,[0.23260245302662952],2018_Jul_09_0729,57.128635381,go-nogo,001,47,
logos/1.jpg,properties1.xlsx,frogs/ab57.jpg,0,0,400,l,0,1,1,0,0,4,4,56,,,['l'],0,[0.23323612558306195],2018_Jul_09_0729,57.128635381,go-nogo,001,47,
logos/1.jpg,properties1.xlsx,logos/1.jpg,0,0,400,a,0,1,1,0,0,5,5,87,,,['a'],0,[0.7000595741410507],2018_Jul_09_0729,57.128635381,go-nogo,001,47,
logos/1.jpg,properties1.xlsx,frogs/ab18.jpg,0,0,400,l,0,1,1,0,0,6,6,17,,,['l'],0,[0.3345210975021473],2018_Jul_09_0729,57.128635381,go-nogo,001,47,
logos/1.jpg,properties1.xlsx,frogs/ab3.jpg,0,0,400,l,0,1,1,0,0,7,7,2,,,['l'],0,[0.24967769717477495],2018_Jul_09_0729,57.128635381,go-nogo,001,47,
logos/1.jpg,properties1.xlsx,frogs/ab5.jpg,0,0,400,l,0,1,1,0,0,8,8,4,,,['l'],0,[0.7038758894341299],2018_Jul_09_0729,57.128635381,go-nogo,001,47,
logos/1.jpg,properties1.xlsx,frogs/ab33.jpg,0,0,400,l,0,1,1,0,0,9,9,32,,,['l'],0,[0.4015297391015338],2018_Jul_09_0729,57.128635381,go-nogo,001,47,
logos/1.jpg,properties1.xlsx,frogs/ab36.jpg,0,0,400,l,0,1,1,0,0,10,10,35,,,['l'],0,[0.3149495404722984],2018_Jul_09_0729,57.128635381,go-nogo,001,47,
logos/1.jpg,properties1.xlsx,frogs/ab52.jpg,0,0,400,l,0,1,1,0,0,11,11,51,,,['l'],0,[0.26683951349696144],2018_Jul_09_0729,57.128635381,go-nogo,001,47,
logos/1.jpg,properties1.xlsx,frogs/ab19.jpg,0,0,400,l,0,1,1,0,0,12,12,18,,,['l'],0,[0.31525298930500867],2018_Jul_09_0729,57.128635381,go-nogo,001,47,
logos/1.jpg,properties1.xlsx,frogs/ab38.jpg,0,0,400,l,0,1,1,0,0,13,13,37,,,['l'],0,[0.2595518328525941],2018_Jul_09_0729,57.128635381,go-nogo,001,47,
logos/1.jpg,properties1.xlsx,frogs/ab61.jpg,0,0,400,l,0,1,1,0,0,14,14,59,,,['l'],0,[0.30186777217750205],2018_Jul_09_0729,57.128635381,go-nogo,001,47,
logos/1.jpg,properties1.xlsx,frogs/ab55.jpg,0,0,400,l,0,1,1,0,0,15,15,54,,,['l'],0,[0.24006774048757507],2018_Jul_09_0729,57.128635381,go-nogo,001,47,
logos/1.jpg,properties1.xlsx,logos/1.jpg,0,0,400,a,0,1,1,0,0,16,16,82,,,['a'],0,[0.46747987977869343],2018_Jul_09_0729,57.128635381,go-nogo,001,47,
logos/1.jpg,properties1.xlsx,frogs/ab15.jpg,0,0,400,l,0,1,1,0,0,17,17,14,,,['l'],0,[0.24778381948272],2018_Jul_09_0729,57.128635381,go-nogo,001,47,
logos/1.jpg,properties1.xlsx,frogs/ab68.jpg,0,0,400,l,0,1,1,0,0,18,18,66,,,['l'],0,[0.3607506788612227],2018_Jul_09_0729,57.128635381,go-nogo,001,47,
logos/1.jpg,properties1.xlsx,frogs/ab73.jpg,0,0,400,l,0,1,1,0,0,19,19,71,,,['l'],0,[0.3184061796491733],2018_Jul_09_0729,57.128635381,go-nogo,001,47,
logos/1.jpg,properties1.xlsx,logos/1.jpg,0,0,400,a,0,1,1,0,0,20,20,81,,,['a'],0,[1.0901568785848212],2018_Jul_09_0729,57.128635381,go-nogo,001,47,
logos/1.jpg,properties1.xlsx,logos/1.jpg,0,0,400,a,0,1,1,0,0,21,21,86,,,['a'],0,[0.6691925806735526],2018_Jul_09_0729,57.128635381,go-nogo,001,47,
logos/1.jpg,properties1.xlsx,frogs/ab14.jpg,0,0,400,l,0,1,1,0,0,22,22,13,,,['l'],0,[0.8259533536620438],2018_Jul_09_0729,57.128635381,go-nogo,001,47,
logos/1.jpg,properties1.xlsx,frogs/ab66.jpg,0,0,400,l,0,1,1,0,0,23,23,64,,,['l'],0,[0.39088359390734695],2018_Jul_09_0729,57.128635381,go-nogo,001,47,
logos/1.jpg,properties1.xlsx,frogs/ab75.jpg,0,0,400,l,0,1,1,0,0,24,24,73,,,['l'],0,[0.2217238124794676],2018_Jul_09_0729,57.128635381,go-nogo,001,47,
logos/1.jpg,properties1.xlsx,frogs/ab51.jpg,0,0,400,l,0,1,1,0,0,25,25,50,,,['l'],0,[0.2779278907473781],2018_Jul_09_0729,57.128635381,go-nogo,001,47,
logos/1.jpg,properties1.xlsx,frogs/ab46.jpg,0,0,400,l,0,1,1,0,0,26,26,45,,,['l'],0,[0.34409624683030415],2018_Jul_09_0729,57.128635381,go-nogo,001,47,
logos/1.jpg,properties1.xlsx,frogs/ab11.jpg,0,0,400,l,0,1,1,0,0,27,27,10,,,['l'],0,[0.2133852171318722],2018_Jul_09_0729,57.128635381,go-nogo,001,47,
logos/1.jpg,properties1.xlsx,frogs/ab44.jpg,0,0,400,l,0,1,1,0,0,28,28,43,,,['l'],0,[0.41158415907557355],2018_Jul_09_0729,57.128635381,go-nogo,001,47,
logos/1.jpg,properties1.xlsx,frogs/ab13.jpg,0,0,400,l,0,1,1,0,0,29,29,12,,,['l'],0,[0.29127785425953334],2018_Jul_09_0729,57.128635381,go-nogo,001,47,
logos/1.jpg,properties1.xlsx,frogs/ab45.jpg,0,0,400,l,0,1,1,0,0,30,30,44,,,['l'],0,[0.28530303605657537],2018_Jul_09_0729,57.128635381,go-nogo,001,47,
logos/1.jpg,properties1.xlsx,frogs/ab24.jpg,0,0,400,l,0,1,1,0,0,31,31,23,,,['l'],0,[0.32621284703782294],2018_Jul_09_0729,57.128635381,go-nogo,001,47,
logos/1.jpg,properties1.xlsx,frogs/ab49.jpg,0,0,400,l,0,1,1,0,0,32,32,48,,,['l'],0,[0.22488369653729023],2018_Jul_09_0729,57.128635381,go-nogo,001,47,
logos/1.jpg,properties1.xlsx,frogs/ab12.jpg,0,0,400,l,0,1,1,0,0,33,33,11,,,['l'],0,[0.1985090844973456],2018_Jul_09_0729,57.128635381,go-nogo,001,47,
logos/1.jpg,properties1.xlsx,frogs/ab54.jpg,0,0,400,l,0,1,1,0,0,34,34,53,,,['l'],0,[0.22834569069527788],2018_Jul_09_0729,57.128635381,go-nogo,001,47,
logos/1.jpg,properties1.xlsx,frogs/ab60.jpg,0,0,400,l,0,1,1,0,0,35,35,58,,,['l'],0,[0.21823772091738647],2018_Jul_09_0729,57.128635381,go-nogo,001,47,
logos/1.jpg,properties1.xlsx,frogs/ab62.jpg,0,0,400,l,0,1,1,0,0,36,36,60,,,['l'],0,[0.3520037663402036],2018_Jul_09_0729,57.128635381,go-nogo,001,47,
logos/1.jpg,properties1.xlsx,frogs/ab41.jpg,0,0,400,l,0,1,1,0,0,37,37,40,,,['l'],0,[0.37514129336341284],2018_Jul_09_0729,57.128635381,go-nogo,001,47,
logos/1.jpg,properties1.xlsx,frogs/ab69.jpg,0,0,400,l,0,1,1,0,0,38,38,67,,,['l'],0,[0.2535350673060748],2018_Jul_09_0729,57.128635381,go-nogo,001,47,
logos/1.jpg,properties1.xlsx,frogs/ab42.jpg,0,0,400,l,0,1,1,0,0,39,39,41,,,['l'],0,[0.2642146811267594],2018_Jul_09_0729,57.128635381,go-nogo,001,47,
logos/1.jpg,properties1.xlsx,frogs/ab22.jpg,0,0,400,l,0,1,1,0,0,40,40,21,,,['l'],0,[0.7049218953980017],2018_Jul_09_0729,57.128635381,go-nogo,001,47,
logos/1.jpg,properties1.xlsx,frogs/ab71.jpg,0,0,400,l,0,1,1,0,0,41,41,69,,,['l'],0,[0.2528273175339564],2018_Jul_09_0729,57.128635381,go-nogo,001,47,
logos/1.jpg,properties1.xlsx,frogs/ab81.jpg,0,0,400,l,0,1,1,0,0,42,42,79,,,['l'],0,[0.22629384110041428],2018_Jul_09_0729,57.128635381,go-nogo,001,47,
logos/1.jpg,properties1.xlsx,logos/1.jpg,0,0,400,a,0,1,1,0,0,43,43,85,,,['l'],0,[0.06392997471994022],2018_Jul_09_0729,57.128635381,go-nogo,001,47,
logos/1.jpg,properties1.xlsx,logos/1.jpg,0,0,400,a,0,1,1,0,0,44,44,88,,,['l'],0,[1.127555161860073],2018_Jul_09_0729,57.128635381,go-nogo,001,47,
logos/1.jpg,properties1.xlsx,frogs/ab28.jpg,0,0,400,l,0,1,1,0,0,45,45,27,,,['l'],0,[0.29071067269251216],2018_Jul_09_0729,57.128635381,go-nogo,001,47,
logos/1.jpg,properties1.xlsx,frogs/ab7.jpg,0,0,400,l,0,1,1,0,0,46,46,6,,,['l'],0,[0.557502437637595],2018_Jul_09_0729,57.128635381,go-nogo,001,47,
logos/1.jpg,properties1.xlsx,frogs/ab8.jpg,0,0,400,l,0,1,1,0,0,47,47,7,,,['l'],0,[0.2609044113851269],2018_Jul_09_0729,57.128635381,go-nogo,001,47,
logos/1.jpg,properties1.xlsx,frogs/ab37.jpg,0,0,400,l,0,1,1,0,0,48,48,36,,,['l'],0,[0.29422220040578395],2018_Jul_09_0729,57.128635381,go-nogo,001,47,
logos/1.jpg,properties1.xlsx,frogs/ab10.jpg,0,0,400,l,0,1,1,0,0,49,49,9,,,['l'],0,[0.2878524524712702],2018_Jul_09_0729,57.128635381,go-nogo,001,47,
logos/1.jpg,properties1.xlsx,logos/1.jpg,0,0,400,a,0,1,1,0,0,50,50,80,,,['l'],0,[0.48167637628648663],2018_Jul_09_0729,57.128635381,go-nogo,001,47,
logos/1.jpg,properties1.xlsx,frogs/ab32.jpg,0,0,400,l,0,1,1,0,0,51,51,31,,,['l'],0,[0.37008039162901696],2018_Jul_09_0729,57.128635381,go-nogo,001,47,
logos/1.jpg,properties1.xlsx,frogs/ab21.jpg,0,0,400,l,0,1,1,0,0,52,52,20,,,['l'],0,[0.3184815956046805],2018_Jul_09_0729,57.128635381,go-nogo,001,47,
logos/1.jpg,properties1.xlsx,frogs/ab30.jpg,0,0,400,l,0,1,1,0,0,53,53,29,,,['l'],0,[0.28796936952130636],2018_Jul_09_0729,57.128635381,go-nogo,001,47,
logos/1.jpg,properties1.xlsx,frogs/ab65.jpg,0,0,400,l,0,1,1,0,0,54,54,63,,,['l'],0,[0.3632278030490852],2018_Jul_09_0729,57.128635381,go-nogo,001,47,
logos/1.jpg,properties1.xlsx,frogs/ab1.jpg,0,0,400,l,0,1,1,0,0,55,55,0,,,['l'],0,[0.4379792985419044],2018_Jul_09_0729,57.128635381,go-nogo,001,47,
logos/1.jpg,properties1.xlsx,logos/1.jpg,0,0,400,a,0,1,1,0,0,56,56,84,,,['a'],0,[1.0990412355677108],2018_Jul_09_0729,57.128635381,go-nogo,001,47,
logos/1.jpg,properties1.xlsx,frogs/ab39.jpg,0,0,400,l,0,1,1,0,0,57,57,38,,,['l'],0,[0.3108235288891592],2018_Jul_09_0729,57.128635381,go-nogo,001,47,
logos/1.jpg,properties1.xlsx,frogs/ab4.jpg,0,0,400,l,0,1,1,0,0,58,58,3,,,['l'],0,[0.6083118204478524],2018_Jul_09_0729,57.128635381,go-nogo,001,47,
logos/1.jpg,properties1.xlsx,frogs/ab20.jpg,0,0,400,l,0,1,1,0,0,59,59,19,,,['l'],0,[0.5755549655150389],2018_Jul_09_0729,57.128635381,go-nogo,001,47,
logos/1.jpg,properties1.xlsx,frogs/ab43.jpg,0,0,400,l,0,1,1,0,0,60,60,42,,,['l'],0,[0.3962158145950525],2018_Jul_09_0729,57.128635381,go-nogo,001,47,
logos/1.jpg,properties1.xlsx,frogs/ab80.jpg,0,0,400,l,0,1,1,0,0,61,61,78,,,['l'],0,[0.3473668004735373],2018_Jul_09_0729,57.128635381,go-nogo,001,47,
logos/1.jpg,properties1.xlsx,frogs/ab67.jpg,0,0,400,l,0,1,1,0,0,62,62,65,,,['l'],0,[0.3259004732462927],2018_Jul_09_0729,57.128635381,go-nogo,001,47,
logos/1.jpg,properties1.xlsx,frogs/ab47.jpg,0,0,400,l,0,1,1,0,0,63,63,46,,,['l'],0,[0.8972232200831058],2018_Jul_09_0729,57.128635381,go-nogo,001,47,
logos/1.jpg,properties1.xlsx,frogs/ab6.jpg,0,0,400,l,0,1,1,0,0,64,64,5,,,['l'],0,[0.7948199499805924],2018_Jul_09_0729,57.128635381,go-nogo,001,47,
logos/1.jpg,properties1.xlsx,frogs/ab70.jpg,0,0,400,l,0,1,1,0,0,65,65,68,,,['l'],0,[0.41021551560697844],2018_Jul_09_0729,57.128635381,go-nogo,001,47,
logos/1.jpg,properties1.xlsx,logos/1.jpg,0,0,400,a,0,1,1,0,0,66,66,89,,,['l'],0,[1.3463306119592744],2018_Jul_09_0729,57.128635381,go-nogo,001,47,
logos/1.jpg,properties1.xlsx,frogs/ab16.jpg,0,0,400,l,0,1,1,0,0,67,67,15,,,['l'],0,[0.3795145264957682],2018_Jul_09_0729,57.128635381,go-nogo,001,47,
logos/1.jpg,properties1.xlsx,frogs/ab35.jpg,0,0,400,l,0,1,1,0,0,68,68,34,,,['l'],0,[0.379585033726471],2018_Jul_09_0729,57.128635381,go-nogo,001,47,
logos/1.jpg,properties1.xlsx,frogs/ab58.jpg,0,0,400,l,0,1,1,0,0,69,69,57,,,['l'],0,[1.30089093468996],2018_Jul_09_0729,57.128635381,go-nogo,001,47,
logos/1.jpg,properties1.xlsx,frogs/ab56.jpg,0,0,400,l,0,1,1,0,0,70,70,55,,,['l'],0,[0.40985851698496845],2018_Jul_09_0729,57.128635381,go-nogo,001,47,
logos/1.jpg,properties1.xlsx,frogs/ab76.jpg,0,0,400,l,0,1,1,0,0,71,71,74,,,['l'],0,[0.4413997915980872],2018_Jul_09_0729,57.128635381,go-nogo,001,47,
logos/1.jpg,properties1.xlsx,frogs/ab31.jpg,0,0,400,l,0,1,1,0,0,72,72,30,,,['l'],0,[1.3031685859095887],2018_Jul_09_0729,57.128635381,go-nogo,001,47,
logos/1.jpg,properties1.xlsx,frogs/ab74.jpg,0,0,400,l,0,1,1,0,0,73,73,72,,,['l'],0,[0.5772101003822172],2018_Jul_09_0729,57.128635381,go-nogo,001,47,
logos/1.jpg,properties1.xlsx,frogs/ab26.jpg,0,0,400,l,0,1,1,0,0,74,74,25,,,['l'],0,[0.29125598809332587],2018_Jul_09_0729,57.128635381,go-nogo,001,47,
logos/1.jpg,properties1.xlsx,frogs/ab77.jpg,0,0,400,l,0,1,1,0,0,75,75,75,,,['l'],0,[0.31836200106772594],2018_Jul_09_0729,57.128635381,go-nogo,001,47,
logos/1.jpg,properties1.xlsx,logos/1.jpg,0,0,400,a,0,1,1,0,0,76,76,83,,,['l'],0,[0.2951352243908332],2018_Jul_09_0729,57.128635381,go-nogo,001,47,
logos/1.jpg,properties1.xlsx,frogs/ab9.jpg,0,0,400,l,0,1,1,0,0,77,77,8,,,['l'],0,[1.0354789694320061],2018_Jul_09_0729,57.128635381,go-nogo,001,47,
logos/1.jpg,properties1.xlsx,frogs/ab17.jpg,0,0,400,l,0,1,1,0,0,78,78,16,,,['l'],0,[0.5110207706238725],2018_Jul_09_0729,57.128635381,go-nogo,001,47,
logos/1.jpg,properties1.xlsx,frogs/ab27.jpg,0,0,400,l,0,1,1,0,0,79,79,26,,,['l'],0,[0.8017738369089784],2018_Jul_09_0729,57.128635381,go-nogo,001,47,
logos/1.jpg,properties1.xlsx,frogs/ab53.jpg,0,0,400,l,0,1,1,0,0,80,80,52,,,['l'],0,[0.31584426827612333],2018_Jul_09_0729,57.128635381,go-nogo,001,47,
logos/1.jpg,properties1.xlsx,frogs/ab50.jpg,0,0,400,l,0,1,1,0,0,81,81,49,,,['l'],0,[0.4435779294508393],2018_Jul_09_0729,57.128635381,go-nogo,001,47,
logos/1.jpg,properties1.xlsx,frogs/ab2.jpg,0,0,400,l,0,1,1,0,0,82,82,1,,,['l'],0,[2.3937444916227832],2018_Jul_09_0729,57.128635381,go-nogo,001,47,
logos/1.jpg,properties1.xlsx,frogs/ab79.jpg,0,0,400,l,0,1,1,0,0,83,83,77,,,['l'],0,[0.4041844701132504],2018_Jul_09_0729,57.128635381,go-nogo,001,47,
logos/1.jpg,properties1.xlsx,frogs/ab72.jpg,0,0,400,l,0,1,1,0,0,84,84,70,,,['l'],0,[0.4139653398960945],2018_Jul_09_0729,57.128635381,go-nogo,001,47,
logos/1.jpg,properties1.xlsx,frogs/ab64.jpg,0,0,400,l,0,1,1,0,0,85,85,62,,,['l'],0,[0.45227932465058984],2018_Jul_09_0729,57.128635381,go-nogo,001,47,
logos/1.jpg,properties1.xlsx,frogs/ab23.jpg,0,0,400,l,0,1,1,0,0,86,86,22,,,['l'],0,[0.518697133527894],2018_Jul_09_0729,57.128635381,go-nogo,001,47,
logos/1.jpg,properties1.xlsx,frogs/ab78.jpg,0,0,400,l,0,1,1,0,0,87,87,76,,,['l'],0,[0.4842208839763771],2018_Jul_09_0729,57.128635381,go-nogo,001,47,
logos/1.jpg,properties1.xlsx,frogs/ab34.jpg,0,0,400,l,0,1,1,0,0,88,88,33,,,['l'],0,[0.533800406527007],2018_Jul_09_0729,57.128635381,go-nogo,001,47,
logos/1.jpg,properties1.xlsx,frogs/ab40.jpg,0,0,400,l,0,1,1,0,0,89,89,39,,,['l'],0,[0.6018193542404333],2018_Jul_09_0729,57.128635381,go-nogo,001,47,
logos/1.jpg,properties1.xlsx,,,,,,0,1,1,0,,,,,,,,,,2018_Jul_09_0729,57.128635381,go-nogo,001,47,
logos/3.jpg,properties3.xlsx,frogs/ab21.jpg,0,0,400,l,0,2,2,2,0,0,0,20,space,1.64831128495,['l'],0,[0.6219679102869122],2018_Jul_09_0729,57.128635381,go-nogo,001,47,
logos/3.jpg,properties3.xlsx,frogs/ab17.jpg,0,0,400,l,0,2,2,2,0,1,1,16,,,['l'],0,[0.308798007950827],2018_Jul_09_0729,57.128635381,go-nogo,001,47,
logos/3.jpg,properties3.xlsx,frogs/ab61.jpg,0,0,400,l,0,2,2,2,0,2,2,59,,,['l'],0,[0.41816765994008165],2018_Jul_09_0729,57.128635381,go-nogo,001,47,
logos/3.jpg,properties3.xlsx,logos/3.jpg,0,0,400,a,0,2,2,2,0,3,3,83,,,['a'],0,[0.6334721909224754],2018_Jul_09_0729,57.128635381,go-nogo,001,47,
logos/3.jpg,properties3.xlsx,frogs/ab18.jpg,0,0,400,l,0,2,2,2,0,4,4,17,,,['l'],0,[0.3771382544073276],2018_Jul_09_0729,57.128635381,go-nogo,001,47,
logos/3.jpg,properties3.xlsx,frogs/ab39.jpg,0,0,400,l,0,2,2,2,0,5,5,38,,,['l'],0,[0.5874662245842046],2018_Jul_09_0729,57.128635381,go-nogo,001,47,
logos/3.jpg,properties3.xlsx,frogs/ab77.jpg,0,0,400,l,0,2,2,2,0,6,6,75,,,['l'],0,[0.4889261258285842],2018_Jul_09_0729,57.128635381,go-nogo,001,47,
logos/3.jpg,properties3.xlsx,frogs/ab38.jpg,0,0,400,l,0,2,2,2,0,7,7,37,,,['l'],0,[0.9972569118253887],2018_Jul_09_0729,57.128635381,go-nogo,001,47,
logos/3.jpg,properties3.xlsx,frogs/ab66.jpg,0,0,400,l,0,2,2,2,0,8,8,64,,,['l'],0,[0.5411246795338229],2018_Jul_09_0729,57.128635381,go-nogo,001,47,
logos/3.jpg,properties3.xlsx,frogs/ab33.jpg,0,0,400,l,0,2,2,2,0,9,9,32,,,['l'],0,[0.6116296764012077],2018_Jul_09_0729,57.128635381,go-nogo,001,47,
logos/3.jpg,properties3.xlsx,frogs/ab10.jpg,0,0,400,l,0,2,2,2,0,10,10,9,,,['l'],0,[0.491551850704127],2018_Jul_09_0729,57.128635381,go-nogo,001,47,
logos/3.jpg,properties3.xlsx,frogs/ab45.jpg,0,0,400,l,0,2,2,2,0,11,11,44,,,['l'],0,[0.4323708501760848],2018_Jul_09_0729,57.128635381,go-nogo,001,47,
logos/3.jpg,properties3.xlsx,frogs/ab19.jpg,0,0,400,l,0,2,2,2,0,12,12,18,,,['l'],0,[0.4541169750664267],2018_Jul_09_0729,57.128635381,go-nogo,001,47,
logos/3.jpg,properties3.xlsx,frogs/ab44.jpg,0,0,400,l,0,2,2,2,0,13,13,43,,,['l'],0,[0.4350978734000819],2018_Jul_09_0729,57.128635381,go-nogo,001,47,
logos/3.jpg,properties3.xlsx,frogs/ab13.jpg,0,0,400,l,0,2,2,2,0,14,14,12,,,['l'],0,[0.5230382367881248],2018_Jul_09_0729,57.128635381,go-nogo,001,47,
logos/3.jpg,properties3.xlsx,frogs/ab42.jpg,0,0,400,l,0,2,2,2,0,15,15,41,,,['l'],0,[0.38261059705837397],2018_Jul_09_0729,57.128635381,go-nogo,001,47,
logos/3.jpg,properties3.xlsx,frogs/ab6.jpg,0,0,400,l,0,2,2,2,0,16,16,5,,,['l'],0,[0.37817444291431457],2018_Jul_09_0729,57.128635381,go-nogo,001,47,
logos/3.jpg,properties3.xlsx,frogs/ab56.jpg,0,0,400,l,0,2,2,2,0,17,17,55,,,['l'],0,[0.48149118325090967],2018_Jul_09_0729,57.128635381,go-nogo,001,47,
logos/3.jpg,properties3.xlsx,frogs/ab65.jpg,0,0,400,l,0,2,2,2,0,18,18,63,,,['l'],0,[0.425307186160353],2018_Jul_09_0729,57.128635381,go-nogo,001,47,
logos/3.jpg,properties3.xlsx,frogs/ab31.jpg,0,0,400,l,0,2,2,2,0,19,19,30,,,['l'],0,[0.544058315725124],2018_Jul_09_0729,57.128635381,go-nogo,001,47,
logos/3.jpg,properties3.xlsx,frogs/ab40.jpg,0,0,400,l,0,2,2,2,0,20,20,39,,,['l'],0,[0.45009984805074055],2018_Jul_09_0729,57.128635381,go-nogo,001,47,
logos/3.jpg,properties3.xlsx,frogs/ab64.jpg,0,0,400,l,0,2,2,2,0,21,21,62,,,['l'],0,[0.554026609781431],2018_Jul_09_0729,57.128635381,go-nogo,001,47,
logos/3.jpg,properties3.xlsx,logos/3.jpg,0,0,400,a,0,2,2,2,0,22,22,81,,,['a'],0,[0.48470952583738836],2018_Jul_09_0729,57.128635381,go-nogo,001,47,
logos/3.jpg,properties3.xlsx,frogs/ab34.jpg,0,0,400,l,0,2,2,2,0,23,23,33,,,['l'],0,[0.46228064107708633],2018_Jul_09_0729,57.128635381,go-nogo,001,47,
logos/3.jpg,properties3.xlsx,frogs/ab71.jpg,0,0,400,l,0,2,2,2,0,24,24,69,,,['l'],0,[0.599611764002475],2018_Jul_09_0729,57.128635381,go-nogo,001,47,
logos/3.jpg,properties3.xlsx,frogs/ab5.jpg,0,0,400,l,0,2,2,2,0,25,25,4,,,['l'],0,[0.4930347337285639],2018_Jul_09_0729,57.128635381,go-nogo,001,47,
logos/3.jpg,properties3.xlsx,frogs/ab2.jpg,0,0,400,l,0,2,2,2,0,26,26,1,,,['l'],0,[0.3736771527546807],2018_Jul_09_0729,57.128635381,go-nogo,001,47,
logos/3.jpg,properties3.xlsx,frogs/ab25.jpg,0,0,400,l,0,2,2,2,0,27,27,24,,,['l'],0,[0.49412000954907853],2018_Jul_09_0729,57.128635381,go-nogo,001,47,
logos/3.jpg,properties3.xlsx,frogs/ab80.jpg,0,0,400,l,0,2,2,2,0,28,28,78,,,['l'],0,[0.42367525619920343],2018_Jul_09_0729,57.128635381,go-nogo,001,47,
logos/3.jpg,properties3.xlsx,logos/3.jpg,0,0,400,a,0,2,2,2,0,29,29,86,,,['a'],0,[0.5465497198674711],2018_Jul_09_0729,57.128635381,go-nogo,001,47,
logos/3.jpg,properties3.xlsx,frogs/ab41.jpg,0,0,400,l,0,2,2,2,0,30,30,40,,,['l'],0,[0.3490902113262564],2018_Jul_09_0729,57.128635381,go-nogo,001,47,
logos/3.jpg,properties3.xlsx,frogs/ab81.jpg,0,0,400,l,0,2,2,2,0,31,31,79,,,['l'],0,[0.31983551288431045],2018_Jul_09_0729,57.128635381,go-nogo,001,47,
logos/3.jpg,properties3.xlsx,frogs/ab9.jpg,0,0,400,l,0,2,2,2,0,32,32,8,,,['l'],0,[1.0552058208631934],2018_Jul_09_0729,57.128635381,go-nogo,001,47,
logos/3.jpg,properties3.xlsx,frogs/ab35.jpg,0,0,400,l,0,2,2,2,0,33,33,34,,,['l'],0,[0.4102280105580576],2018_Jul_09_0729,57.128635381,go-nogo,001,47,
logos/3.jpg,properties3.xlsx,frogs/ab75.jpg,0,0,400,l,0,2,2,2,0,34,34,73,,,['l'],0,[0.4493831733125262],2018_Jul_09_0729,57.128635381,go-nogo,001,47,
logos/3.jpg,properties3.xlsx,frogs/ab12.jpg,0,0,400,l,0,2,2,2,0,35,35,11,,,['l'],0,[0.5025634732373874],2018_Jul_09_0729,57.128635381,go-nogo,001,47,
logos/3.jpg,properties3.xlsx,frogs/ab63.jpg,0,0,400,l,0,2,2,2,0,36,36,61,,,['l'],0,[0.5520840910248808],2018_Jul_09_0729,57.128635381,go-nogo,001,47,
logos/3.jpg,properties3.xlsx,frogs/ab46.jpg,0,0,400,l,0,2,2,2,0,37,37,45,,,['l'],0,[0.3834575762884924],2018_Jul_09_0729,57.128635381,go-nogo,001,47,
logos/3.jpg,properties3.xlsx,frogs/ab4.jpg,0,0,400,l,0,2,2,2,0,38,38,3,,,['l'],0,[0.6512569698388688],2018_Jul_09_0729,57.128635381,go-nogo,001,47,
logos/3.jpg,properties3.xlsx,frogs/ab51.jpg,0,0,400,l,0,2,2,2,0,39,39,50,,,['l'],0,[0.46261309604597045],2018_Jul_09_0729,57.128635381,go-nogo,001,47,
logos/3.jpg,properties3.xlsx,frogs/ab1.jpg,0,0,400,l,0,2,2,2,0,40,40,0,,,['l'],0,[0.32760781916294945],2018_Jul_09_0729,57.128635381,go-nogo,001,47,
logos/3.jpg,properties3.xlsx,frogs/ab23.jpg,0,0,400,l,0,2,2,2,0,41,41,22,,,['l'],0,[0.4039533135073725],2018_Jul_09_0729,57.128635381,go-nogo,001,47,
logos/3.jpg,properties3.xlsx,frogs/ab78.jpg,0,0,400,l,0,2,2,2,0,42,42,76,,,['l'],0,[0.3795952974323882],2018_Jul_09_0729,57.128635381,go-nogo,001,47,
logos/3.jpg,properties3.xlsx,logos/3.jpg,0,0,400,a,0,2,2,2,0,43,43,82,,,['a'],0,[0.4798061497422168],2018_Jul_09_0729,57.128635381,go-nogo,001,47,
logos/3.jpg,properties3.xlsx,frogs/ab22.jpg,0,0,400,l,0,2,2,2,0,44,44,21,,,['l'],0,[0.4322579493527883],2018_Jul_09_0729,57.128635381,go-nogo,001,47,
logos/3.jpg,properties3.xlsx,frogs/ab69.jpg,0,0,400,l,0,2,2,2,0,45,45,67,,,['l'],0,[0.44224766333354637],2018_Jul_09_0729,57.128635381,go-nogo,001,47,
logos/3.jpg,properties3.xlsx,frogs/ab54.jpg,0,0,400,l,0,2,2,2,0,46,46,53,,,['l'],0,[0.35213585582823725],2018_Jul_09_0729,57.128635381,go-nogo,001,47,
logos/3.jpg,properties3.xlsx,frogs/ab8.jpg,0,0,400,l,0,2,2,2,0,47,47,7,,,['l'],0,[1.1788237341606873],2018_Jul_09_0729,57.128635381,go-nogo,001,47,
logos/3.jpg,properties3.xlsx,frogs/ab76.jpg,0,0,400,l,0,2,2,2,0,48,48,74,,,['l'],0,[0.37757513147516875],2018_Jul_09_0729,57.128635381,go-nogo,001,47,
logos/3.jpg,properties3.xlsx,frogs/ab26.jpg,0,0,400,l,0,2,2,2,0,49,49,25,,,['l'],0,[0.32467730671487516],2018_Jul_09_0729,57.128635381,go-nogo,001,47,
logos/3.jpg,properties3.xlsx,frogs/ab47.jpg,0,0,400,l,0,2,2,2,0,50,50,46,,,['l'],0,[0.4798895981730311],2018_Jul_09_0729,57.128635381,go-nogo,001,47,
logos/3.jpg,properties3.xlsx,frogs/ab53.jpg,0,0,400,l,0,2,2,2,0,51,51,52,,,['l'],0,[0.4462268592324108],2018_Jul_09_0729,57.128635381,go-nogo,001,47,
logos/3.jpg,properties3.xlsx,frogs/ab73.jpg,0,0,400,l,0,2,2,2,0,52,52,71,,,['l'],0,[0.6451281959743937],2018_Jul_09_0729,57.128635381,go-nogo,001,47,
logos/3.jpg,properties3.xlsx,frogs/ab37.jpg,0,0,400,l,0,2,2,2,0,53,53,36,,,['l'],0,[0.5422621664038161],2018_Jul_09_0729,57.128635381,go-nogo,001,47,
logos/3.jpg,properties3.xlsx,frogs/ab7.jpg,0,0,400,l,0,2,2,2,0,54,54,6,,,['l'],0,[0.4109005067148246],2018_Jul_09_0729,57.128635381,go-nogo,001,47,
logos/3.jpg,properties3.xlsx,frogs/ab32.jpg,0,0,400,l,0,2,2,2,0,55,55,31,,,['l'],0,[0.48254656042990973],2018_Jul_09_0729,57.128635381,go-nogo,001,47,
logos/3.jpg,properties3.xlsx,logos/3.jpg,0,0,400,a,0,2,2,2,0,56,56,84,,,['a'],0,[0.4714546132090618],2018_Jul_09_0729,57.128635381,go-nogo,001,47,
logos/3.jpg,properties3.xlsx,frogs/ab29.jpg,0,0,400,l,0,2,2,2,0,57,57,28,,,['l'],0,[0.41553345635475125],2018_Jul_09_0729,57.128635381,go-nogo,001,47,
logos/3.jpg,properties3.xlsx,frogs/ab55.jpg,0,0,400,l,0,2,2,2,0,58,58,54,,,['l'],0,[0.348989805461315],2018_Jul_09_0729,57.128635381,go-nogo,001,47,
logos/3.jpg,properties3.xlsx,frogs/ab36.jpg,0,0,400,l,0,2,2,2,0,59,59,35,,,['l'],0,[0.41554238131357124],2018_Jul_09_0729,57.128635381,go-nogo,001,47,
logos/3.jpg,properties3.xlsx,frogs/ab58.jpg,0,0,400,l,0,2,2,2,0,60,60,57,,,['l'],0,[1.2159881833504187],2018_Jul_09_0729,57.128635381,go-nogo,001,47,
logos/3.jpg,properties3.xlsx,frogs/ab24.jpg,0,0,400,l,0,2,2,2,0,61,61,23,,,['l'],0,[0.6001602031319635],2018_Jul_09_0729,57.128635381,go-nogo,001,47,
logos/3.jpg,properties3.xlsx,frogs/ab30.jpg,0,0,400,l,0,2,2,2,0,62,62,29,,,['l'],0,[0.3260700475948397],2018_Jul_09_0729,57.128635381,go-nogo,001,47,
logos/3.jpg,properties3.xlsx,frogs/ab3.jpg,0,0,400,l,0,2,2,2,0,63,63,2,,,['l'],0,[0.3826721793229808],2018_Jul_09_0729,57.128635381,go-nogo,001,47,
logos/3.jpg,properties3.xlsx,frogs/ab72.jpg,0,0,400,l,0,2,2,2,0,64,64,70,,,['l'],0,[0.32338407920178724],2018_Jul_09_0729,57.128635381,go-nogo,001,47,
logos/3.jpg,properties3.xlsx,frogs/ab70.jpg,0,0,400,l,0,2,2,2,0,65,65,68,,,['l'],0,[0.5749556540758931],2018_Jul_09_0729,57.128635381,go-nogo,001,47,
logos/3.jpg,properties3.xlsx,frogs/ab20.jpg,0,0,400,l,0,2,2,2,0,66,66,19,,,['l'],0,[0.3817413054057397],2018_Jul_09_0729,57.128635381,go-nogo,001,47,
logos/3.jpg,properties3.xlsx,frogs/ab79.jpg,0,0,400,l,0,2,2,2,0,67,67,77,,,['l'],0,[0.32482679988606833],2018_Jul_09_0729,57.128635381,go-nogo,001,47,
logos/3.jpg,properties3.xlsx,frogs/ab11.jpg,0,0,400,l,0,2,2,2,0,68,68,10,,,['l'],0,[0.5269598666636739],2018_Jul_09_0729,57.128635381,go-nogo,001,47,
logos/3.jpg,properties3.xlsx,logos/3.jpg,0,0,400,a,0,2,2,2,0,69,69,88,,,['a'],0,[0.541385288532183],2018_Jul_09_0729,57.128635381,go-nogo,001,47,
logos/3.jpg,properties3.xlsx,logos/3.jpg,0,0,400,a,0,2,2,2,0,70,70,80,,,['a'],0,[0.7828716522999457],2018_Jul_09_0729,57.128635381,go-nogo,001,47,
logos/3.jpg,properties3.xlsx,frogs/ab43.jpg,0,0,400,l,0,2,2,2,0,71,71,42,,,['l'],0,[0.5058433980884729],2018_Jul_09_0729,57.128635381,go-nogo,001,47,
logos/3.jpg,properties3.xlsx,logos/3.jpg,0,0,400,a,0,2,2,2,0,72,72,87,,,['a'],0,[0.677988134259067],2018_Jul_09_0729,57.128635381,go-nogo,001,47,
logos/3.jpg,properties3.xlsx,frogs/ab50.jpg,0,0,400,l,0,2,2,2,0,73,73,49,,,['l'],0,[0.38120982371037826],2018_Jul_09_0729,57.128635381,go-nogo,001,47,
logos/3.jpg,properties3.xlsx,frogs/ab67.jpg,0,0,400,l,0,2,2,2,0,74,74,65,,,['l'],0,[0.373688755214971],2018_Jul_09_0729,57.128635381,go-nogo,001,47,
logos/3.jpg,properties3.xlsx,frogs/ab14.jpg,0,0,400,l,0,2,2,2,0,75,75,13,,,['l'],0,[0.4794500436182716],2018_Jul_09_0729,57.128635381,go-nogo,001,47,
logos/3.jpg,properties3.xlsx,frogs/ab15.jpg,0,0,400,l,0,2,2,2,0,76,76,14,,,['l'],0,[0.37935700084926793],2018_Jul_09_0729,57.128635381,go-nogo,001,47,
logos/3.jpg,properties3.xlsx,frogs/ab57.jpg,0,0,400,l,0,2,2,2,0,77,77,56,,,['l'],0,[0.5679910571852815],2018_Jul_09_0729,57.128635381,go-nogo,001,47,
logos/3.jpg,properties3.xlsx,frogs/ab60.jpg,0,0,400,l,0,2,2,2,0,78,78,58,,,['l'],0,[0.2936313676837017],2018_Jul_09_0729,57.128635381,go-nogo,001,47,
logos/3.jpg,properties3.xlsx,frogs/ab27.jpg,0,0,400,l,0,2,2,2,0,79,79,26,,,['l'],0,[0.34093323902925476],2018_Jul_09_0729,57.128635381,go-nogo,001,47,
logos/3.jpg,properties3.xlsx,frogs/ab52.jpg,0,0,400,l,0,2,2,2,0,80,80,51,,,['l'],0,[0.25977361824334366],2018_Jul_09_0729,57.128635381,go-nogo,001,47,
logos/3.jpg,properties3.xlsx,frogs/ab49.jpg,0,0,400,l,0,2,2,2,0,81,81,48,,,['l'],0,[0.2493965607645805],2018_Jul_09_0729,57.128635381,go-nogo,001,47,
logos/3.jpg,properties3.xlsx,logos/3.jpg,0,0,400,a,0,2,2,2,0,82,82,89,,,['a'],0,[0.3286279427265981],2018_Jul_09_0729,57.128635381,go-nogo,001,47,
logos/3.jpg,properties3.xlsx,frogs/ab68.jpg,0,0,400,l,0,2,2,2,0,83,83,66,,,['l'],0,[0.34256918521714397],2018_Jul_09_0729,57.128635381,go-nogo,001,47,
logos/3.jpg,properties3.xlsx,frogs/ab62.jpg,0,0,400,l,0,2,2,2,0,84,84,60,,,['l'],0,[0.6691385846279445],2018_Jul_09_0729,57.128635381,go-nogo,001,47,
logos/3.jpg,properties3.xlsx,frogs/ab28.jpg,0,0,400,l,0,2,2,2,0,85,85,27,,,['l'],0,[0.38066227707167855],2018_Jul_09_0729,57.128635381,go-nogo,001,47,
logos/3.jpg,properties3.xlsx,frogs/ab74.jpg,0,0,400,l,0,2,2,2,0,86,86,72,,,['l'],0,[0.510191641325946],2018_Jul_09_0729,57.128635381,go-nogo,001,47,
logos/3.jpg,properties3.xlsx,frogs/ab16.jpg,0,0,400,l,0,2,2,2,0,87,87,15,,,['l'],0,[0.2862115975440247],2018_Jul_09_0729,57.128635381,go-nogo,001,47,
logos/3.jpg,properties3.xlsx,frogs/ab48.jpg,0,0,400,l,0,2,2,2,0,88,88,47,,,['l'],0,[0.3462270823583822],2018_Jul_09_0729,57.128635381,go-nogo,001,47,
logos/3.jpg,properties3.xlsx,logos/3.jpg,0,0,400,a,0,2,2,2,0,89,89,85,,,['a'],0,[0.478906066971831],2018_Jul_09_0729,57.128635381,go-nogo,001,47,
logos/3.jpg,properties3.xlsx,,,,,,0,2,2,2,,,,,,,,,,2018_Jul_09_0729,57.128635381,go-nogo,001,47,
logos/2.jpg,properties2.xlsx,frogs/ab65.jpg,0,0,400,l,0,3,3,1,0,0,0,63,space,4.94300561603,['l'],0,[0.34268163978413213],2018_Jul_09_0729,57.128635381,go-nogo,001,47,
logos/2.jpg,properties2.xlsx,frogs/ab79.jpg,0,0,400,l,0,3,3,1,0,1,1,77,,,['l'],0,[0.4499972109479131],2018_Jul_09_0729,57.128635381,go-nogo,001,47,
logos/2.jpg,properties2.xlsx,frogs/ab22.jpg,0,0,400,l,0,3,3,1,0,2,2,21,,,['l'],0,[0.4699150566375465],2018_Jul_09_0729,57.128635381,go-nogo,001,47,
logos/2.jpg,properties2.xlsx,frogs/ab53.jpg,0,0,400,l,0,3,3,1,0,3,3,52,,,['l'],0,[0.35531582106341375],2018_Jul_09_0729,57.128635381,go-nogo,001,47,
logos/2.jpg,properties2.xlsx,frogs/ab17.jpg,0,0,400,l,0,3,3,1,0,4,4,16,,,['l'],0,[0.34366918722662376],2018_Jul_09_0729,57.128635381,go-nogo,001,47,
logos/2.jpg,properties2.xlsx,frogs/ab20.jpg,0,0,400,l,0,3,3,1,0,5,5,19,,,['l'],0,[0.35657290247036144],2018_Jul_09_0729,57.128635381,go-nogo,001,47,
logos/2.jpg,properties2.xlsx,logos/2.jpg,0,0,400,a,0,3,3,1,0,6,6,87,,,['a'],0,[0.34870643780595856],2018_Jul_09_0729,57.128635381,go-nogo,001,47,
logos/2.jpg,properties2.xlsx,frogs/ab19.jpg,0,0,400,l,0,3,3,1,0,7,7,18,,,['l'],0,[0.38354370220622513],2018_Jul_09_0729,57.128635381,go-nogo,001,47,
logos/2.jpg,properties2.xlsx,frogs/ab37.jpg,0,0,400,l,0,3,3,1,0,8,8,36,,,['l'],0,[0.3841880847248831],2018_Jul_09_0729,57.128635381,go-nogo,001,47,
logos/2.jpg,properties2.xlsx,frogs/ab40.jpg,0,0,400,l,0,3,3,1,0,9,9,39,,,['l'],0,[0.6334699596773135],2018_Jul_09_0729,57.128635381,go-nogo,001,47,
logos/2.jpg,properties2.xlsx,logos/2.jpg,0,0,400,a,0,3,3,1,0,10,10,85,,,['l'],0,[0.8281823638171772],2018_Jul_09_0729,57.128635381,go-nogo,001,47,
logos/2.jpg,properties2.xlsx,frogs/ab15.jpg,0,0,400,l,0,3,3,1,0,11,11,14,,,['l'],0,[0.47987576448213076],2018_Jul_09_0729,57.128635381,go-nogo,001,47,
logos/2.jpg,properties2.xlsx,frogs/ab9.jpg,0,0,400,l,0,3,3,1,0,12,12,8,,,['l'],0,[1.3033064766204916],2018_Jul_09_0729,57.128635381,go-nogo,001,47,
logos/2.jpg,properties2.xlsx,frogs/ab50.jpg,0,0,400,l,0,3,3,1,0,13,13,49,,,['l'],0,[0.5975982917589135],2018_Jul_09_0729,57.128635381,go-nogo,001,47,
logos/2.jpg,properties2.xlsx,frogs/ab63.jpg,0,0,400,l,0,3,3,1,0,14,14,61,,,['l'],0,[0.38648849460150814],2018_Jul_09_0729,57.128635381,go-nogo,001,47,
logos/2.jpg,properties2.xlsx,frogs/ab27.jpg,0,0,400,l,0,3,3,1,0,15,15,26,,,['l'],0,[0.4084532811466488],2018_Jul_09_0729,57.128635381,go-nogo,001,47,
logos/2.jpg,properties2.xlsx,frogs/ab41.jpg,0,0,400,l,0,3,3,1,0,16,16,40,,,['l'],0,[0.6934086897890666],2018_Jul_09_0729,57.128635381,go-nogo,001,47,
logos/2.jpg,properties2.xlsx,frogs/ab71.jpg,0,0,400,l,0,3,3,1,0,17,17,69,,,['l'],0,[0.25113023532321677],2018_Jul_09_0729,57.128635381,go-nogo,001,47,
logos/2.jpg,properties2.xlsx,frogs/ab51.jpg,0,0,400,l,0,3,3,1,0,18,18,50,,,['l'],0,[0.3157925034756772],2018_Jul_09_0729,57.128635381,go-nogo,001,47,
logos/2.jpg,properties2.xlsx,frogs/ab23.jpg,0,0,400,l,0,3,3,1,0,19,19,22,,,['l'],0,[0.280405461184273],2018_Jul_09_0729,57.128635381,go-nogo,001,47,
logos/2.jpg,properties2.xlsx,frogs/ab73.jpg,0,0,400,l,0,3,3,1,0,20,20,71,,,['l'],0,[0.2179257933748886],2018_Jul_09_0729,57.128635381,go-nogo,001,47,
logos/2.jpg,properties2.xlsx,frogs/ab48.jpg,0,0,400,l,0,3,3,1,0,21,21,47,,,['l'],0,[0.2442691680334974],2018_Jul_09_0729,57.128635381,go-nogo,001,47,
logos/2.jpg,properties2.xlsx,frogs/ab13.jpg,0,0,400,l,0,3,3,1,0,22,22,12,,,['l'],0,[0.31742487967858324],2018_Jul_09_0729,57.128635381,go-nogo,001,47,
logos/2.jpg,properties2.xlsx,logos/2.jpg,0,0,400,a,0,3,3,1,0,23,23,84,,,['a'],0,[0.4451005285809515],2018_Jul_09_0729,57.128635381,go-nogo,001,47,
logos/2.jpg,properties2.xlsx,frogs/ab69.jpg,0,0,400,l,0,3,3,1,0,24,24,67,,,['l'],0,[0.2835515115511953],2018_Jul_09_0729,57.128635381,go-nogo,001,47,
logos/2.jpg,properties2.xlsx,frogs/ab16.jpg,0,0,400,l,0,3,3,1,0,25,25,15,,,['l'],0,[0.2608856689548702],2018_Jul_09_0729,57.128635381,go-nogo,001,47,
logos/2.jpg,properties2.xlsx,frogs/ab30.jpg,0,0,400,l,0,3,3,1,0,26,26,29,,,['l'],0,[0.31527217798429774],2018_Jul_09_0729,57.128635381,go-nogo,001,47,
logos/2.jpg,properties2.xlsx,frogs/ab21.jpg,0,0,400,l,0,3,3,1,0,27,27,20,,,['l'],0,[0.3308663240968599],2018_Jul_09_0729,57.128635381,go-nogo,001,47,
logos/2.jpg,properties2.xlsx,frogs/ab67.jpg,0,0,400,l,0,3,3,1,0,28,28,65,,,['l'],0,[0.28657528989424463],2018_Jul_09_0729,57.128635381,go-nogo,001,47,
logos/2.jpg,properties2.xlsx,frogs/ab58.jpg,0,0,400,l,0,3,3,1,0,29,29,57,,,['l'],0,[0.3855473569856258],2018_Jul_09_0729,57.128635381,go-nogo,001,47,
logos/2.jpg,properties2.xlsx,frogs/ab78.jpg,0,0,400,l,0,3,3,1,0,30,30,76,,,['l'],0,[0.5760257574511343],2018_Jul_09_0729,57.128635381,go-nogo,001,47,
logos/2.jpg,properties2.xlsx,frogs/ab14.jpg,0,0,400,l,0,3,3,1,0,31,31,13,,,['l'],0,[0.4350050537614152],2018_Jul_09_0729,57.128635381,go-nogo,001,47,
logos/2.jpg,properties2.xlsx,frogs/ab68.jpg,0,0,400,l,0,3,3,1,0,32,32,66,,,['l'],0,[0.3884430620673811],2018_Jul_09_0729,57.128635381,go-nogo,001,47,
logos/2.jpg,properties2.xlsx,logos/2.jpg,0,0,400,a,0,3,3,1,0,33,33,88,,,['a'],0,[0.36874253929272527],2018_Jul_09_0729,57.128635381,go-nogo,001,47,
logos/2.jpg,properties2.xlsx,frogs/ab7.jpg,0,0,400,l,0,3,3,1,0,34,34,6,,,['l'],0,[0.13103411345218774],2018_Jul_09_0729,57.128635381,go-nogo,001,47,
logos/2.jpg,properties2.xlsx,frogs/ab74.jpg,0,0,400,l,0,3,3,1,0,35,35,72,,,['l'],0,[0.15985728980012937],2018_Jul_09_0729,57.128635381,go-nogo,001,47,
logos/2.jpg,properties2.xlsx,frogs/ab38.jpg,0,0,400,l,0,3,3,1,0,36,36,37,,,['l'],0,[0.2858720026051742],2018_Jul_09_0729,57.128635381,go-nogo,001,47,
logos/2.jpg,properties2.xlsx,frogs/ab76.jpg,0,0,400,l,0,3,3,1,0,37,37,74,,,['l'],0,[0.31635790004656883],2018_Jul_09_0729,57.128635381,go-nogo,001,47,
logos/2.jpg,properties2.xlsx,frogs/ab61.jpg,0,0,400,l,0,3,3,1,0,38,38,59,,,['l'],0,[0.25139218306867406],2018_Jul_09_0729,57.128635381,go-nogo,001,47,
logos/2.jpg,properties2.xlsx,frogs/ab18.jpg,0,0,400,l,0,3,3,1,0,39,39,17,,,['l'],0,[0.25071567067789147],2018_Jul_09_0729,57.128635381,go-nogo,001,47,
logos/2.jpg,properties2.xlsx,frogs/ab39.jpg,0,0,400,l,0,3,3,1,0,40,40,38,,,['l'],0,[0.31825400898378575],2018_Jul_09_0729,57.128635381,go-nogo,001,47,
logos/2.jpg,properties2.xlsx,frogs/ab57.jpg,0,0,400,l,0,3,3,1,0,41,41,56,,,['l'],0,[0.3415517391404137],2018_Jul_09_0729,57.128635381,go-nogo,001,47,
logos/2.jpg,properties2.xlsx,frogs/ab45.jpg,0,0,400,l,0,3,3,1,0,42,42,44,,,['l'],0,[0.24407862002408365],2018_Jul_09_0729,57.128635381,go-nogo,001,47,
logos/2.jpg,properties2.xlsx,frogs/ab35.jpg,0,0,400,l,0,3,3,1,0,43,43,34,,,['l'],0,[0.222612292804115],2018_Jul_09_0729,57.128635381,go-nogo,001,47,
logos/2.jpg,properties2.xlsx,frogs/ab4.jpg,0,0,400,l,0,3,3,1,0,44,44,3,,,['l'],0,[0.22905656419607112],2018_Jul_09_0729,57.128635381,go-nogo,001,47,
logos/2.jpg,properties2.xlsx,frogs/ab55.jpg,0,0,400,l,0,3,3,1,0,45,45,54,,,['l'],0,[0.24707428471447201],2018_Jul_09_0729,57.128635381,go-nogo,001,47,
logos/2.jpg,properties2.xlsx,frogs/ab60.jpg,0,0,400,l,0,3,3,1,0,46,46,58,,,['l'],0,[0.28444579310598783],2018_Jul_09_0729,57.128635381,go-nogo,001,47,
logos/2.jpg,properties2.xlsx,frogs/ab72.jpg,0,0,400,l,0,3,3,1,0,47,47,70,,,['l'],0,[0.2678658845470636],2018_Jul_09_0729,57.128635381,go-nogo,001,47,
logos/2.jpg,properties2.xlsx,frogs/ab44.jpg,0,0,400,l,0,3,3,1,0,48,48,43,,,['l'],0,[0.2831766629969934],2018_Jul_09_0729,57.128635381,go-nogo,001,47,
logos/2.jpg,properties2.xlsx,frogs/ab31.jpg,0,0,400,l,0,3,3,1,0,49,49,30,,,['l'],0,[0.582279927082709],2018_Jul_09_0729,57.128635381,go-nogo,001,47,
logos/2.jpg,properties2.xlsx,frogs/ab70.jpg,0,0,400,l,0,3,3,1,0,50,50,68,,,['l'],0,[0.2508174152826541],2018_Jul_09_0729,57.128635381,go-nogo,001,47,
logos/2.jpg,properties2.xlsx,frogs/ab5.jpg,0,0,400,l,0,3,3,1,0,51,51,4,,,['l'],0,[0.2185634821653366],2018_Jul_09_0729,57.128635381,go-nogo,001,47,
logos/2.jpg,properties2.xlsx,frogs/ab56.jpg,0,0,400,l,0,3,3,1,0,52,52,55,,,['l'],0,[0.21757771971897455],2018_Jul_09_0729,57.128635381,go-nogo,001,47,
logos/2.jpg,properties2.xlsx,frogs/ab80.jpg,0,0,400,l,0,3,3,1,0,53,53,78,,,['l'],0,[0.2666123731250991],2018_Jul_09_0729,57.128635381,go-nogo,001,47,
logos/2.jpg,properties2.xlsx,frogs/ab36.jpg,0,0,400,l,0,3,3,1,0,54,54,35,,,['l'],0,[0.10295706422039075],2018_Jul_09_0729,57.128635381,go-nogo,001,47,
logos/2.jpg,properties2.xlsx,frogs/ab2.jpg,0,0,400,l,0,3,3,1,0,55,55,1,,,['l'],0,[0.10612587325158529],2018_Jul_09_0729,57.128635381,go-nogo,001,47,
logos/2.jpg,properties2.xlsx,frogs/ab1.jpg,0,0,400,l,0,3,3,1,0,56,56,0,,,['l'],0,[0.9254457462448045],2018_Jul_09_0729,57.128635381,go-nogo,001,47,
logos/2.jpg,properties2.xlsx,frogs/ab34.jpg,0,0,400,l,0,3,3,1,0,57,57,33,,,['l'],0,[0.07707198653952219],2018_Jul_09_0729,57.128635381,go-nogo,001,47,
logos/2.jpg,properties2.xlsx,logos/2.jpg,0,0,400,a,0,3,3,1,0,58,58,80,,,['a'],0,[1.06199638092221],2018_Jul_09_0729,57.128635381,go-nogo,001,47,
logos/2.jpg,properties2.xlsx,frogs/ab3.jpg,0,0,400,l,0,3,3,1,0,59,59,2,,,['l'],0,[0.018303319418919273],2018_Jul_09_0729,57.128635381,go-nogo,001,47,
logos/2.jpg,properties2.xlsx,frogs/ab64.jpg,0,0,400,l,0,3,3,1,0,60,60,62,,,['l'],0,[0.10808847318548942],2018_Jul_09_0729,57.128635381,go-nogo,001,47,
logos/2.jpg,properties2.xlsx,frogs/ab32.jpg,0,0,400,l,0,3,3,1,0,61,61,31,,,['l'],0,[0.0015266153641277924],2018_Jul_09_0729,57.128635381,go-nogo,001,47,
logos/2.jpg,properties2.xlsx,frogs/ab42.jpg,0,0,400,l,0,3,3,1,0,62,62,41,,,['l'],0,[0.03735321221029153],2018_Jul_09_0729,57.128635381,go-nogo,001,47,
logos/2.jpg,properties2.xlsx,logos/2.jpg,0,0,400,a,0,3,3,1,0,63,63,86,,,['a'],0,[0.2750616380435531],2018_Jul_09_0729,57.128635381,go-nogo,001,47,
logos/2.jpg,properties2.xlsx,frogs/ab77.jpg,0,0,400,l,0,3,3,1,0,64,64,75,,,['l'],0,[0.06518750236864435],2018_Jul_09_0729,57.128635381,go-nogo,001,47,
logos/2.jpg,properties2.xlsx,frogs/ab49.jpg,0,0,400,l,0,3,3,1,0,65,65,48,,,['l'],0,[0.4342816852949909],2018_Jul_09_0729,57.128635381,go-nogo,001,47,
logos/2.jpg,properties2.xlsx,frogs/ab24.jpg,0,0,400,l,0,3,3,1,0,66,66,23,,,['l'],0,[1.3609769267350202],2018_Jul_09_0729,57.128635381,go-nogo,001,47,
logos/2.jpg,properties2.xlsx,frogs/ab29.jpg,0,0,400,l,0,3,3,1,0,67,67,28,,,['l'],0,[0.6355963327296195],2018_Jul_09_0729,57.128635381,go-nogo,001,47,
logos/2.jpg,properties2.xlsx,frogs/ab25.jpg,0,0,400,l,0,3,3,1,0,68,68,24,,,['l'],0,[0.40789011582091916],2018_Jul_09_0729,57.128635381,go-nogo,001,47,
logos/2.jpg,properties2.xlsx,frogs/ab11.jpg,0,0,400,l,0,3,3,1,0,69,69,10,,,['l'],0,[0.382569095971121],2018_Jul_09_0729,57.128635381,go-nogo,001,47,
logos/2.jpg,properties2.xlsx,frogs/ab8.jpg,0,0,400,l,0,3,3,1,0,70,70,7,,,['l'],0,[0.40050916928157676],2018_Jul_09_0729,57.128635381,go-nogo,001,47,
logos/2.jpg,properties2.xlsx,logos/2.jpg,0,0,400,a,0,3,3,1,0,71,71,82,,,['a'],0,[0.4106086603424046],2018_Jul_09_0729,57.128635381,go-nogo,001,47,
logos/2.jpg,properties2.xlsx,frogs/ab12.jpg,0,0,400,l,0,3,3,1,0,72,72,11,,,['l'],0,[0.2844855092043872],2018_Jul_09_0729,57.128635381,go-nogo,001,47,
logos/2.jpg,properties2.xlsx,frogs/ab46.jpg,0,0,400,l,0,3,3,1,0,73,73,45,,,['l'],0,[0.44962146989564644],2018_Jul_09_0729,57.128635381,go-nogo,001,47,
logos/2.jpg,properties2.xlsx,frogs/ab54.jpg,0,0,400,l,0,3,3,1,0,74,74,53,,,['l'],0,[0.34663718452793546],2018_Jul_09_0729,57.128635381,go-nogo,001,47,
logos/2.jpg,properties2.xlsx,frogs/ab47.jpg,0,0,400,l,0,3,3,1,0,75,75,46,,,['l'],0,[1.5154029287295998],2018_Jul_09_0729,57.128635381,go-nogo,001,47,
logos/2.jpg,properties2.xlsx,logos/2.jpg,0,0,400,a,0,3,3,1,0,76,76,89,,,['a'],0,[0.4437019864708418],2018_Jul_09_0729,57.128635381,go-nogo,001,47,
logos/2.jpg,properties2.xlsx,frogs/ab10.jpg,0,0,400,l,0,3,3,1,0,77,77,9,,,['l'],0,[0.28328688632609555],2018_Jul_09_0729,57.128635381,go-nogo,001,47,
logos/2.jpg,properties2.xlsx,logos/2.jpg,0,0,400,a,0,3,3,1,0,78,78,83,,,['a'],0,[0.2854110281332396],2018_Jul_09_0729,57.128635381,go-nogo,001,47,
logos/2.jpg,properties2.xlsx,frogs/ab75.jpg,0,0,400,l,0,3,3,1,0,79,79,73,,,['l'],0,[0.21908425390574848],2018_Jul_09_0729,57.128635381,go-nogo,001,47,
logos/2.jpg,properties2.xlsx,logos/2.jpg,0,0,400,a,0,3,3,1,0,80,80,81,,,['a'],0,[0.3155631318586529],2018_Jul_09_0729,57.128635381,go-nogo,001,47,
logos/2.jpg,properties2.xlsx,frogs/ab26.jpg,0,0,400,l,0,3,3,1,0,81,81,25,,,['l'],0,[0.3769584163528634],2018_Jul_09_0729,57.128635381,go-nogo,001,47,
logos/2.jpg,properties2.xlsx,frogs/ab62.jpg,0,0,400,l,0,3,3,1,0,82,82,60,,,['l'],0,[0.0334757609089138],2018_Jul_09_0729,57.128635381,go-nogo,001,47,
logos/2.jpg,properties2.xlsx,frogs/ab28.jpg,0,0,400,l,0,3,3,1,0,83,83,27,,,['l'],0,[0.35118266950303223],2018_Jul_09_0729,57.128635381,go-nogo,001,47,
logos/2.jpg,properties2.xlsx,frogs/ab43.jpg,0,0,400,l,0,3,3,1,0,84,84,42,,,['l'],0,[0.31229079322656617],2018_Jul_09_0729,57.128635381,go-nogo,001,47,
logos/2.jpg,properties2.xlsx,frogs/ab52.jpg,0,0,400,l,0,3,3,1,0,85,85,51,,,['l'],0,[0.2937277573146275],2018_Jul_09_0729,57.128635381,go-nogo,001,47,
logos/2.jpg,properties2.xlsx,frogs/ab66.jpg,0,0,400,l,0,3,3,1,0,86,86,64,,,['l'],0,[0.28012834100809414],2018_Jul_09_0729,57.128635381,go-nogo,001,47,
logos/2.jpg,properties2.xlsx,frogs/ab81.jpg,0,0,400,l,0,3,3,1,0,87,87,79,,,['l'],0,[0.34509450422774535],2018_Jul_09_0729,57.128635381,go-nogo,001,47,
logos/2.jpg,properties2.xlsx,frogs/ab6.jpg,0,0,400,l,0,3,3,1,0,88,88,5,,,['l'],0,[0.35398243121017003],2018_Jul_09_0729,57.128635381,go-nogo,001,47,
logos/2.jpg,properties2.xlsx,frogs/ab33.jpg,0,0,400,l,0,3,3,1,0,89,89,32,,,['l'],0,[0.47507056300673867],2018_Jul_09_0729,57.128635381,go-nogo,001,47,
logos/2.jpg,properties2.xlsx,,,,,,0,3,3,1,,,,,,,,,,2018_Jul_09_0729,57.128635381,go-nogo,001,47,
