pix,source,image1,x,y,size,answer,trials_2.thisRepN,trials_2.thisTrialN,trials_2.thisN,trials_2.thisIndex,trials.thisRepN,trials.thisTrialN,trials.thisN,trials.thisIndex,key_resp_3.keys,key_resp_3.rt,key_resp_2.keys,key_resp_2.corr,key_resp_2.rt,date,frameRate,expName,session,participant,
logos/2.jpg,properties2.xlsx,frogs/ab3.jpg,0,0,400,l,0,0,0,1,0,0,0,2,space,6.4938989459,['l'],0,[0.1170586598891532],2018_Jul_09_1458,60.0570911198,go-nogo,001,48,
logos/2.jpg,properties2.xlsx,frogs/ab42.jpg,0,0,400,l,0,0,0,1,0,1,1,41,,,['l'],0,[3.6485327489681367],2018_Jul_09_1458,60.0570911198,go-nogo,001,48,
logos/2.jpg,properties2.xlsx,frogs/ab7.jpg,0,0,400,l,0,0,0,1,0,2,2,6,,,['l'],0,[0.0005705960429622792],2018_Jul_09_1458,60.0570911198,go-nogo,001,48,
logos/2.jpg,properties2.xlsx,frogs/ab49.jpg,0,0,400,l,0,0,0,1,0,3,3,48,,,['l'],0,[0.6667906845505058],2018_Jul_09_1458,60.0570911198,go-nogo,001,48,
logos/2.jpg,properties2.xlsx,frogs/ab69.jpg,0,0,400,l,0,0,0,1,0,4,4,67,,,['l'],0,[0.3503795345459366],2018_Jul_09_1458,60.0570911198,go-nogo,001,48,
logos/2.jpg,properties2.xlsx,frogs/ab57.jpg,0,0,400,l,0,0,0,1,0,5,5,56,,,['l'],0,[0.08375644480474875],2018_Jul_09_1458,60.0570911198,go-nogo,001,48,
logos/2.jpg,properties2.xlsx,frogs/ab73.jpg,0,0,400,l,0,0,0,1,0,6,6,71,,,['l'],0,[0.017211179128935328],2018_Jul_09_1458,60.0570911198,go-nogo,001,48,
logos/2.jpg,properties2.xlsx,frogs/ab32.jpg,0,0,400,l,0,0,0,1,0,7,7,31,,,['l'],0,[0.46691481621019193],2018_Jul_09_1458,60.0570911198,go-nogo,001,48,
logos/2.jpg,properties2.xlsx,frogs/ab77.jpg,0,0,400,l,0,0,0,1,0,8,8,75,,,['l'],0,[0.33376000036514597],2018_Jul_09_1458,60.0570911198,go-nogo,001,48,
logos/2.jpg,properties2.xlsx,frogs/ab63.jpg,0,0,400,l,0,0,0,1,0,9,9,61,,,['l'],0,[0.40025520377093926],2018_Jul_09_1458,60.0570911198,go-nogo,001,48,
logos/2.jpg,properties2.xlsx,frogs/ab72.jpg,0,0,400,l,0,0,0,1,0,10,10,70,,,['l'],0,[0.20048799330470501],2018_Jul_09_1458,60.0570911198,go-nogo,001,48,
logos/2.jpg,properties2.xlsx,frogs/ab23.jpg,0,0,400,l,0,0,0,1,0,11,11,22,,,['l'],0,[0.3668420552603493],2018_Jul_09_1458,60.0570911198,go-nogo,001,48,
logos/2.jpg,properties2.xlsx,frogs/ab8.jpg,0,0,400,l,0,0,0,1,0,12,12,7,,,['l'],0,[0.43375539235785254],2018_Jul_09_1458,60.0570911198,go-nogo,001,48,
logos/2.jpg,properties2.xlsx,frogs/ab65.jpg,0,0,400,l,0,0,0,1,0,13,13,63,,,['l'],0,[0.05033191850816365],2018_Jul_09_1458,60.0570911198,go-nogo,001,48,
logos/2.jpg,properties2.xlsx,frogs/ab29.jpg,0,0,400,l,0,0,0,1,0,14,14,28,,,['l'],0,[0.10054778357880423],2018_Jul_09_1458,60.0570911198,go-nogo,001,48,
logos/2.jpg,properties2.xlsx,frogs/ab4.jpg,0,0,400,l,0,0,0,1,0,15,15,3,,,['l'],0,[0.11706833100834046],2018_Jul_09_1458,60.0570911198,go-nogo,001,48,
logos/2.jpg,properties2.xlsx,frogs/ab76.jpg,0,0,400,l,0,0,0,1,0,16,16,74,,,['l'],0,[0.2999907271005213],2018_Jul_09_1458,60.0570911198,go-nogo,001,48,
logos/2.jpg,properties2.xlsx,frogs/ab38.jpg,0,0,400,l,0,0,0,1,0,17,17,37,,,['l'],0,[0.06738323972240323],2018_Jul_09_1458,60.0570911198,go-nogo,001,48,
logos/2.jpg,properties2.xlsx,frogs/ab75.jpg,0,0,400,l,0,0,0,1,0,18,18,73,,,['l'],0,[0.4170943292519951],2018_Jul_09_1458,60.0570911198,go-nogo,001,48,
logos/2.jpg,properties2.xlsx,logos/2.jpg,0,0,400,a,0,0,0,1,0,19,19,81,,,['a'],0,[1.0167270542733604],2018_Jul_09_1458,60.0570911198,go-nogo,001,48,
logos/2.jpg,properties2.xlsx,frogs/ab54.jpg,0,0,400,l,0,0,0,1,0,20,20,53,,,['l'],0,[0.3169868660479551],2018_Jul_09_1458,60.0570911198,go-nogo,001,48,
logos/2.jpg,properties2.xlsx,frogs/ab48.jpg,0,0,400,l,0,0,0,1,0,21,21,47,,,['l'],0,[0.083818453746062],2018_Jul_09_1458,60.0570911198,go-nogo,001,48,
logos/2.jpg,properties2.xlsx,frogs/ab70.jpg,0,0,400,l,0,0,0,1,0,22,22,68,,,['l'],0,[0.38324768703751033],2018_Jul_09_1458,60.0570911198,go-nogo,001,48,
logos/2.jpg,properties2.xlsx,frogs/ab58.jpg,0,0,400,l,0,0,0,1,0,23,23,57,,,['l'],0,[0.20025417977012694],2018_Jul_09_1458,60.0570911198,go-nogo,001,48,
logos/2.jpg,properties2.xlsx,logos/2.jpg,0,0,400,a,0,0,0,1,0,24,24,82,,,['a'],0,[0.15007017250172794],2018_Jul_09_1458,60.0570911198,go-nogo,001,48,
logos/2.jpg,properties2.xlsx,frogs/ab41.jpg,0,0,400,l,0,0,0,1,0,25,25,40,,,['l'],0,[0.13394727874765522],2018_Jul_09_1458,60.0570911198,go-nogo,001,48,
logos/2.jpg,properties2.xlsx,frogs/ab31.jpg,0,0,400,l,0,0,0,1,0,26,26,30,,,['l'],0,[0.1503147949333652],2018_Jul_09_1458,60.0570911198,go-nogo,001,48,
logos/2.jpg,properties2.xlsx,frogs/ab17.jpg,0,0,400,l,0,0,0,1,0,27,27,16,,,['l'],0,[0.050678941024671076],2018_Jul_09_1458,60.0570911198,go-nogo,001,48,
logos/2.jpg,properties2.xlsx,frogs/ab39.jpg,0,0,400,l,0,0,0,1,0,28,28,38,,,['l'],0,[0.06716194175533019],2018_Jul_09_1458,60.0570911198,go-nogo,001,48,
logos/2.jpg,properties2.xlsx,frogs/ab25.jpg,0,0,400,l,0,0,0,1,0,29,29,24,,,['l'],0,[0.03386712223436916],2018_Jul_09_1458,60.0570911198,go-nogo,001,48,
logos/2.jpg,properties2.xlsx,frogs/ab43.jpg,0,0,400,l,0,0,0,1,0,30,30,42,,,['l'],0,[0.1338773053503246],2018_Jul_09_1458,60.0570911198,go-nogo,001,48,
logos/2.jpg,properties2.xlsx,frogs/ab66.jpg,0,0,400,l,0,0,0,1,0,31,31,64,,,['l'],0,[0.6834904321331123],2018_Jul_09_1458,60.0570911198,go-nogo,001,48,
logos/2.jpg,properties2.xlsx,frogs/ab35.jpg,0,0,400,l,0,0,0,1,0,32,32,34,,,['l'],0,[0.1504200394701911],2018_Jul_09_1458,60.0570911198,go-nogo,001,48,
logos/2.jpg,properties2.xlsx,frogs/ab37.jpg,0,0,400,l,0,0,0,1,0,33,33,36,,,['l'],0,[0.11716674887065892],2018_Jul_09_1458,60.0570911198,go-nogo,001,48,
logos/2.jpg,properties2.xlsx,frogs/ab15.jpg,0,0,400,l,0,0,0,1,0,34,34,14,,,['l'],0,[0.0835328712782939],2018_Jul_09_1458,60.0570911198,go-nogo,001,48,
logos/2.jpg,properties2.xlsx,frogs/ab47.jpg,0,0,400,l,0,0,0,1,0,35,35,46,,,['l'],0,[0.08385713822281105],2018_Jul_09_1458,60.0570911198,go-nogo,001,48,
logos/2.jpg,properties2.xlsx,frogs/ab51.jpg,0,0,400,l,0,0,0,1,0,36,36,50,,,['l'],0,[0.6501392925638356],2018_Jul_09_1458,60.0570911198,go-nogo,001,48,
logos/2.jpg,properties2.xlsx,frogs/ab44.jpg,0,0,400,l,0,0,0,1,0,37,37,43,,,['l'],0,[0.2336383149267931],2018_Jul_09_1458,60.0570911198,go-nogo,001,48,
logos/2.jpg,properties2.xlsx,frogs/ab24.jpg,0,0,400,l,0,0,0,1,0,38,38,23,,,['l'],0,[0.23357459931867197],2018_Jul_09_1458,60.0570911198,go-nogo,001,48,
logos/2.jpg,properties2.xlsx,frogs/ab9.jpg,0,0,400,l,0,0,0,1,0,39,39,8,,,['l'],0,[0.23323440347303404],2018_Jul_09_1458,60.0570911198,go-nogo,001,48,
logos/2.jpg,properties2.xlsx,frogs/ab80.jpg,0,0,400,l,0,0,0,1,0,40,40,78,,,['l'],0,[0.2670713745683315],2018_Jul_09_1458,60.0570911198,go-nogo,001,48,
logos/2.jpg,properties2.xlsx,frogs/ab68.jpg,0,0,400,l,0,0,0,1,0,41,41,66,,,['l'],0,[0.11709108658396872],2018_Jul_09_1458,60.0570911198,go-nogo,001,48,
logos/2.jpg,properties2.xlsx,frogs/ab5.jpg,0,0,400,l,0,0,0,1,0,42,42,4,,,['a'],0,[0.10035720563610084],2018_Jul_09_1458,60.0570911198,go-nogo,001,48,
logos/2.jpg,properties2.xlsx,frogs/ab33.jpg,0,0,400,l,0,0,0,1,0,43,43,32,,,['l'],0,[0.06711529282983975],2018_Jul_09_1458,60.0570911198,go-nogo,001,48,
logos/2.jpg,properties2.xlsx,frogs/ab71.jpg,0,0,400,l,0,0,0,1,0,44,44,69,,,['l'],0,[0.16705095144061488],2018_Jul_09_1458,60.0570911198,go-nogo,001,48,
logos/2.jpg,properties2.xlsx,logos/2.jpg,0,0,400,a,0,0,0,1,0,45,45,88,,,['a'],0,[0.017235072486073477],2018_Jul_09_1458,60.0570911198,go-nogo,001,48,
logos/2.jpg,properties2.xlsx,frogs/ab22.jpg,0,0,400,l,0,0,0,1,0,46,46,21,,,['l'],0,[0.4171580448637542],2018_Jul_09_1458,60.0570911198,go-nogo,001,48,
logos/2.jpg,properties2.xlsx,frogs/ab6.jpg,0,0,400,l,0,0,0,1,0,47,47,5,,,['l'],0,[0.28378363771844306],2018_Jul_09_1458,60.0570911198,go-nogo,001,48,
logos/2.jpg,properties2.xlsx,frogs/ab81.jpg,0,0,400,l,0,0,0,1,0,48,48,79,,,['l'],0,[0.017139499072072795],2018_Jul_09_1458,60.0570911198,go-nogo,001,48,
logos/2.jpg,properties2.xlsx,frogs/ab79.jpg,0,0,400,l,0,0,0,1,0,49,49,77,,,['l'],0,[0.1502101192927512],2018_Jul_09_1458,60.0570911198,go-nogo,001,48,
logos/2.jpg,properties2.xlsx,frogs/ab50.jpg,0,0,400,l,0,0,0,1,0,50,50,49,,,['l'],0,[0.23403653749119258],2018_Jul_09_1458,60.0570911198,go-nogo,001,48,
logos/2.jpg,properties2.xlsx,frogs/ab1.jpg,0,0,400,l,0,0,0,1,0,51,51,0,,,['l'],0,[0.1836500056051591],2018_Jul_09_1458,60.0570911198,go-nogo,001,48,
logos/2.jpg,properties2.xlsx,frogs/ab52.jpg,0,0,400,l,0,0,0,1,0,52,52,51,,,['l'],0,[0.21690500286786119],2018_Jul_09_1458,60.0570911198,go-nogo,001,48,
logos/2.jpg,properties2.xlsx,frogs/ab28.jpg,0,0,400,l,0,0,0,1,0,53,53,27,,,['l'],0,[0.2338653017868637],2018_Jul_09_1458,60.0570911198,go-nogo,001,48,
logos/2.jpg,properties2.xlsx,frogs/ab56.jpg,0,0,400,l,0,0,0,1,0,54,54,55,,,['l'],0,[0.00020138683612458408],2018_Jul_09_1458,60.0570911198,go-nogo,001,48,
logos/2.jpg,properties2.xlsx,frogs/ab45.jpg,0,0,400,l,0,0,0,1,0,55,55,44,,,['l'],0,[0.31708812835859135],2018_Jul_09_1458,60.0570911198,go-nogo,001,48,
logos/2.jpg,properties2.xlsx,frogs/ab14.jpg,0,0,400,l,0,0,0,1,0,56,56,13,,,['l'],0,[0.2504137247997278],2018_Jul_09_1458,60.0570911198,go-nogo,001,48,
logos/2.jpg,properties2.xlsx,frogs/ab55.jpg,0,0,400,l,0,0,0,1,0,57,57,54,,,['l'],0,[0.2336616393913573],2018_Jul_09_1458,60.0570911198,go-nogo,001,48,
logos/2.jpg,properties2.xlsx,frogs/ab62.jpg,0,0,400,l,0,0,0,1,0,58,58,60,,,['l'],0,[0.23379419061529916],2018_Jul_09_1458,60.0570911198,go-nogo,001,48,
logos/2.jpg,properties2.xlsx,frogs/ab61.jpg,0,0,400,l,0,0,0,1,0,59,59,59,,,['l'],0,[0.16703445364692016],2018_Jul_09_1458,60.0570911198,go-nogo,001,48,
logos/2.jpg,properties2.xlsx,logos/2.jpg,0,0,400,a,0,0,0,1,0,60,60,83,,,['a'],0,[0.050113464985770406],2018_Jul_09_1458,60.0570911198,go-nogo,001,48,
logos/2.jpg,properties2.xlsx,logos/2.jpg,0,0,400,a,0,0,0,1,0,61,61,87,,,['a'],0,[0.16740195617967402],2018_Jul_09_1458,60.0570911198,go-nogo,001,48,
logos/2.jpg,properties2.xlsx,frogs/ab2.jpg,0,0,400,l,0,0,0,1,0,62,62,1,,,['l'],0,[0.20033496206087875],2018_Jul_09_1458,60.0570911198,go-nogo,001,48,
logos/2.jpg,properties2.xlsx,frogs/ab60.jpg,0,0,400,l,0,0,0,1,0,63,63,58,,,['l'],0,[0.2672465924952121],2018_Jul_09_1458,60.0570911198,go-nogo,001,48,
logos/2.jpg,properties2.xlsx,frogs/ab64.jpg,0,0,400,l,0,0,0,1,0,64,64,62,,,['l'],0,[0.21712118083087262],2018_Jul_09_1458,60.0570911198,go-nogo,001,48,
logos/2.jpg,properties2.xlsx,frogs/ab34.jpg,0,0,400,l,0,0,0,1,0,65,65,33,,,['l'],0,[0.25036992031527916],2018_Jul_09_1458,60.0570911198,go-nogo,001,48,
logos/2.jpg,properties2.xlsx,logos/2.jpg,0,0,400,a,0,0,0,1,0,66,66,89,,,['l'],0,[0.483698759420804],2018_Jul_09_1458,60.0570911198,go-nogo,001,48,
logos/2.jpg,properties2.xlsx,frogs/ab78.jpg,0,0,400,l,0,0,0,1,0,67,67,76,,,['l'],0,[0.1668876801886654],2018_Jul_09_1458,60.0570911198,go-nogo,001,48,
logos/2.jpg,properties2.xlsx,frogs/ab46.jpg,0,0,400,l,0,0,0,1,0,68,68,45,,,['l'],0,[0.26710380125950905],2018_Jul_09_1458,60.0570911198,go-nogo,001,48,
logos/2.jpg,properties2.xlsx,logos/2.jpg,0,0,400,a,0,0,0,1,0,69,69,80,,,['a'],0,[0.5003217069424863],2018_Jul_09_1458,60.0570911198,go-nogo,001,48,
logos/2.jpg,properties2.xlsx,frogs/ab12.jpg,0,0,400,l,0,0,0,1,0,70,70,11,,,['l'],0,[0.300543118686619],2018_Jul_09_1458,60.0570911198,go-nogo,001,48,
logos/2.jpg,properties2.xlsx,frogs/ab36.jpg,0,0,400,l,0,0,0,1,0,71,71,35,,,['l'],0,[0.28365336205388303],2018_Jul_09_1458,60.0570911198,go-nogo,001,48,
logos/2.jpg,properties2.xlsx,frogs/ab18.jpg,0,0,400,l,0,0,0,1,0,72,72,17,,,['l'],0,[0.20032984206045512],2018_Jul_09_1458,60.0570911198,go-nogo,001,48,
logos/2.jpg,properties2.xlsx,frogs/ab40.jpg,0,0,400,l,0,0,0,1,0,73,73,39,,,['l'],0,[0.3003326296166051],2018_Jul_09_1458,60.0570911198,go-nogo,001,48,
logos/2.jpg,properties2.xlsx,logos/2.jpg,0,0,400,a,0,0,0,1,0,74,74,86,,,['a'],0,[0.2504467203798413],2018_Jul_09_1458,60.0570911198,go-nogo,001,48,
logos/2.jpg,properties2.xlsx,logos/2.jpg,0,0,400,a,0,0,0,1,0,75,75,84,,,['a'],0,[0.15061118630183046],2018_Jul_09_1458,60.0570911198,go-nogo,001,48,
logos/2.jpg,properties2.xlsx,frogs/ab10.jpg,0,0,400,l,0,0,0,1,0,76,76,9,,,['l'],0,[0.08375530702687684],2018_Jul_09_1458,60.0570911198,go-nogo,001,48,
logos/2.jpg,properties2.xlsx,frogs/ab20.jpg,0,0,400,l,0,0,0,1,0,77,77,19,,,['l'],0,[0.2337503861344885],2018_Jul_09_1458,60.0570911198,go-nogo,001,48,
logos/2.jpg,properties2.xlsx,frogs/ab19.jpg,0,0,400,l,0,0,0,1,0,78,78,18,,,['l'],0,[0.016941525565925986],2018_Jul_09_1458,60.0570911198,go-nogo,001,48,
logos/2.jpg,properties2.xlsx,frogs/ab21.jpg,0,0,400,l,0,0,0,1,0,79,79,20,,,['l'],0,[0.16698666693991981],2018_Jul_09_1458,60.0570911198,go-nogo,001,48,
logos/2.jpg,properties2.xlsx,frogs/ab13.jpg,0,0,400,l,0,0,0,1,0,80,80,12,,,['l'],0,[0.18422230831492925],2018_Jul_09_1458,60.0570911198,go-nogo,001,48,
logos/2.jpg,properties2.xlsx,frogs/ab67.jpg,0,0,400,l,0,0,0,1,0,81,81,65,,,['l'],0,[0.000572871598706115],2018_Jul_09_1458,60.0570911198,go-nogo,001,48,
logos/2.jpg,properties2.xlsx,frogs/ab11.jpg,0,0,400,l,0,0,0,1,0,82,82,10,,,['l'],0,[0.26710266348163714],2018_Jul_09_1458,60.0570911198,go-nogo,001,48,
logos/2.jpg,properties2.xlsx,frogs/ab16.jpg,0,0,400,l,0,0,0,1,0,83,83,15,,,['l'],0,[0.3008389411625103],2018_Jul_09_1458,60.0570911198,go-nogo,001,48,
logos/2.jpg,properties2.xlsx,logos/2.jpg,0,0,400,a,0,0,0,1,0,84,84,85,,,['a'],0,[0.2003759220970096],2018_Jul_09_1458,60.0570911198,go-nogo,001,48,
logos/2.jpg,properties2.xlsx,frogs/ab74.jpg,0,0,400,l,0,0,0,1,0,85,85,72,,,['l'],0,[0.03387224223479279],2018_Jul_09_1458,60.0570911198,go-nogo,001,48,
logos/2.jpg,properties2.xlsx,frogs/ab53.jpg,0,0,400,l,0,0,0,1,0,86,86,52,,,['l'],0,[0.08373482700699242],2018_Jul_09_1458,60.0570911198,go-nogo,001,48,
logos/2.jpg,properties2.xlsx,frogs/ab27.jpg,0,0,400,l,0,0,0,1,0,87,87,26,,,['l'],0,[0.13378742083295947],2018_Jul_09_1458,60.0570911198,go-nogo,001,48,
logos/2.jpg,properties2.xlsx,frogs/ab30.jpg,0,0,400,l,0,0,0,1,0,88,88,29,,,['l'],0,[0.30033831851324067],2018_Jul_09_1458,60.0570911198,go-nogo,001,48,
logos/2.jpg,properties2.xlsx,frogs/ab26.jpg,0,0,400,l,0,0,0,1,0,89,89,25,,,['l'],0,[0.3003815541014774],2018_Jul_09_1458,60.0570911198,go-nogo,001,48,
logos/2.jpg,properties2.xlsx,,,,,,0,0,0,1,,,,,,,,,,2018_Jul_09_1458,60.0570911198,go-nogo,001,48,
logos/3.jpg,properties3.xlsx,frogs/ab30.jpg,0,0,400,l,0,1,1,2,0,0,0,29,space,2.829691588,['l'],0,[0.00020195572869852185],2018_Jul_09_1458,60.0570911198,go-nogo,001,48,
logos/3.jpg,properties3.xlsx,frogs/ab56.jpg,0,0,400,l,0,1,1,2,0,1,1,55,,,['l'],0,[0.6334685583351529],2018_Jul_09_1458,60.0570911198,go-nogo,001,48,
logos/3.jpg,properties3.xlsx,frogs/ab7.jpg,0,0,400,l,0,1,1,2,0,2,2,6,,,['l'],0,[0.16713002706092084],2018_Jul_09_1458,60.0570911198,go-nogo,001,48,
logos/3.jpg,properties3.xlsx,frogs/ab68.jpg,0,0,400,l,0,1,1,2,0,3,3,66,,,['l'],0,[0.183624974473787],2018_Jul_09_1458,60.0570911198,go-nogo,001,48,
logos/3.jpg,properties3.xlsx,frogs/ab20.jpg,0,0,400,l,0,1,1,2,0,4,4,19,,,['l'],0,[0.15053154178895056],2018_Jul_09_1458,60.0570911198,go-nogo,001,48,
logos/3.jpg,properties3.xlsx,frogs/ab63.jpg,0,0,400,l,0,1,1,2,0,5,5,61,,,['l'],0,[0.13391086982665001],2018_Jul_09_1458,60.0570911198,go-nogo,001,48,
logos/3.jpg,properties3.xlsx,frogs/ab43.jpg,0,0,400,l,0,1,1,2,0,6,6,42,,,['l'],0,[0.2504512714986049],2018_Jul_09_1458,60.0570911198,go-nogo,001,48,
logos/3.jpg,properties3.xlsx,frogs/ab69.jpg,0,0,400,l,0,1,1,2,0,7,7,67,,,['l'],0,[0.1669792713764764],2018_Jul_09_1458,60.0570911198,go-nogo,001,48,
logos/3.jpg,properties3.xlsx,frogs/ab70.jpg,0,0,400,l,0,1,1,2,0,8,8,68,,,['l'],0,[0.3669410420152417],2018_Jul_09_1458,60.0570911198,go-nogo,001,48,
logos/3.jpg,properties3.xlsx,frogs/ab81.jpg,0,0,400,l,0,1,1,2,0,9,9,79,,,['l'],0,[0.4500654507210129],2018_Jul_09_1458,60.0570911198,go-nogo,001,48,
logos/3.jpg,properties3.xlsx,frogs/ab72.jpg,0,0,400,l,0,1,1,2,0,10,10,70,,,['l'],0,[0.06721484847003012],2018_Jul_09_1458,60.0570911198,go-nogo,001,48,
logos/3.jpg,properties3.xlsx,frogs/ab64.jpg,0,0,400,l,0,1,1,2,0,11,11,62,,,['l'],0,[0.13348989169026027],2018_Jul_09_1458,60.0570911198,go-nogo,001,48,
logos/3.jpg,properties3.xlsx,frogs/ab25.jpg,0,0,400,l,0,1,1,2,0,12,12,24,,,['l'],0,[0.16719658712099772],2018_Jul_09_1458,60.0570911198,go-nogo,001,48,
logos/3.jpg,properties3.xlsx,logos/3.jpg,0,0,400,a,0,1,1,2,0,13,13,84,,,['a'],0,[0.017067819007934304],2018_Jul_09_1458,60.0570911198,go-nogo,001,48,
logos/3.jpg,properties3.xlsx,frogs/ab4.jpg,0,0,400,l,0,1,1,2,0,14,14,3,,,['l'],0,[0.0005831116104673129],2018_Jul_09_1458,60.0570911198,go-nogo,001,48,
logos/3.jpg,properties3.xlsx,frogs/ab48.jpg,0,0,400,l,0,1,1,2,0,15,15,47,,,['l'],0,[0.7667900587730401],2018_Jul_09_1458,60.0570911198,go-nogo,001,48,
logos/3.jpg,properties3.xlsx,frogs/ab34.jpg,0,0,400,l,0,1,1,2,0,16,16,33,,,['l'],0,[0.8835113672612351],2018_Jul_09_1458,60.0570911198,go-nogo,001,48,
logos/3.jpg,properties3.xlsx,frogs/ab6.jpg,0,0,400,l,0,1,1,2,0,17,17,5,,,['l'],0,[0.017278308077948168],2018_Jul_09_1458,60.0570911198,go-nogo,001,48,
logos/3.jpg,properties3.xlsx,frogs/ab37.jpg,0,0,400,l,0,1,1,2,0,18,18,36,,,['l'],0,[0.10051137465779902],2018_Jul_09_1458,60.0570911198,go-nogo,001,48,
logos/3.jpg,properties3.xlsx,frogs/ab26.jpg,0,0,400,l,0,1,1,2,0,19,19,25,,,['l'],0,[0.6335356872841658],2018_Jul_09_1458,60.0570911198,go-nogo,001,48,
logos/3.jpg,properties3.xlsx,frogs/ab53.jpg,0,0,400,l,0,1,1,2,0,20,20,52,,,['l'],0,[0.4000481280418171],2018_Jul_09_1458,60.0570911198,go-nogo,001,48,
logos/3.jpg,properties3.xlsx,frogs/ab74.jpg,0,0,400,l,0,1,1,2,0,21,21,72,,,['l'],0,[0.3338066492942744],2018_Jul_09_1458,60.0570911198,go-nogo,001,48,
logos/3.jpg,properties3.xlsx,logos/3.jpg,0,0,400,a,0,1,1,2,0,22,22,85,,,['a'],0,[0.08388046269101324],2018_Jul_09_1458,60.0570911198,go-nogo,001,48,
logos/3.jpg,properties3.xlsx,frogs/ab36.jpg,0,0,400,l,0,1,1,2,0,23,23,35,,,['l'],0,[0.3834854827946401],2018_Jul_09_1458,60.0570911198,go-nogo,001,48,
logos/3.jpg,properties3.xlsx,frogs/ab47.jpg,0,0,400,l,0,1,1,2,0,24,24,46,,,['l'],0,[0.5165543963485106],2018_Jul_09_1458,60.0570911198,go-nogo,001,48,
logos/3.jpg,properties3.xlsx,frogs/ab13.jpg,0,0,400,l,0,1,1,2,0,25,25,12,,,['l'],0,[0.4004571594996378],2018_Jul_09_1458,60.0570911198,go-nogo,001,48,
logos/3.jpg,properties3.xlsx,frogs/ab71.jpg,0,0,400,l,0,1,1,2,0,26,26,69,,,['l'],0,[0.31707788835046813],2018_Jul_09_1458,60.0570911198,go-nogo,001,48,
logos/3.jpg,properties3.xlsx,frogs/ab16.jpg,0,0,400,l,0,1,1,2,0,27,27,15,,,['l'],0,[0.31697321270621615],2018_Jul_09_1458,60.0570911198,go-nogo,001,48,
logos/3.jpg,properties3.xlsx,frogs/ab41.jpg,0,0,400,l,0,1,1,2,0,28,28,40,,,['l'],0,[0.2671771879904554],2018_Jul_09_1458,60.0570911198,go-nogo,001,48,
logos/3.jpg,properties3.xlsx,frogs/ab18.jpg,0,0,400,l,0,1,1,2,0,29,29,17,,,['l'],0,[0.2671333835096448],2018_Jul_09_1458,60.0570911198,go-nogo,001,48,
logos/3.jpg,properties3.xlsx,frogs/ab73.jpg,0,0,400,l,0,1,1,2,0,30,30,71,,,['l'],0,[0.30029963403285365],2018_Jul_09_1458,60.0570911198,go-nogo,001,48,
logos/3.jpg,properties3.xlsx,frogs/ab57.jpg,0,0,400,l,0,1,1,2,0,31,31,56,,,['l'],0,[0.3004452697132365],2018_Jul_09_1458,60.0570911198,go-nogo,001,48,
logos/3.jpg,properties3.xlsx,frogs/ab42.jpg,0,0,400,l,0,1,1,2,0,32,32,41,,,['l'],0,[0.3169123415427748],2018_Jul_09_1458,60.0570911198,go-nogo,001,48,
logos/3.jpg,properties3.xlsx,frogs/ab44.jpg,0,0,400,l,0,1,1,2,0,33,33,43,,,['l'],0,[0.3170414794331009],2018_Jul_09_1458,60.0570911198,go-nogo,001,48,
logos/3.jpg,properties3.xlsx,frogs/ab61.jpg,0,0,400,l,0,1,1,2,0,34,34,59,,,['l'],0,[0.3338459026599594],2018_Jul_09_1458,60.0570911198,go-nogo,001,48,
logos/3.jpg,properties3.xlsx,frogs/ab46.jpg,0,0,400,l,0,1,1,2,0,35,35,45,,,['l'],0,[0.3669740375953552],2018_Jul_09_1458,60.0570911198,go-nogo,001,48,
logos/3.jpg,properties3.xlsx,frogs/ab40.jpg,0,0,400,l,0,1,1,2,0,36,36,39,,,['l'],0,[0.3333538133520051],2018_Jul_09_1458,60.0570911198,go-nogo,001,48,
logos/3.jpg,properties3.xlsx,frogs/ab27.jpg,0,0,400,l,0,1,1,2,0,37,37,26,,,['l'],0,[0.3170249816394062],2018_Jul_09_1458,60.0570911198,go-nogo,001,48,
logos/3.jpg,properties3.xlsx,frogs/ab39.jpg,0,0,400,l,0,1,1,2,0,38,38,38,,,['l'],0,[0.3003718829859281],2018_Jul_09_1458,60.0570911198,go-nogo,001,48,
logos/3.jpg,properties3.xlsx,frogs/ab45.jpg,0,0,400,l,0,1,1,2,0,39,39,44,,,['l'],0,[1.2831288460474752],2018_Jul_09_1458,60.0570911198,go-nogo,001,48,
logos/3.jpg,properties3.xlsx,frogs/ab55.jpg,0,0,400,l,0,1,1,2,0,40,40,54,,,['l'],0,[0.36706221544591244],2018_Jul_09_1458,60.0570911198,go-nogo,001,48,
logos/3.jpg,properties3.xlsx,frogs/ab2.jpg,0,0,400,l,0,1,1,2,0,41,41,1,,,['l'],0,[0.26707649457239313],2018_Jul_09_1458,60.0570911198,go-nogo,001,48,
logos/3.jpg,properties3.xlsx,frogs/ab19.jpg,0,0,400,l,0,1,1,2,0,42,42,18,,,['l'],0,[0.3337167647732713],2018_Jul_09_1458,60.0570911198,go-nogo,001,48,
logos/3.jpg,properties3.xlsx,frogs/ab3.jpg,0,0,400,l,0,1,1,2,0,43,43,2,,,['l'],0,[0.35034767674005707],2018_Jul_09_1458,60.0570911198,go-nogo,001,48,
logos/3.jpg,properties3.xlsx,frogs/ab21.jpg,0,0,400,l,0,1,1,2,0,44,44,20,,,['l'],0,[0.3670064642901707],2018_Jul_09_1458,60.0570911198,go-nogo,001,48,
logos/3.jpg,properties3.xlsx,frogs/ab52.jpg,0,0,400,l,0,1,1,2,0,45,45,51,,,['l'],0,[0.2838331310922513],2018_Jul_09_1458,60.0570911198,go-nogo,001,48,
logos/3.jpg,properties3.xlsx,logos/3.jpg,0,0,400,a,0,1,1,2,0,46,46,80,,,['a'],0,[0.5504237941386236],2018_Jul_09_1458,60.0570911198,go-nogo,001,48,
logos/3.jpg,properties3.xlsx,logos/3.jpg,0,0,400,a,0,1,1,2,0,47,47,89,,,['a'],0,[0.08380821373793879],2018_Jul_09_1458,60.0570911198,go-nogo,001,48,
logos/3.jpg,properties3.xlsx,frogs/ab32.jpg,0,0,400,l,0,1,1,2,0,48,48,31,,,['l'],0,[0.28382914886969957],2018_Jul_09_1458,60.0570911198,go-nogo,001,48,
logos/3.jpg,properties3.xlsx,frogs/ab22.jpg,0,0,400,l,0,1,1,2,0,49,49,21,,,['l'],0,[0.2170324340913794],2018_Jul_09_1458,60.0570911198,go-nogo,001,48,
logos/3.jpg,properties3.xlsx,frogs/ab14.jpg,0,0,400,l,0,1,1,2,0,50,50,13,,,['l'],0,[0.3004321852567955],2018_Jul_09_1458,60.0570911198,go-nogo,001,48,
logos/3.jpg,properties3.xlsx,frogs/ab75.jpg,0,0,400,l,0,1,1,2,0,51,51,73,,,['l'],0,[0.26713224573177285],2018_Jul_09_1458,60.0570911198,go-nogo,001,48,
logos/3.jpg,properties3.xlsx,frogs/ab12.jpg,0,0,400,l,0,1,1,2,0,52,52,11,,,['l'],0,[0.2671077834893367],2018_Jul_09_1458,60.0570911198,go-nogo,001,48,
logos/3.jpg,properties3.xlsx,frogs/ab11.jpg,0,0,400,l,0,1,1,2,0,53,53,10,,,['l'],0,[0.3003115807114227],2018_Jul_09_1458,60.0570911198,go-nogo,001,48,
logos/3.jpg,properties3.xlsx,frogs/ab49.jpg,0,0,400,l,0,1,1,2,0,54,54,48,,,['l'],0,[0.31726391517804586],2018_Jul_09_1458,60.0570911198,go-nogo,001,48,
logos/3.jpg,properties3.xlsx,frogs/ab62.jpg,0,0,400,l,0,1,1,2,0,55,55,60,,,['l'],0,[0.2500445155928901],2018_Jul_09_1458,60.0570911198,go-nogo,001,48,
logos/3.jpg,properties3.xlsx,frogs/ab31.jpg,0,0,400,l,0,1,1,2,0,56,56,30,,,['l'],0,[0.31702725719515],2018_Jul_09_1458,60.0570911198,go-nogo,001,48,
logos/3.jpg,properties3.xlsx,frogs/ab29.jpg,0,0,400,l,0,1,1,2,0,57,57,28,,,['l'],0,[0.3003479896324279],2018_Jul_09_1458,60.0570911198,go-nogo,001,48,
logos/3.jpg,properties3.xlsx,frogs/ab65.jpg,0,0,400,l,0,1,1,2,0,58,58,63,,,['l'],0,[0.2171132163821312],2018_Jul_09_1458,60.0570911198,go-nogo,001,48,
logos/3.jpg,properties3.xlsx,frogs/ab60.jpg,0,0,400,l,0,1,1,2,0,59,59,58,,,['l'],0,[0.18386618356453255],2018_Jul_09_1458,60.0570911198,go-nogo,001,48,
logos/3.jpg,properties3.xlsx,frogs/ab24.jpg,0,0,400,l,0,1,1,2,0,60,60,23,,,['l'],0,[0.23373445722972974],2018_Jul_09_1458,60.0570911198,go-nogo,001,48,
logos/3.jpg,properties3.xlsx,frogs/ab10.jpg,0,0,400,l,0,1,1,2,0,61,61,9,,,['l'],0,[0.2004134687995247],2018_Jul_09_1458,60.0570911198,go-nogo,001,48,
logos/3.jpg,properties3.xlsx,frogs/ab33.jpg,0,0,400,l,0,1,1,2,0,62,62,32,,,['l'],0,[0.2171251630570623],2018_Jul_09_1458,60.0570911198,go-nogo,001,48,
logos/3.jpg,properties3.xlsx,frogs/ab51.jpg,0,0,400,l,0,1,1,2,0,63,63,50,,,['l'],0,[0.23376347058729152],2018_Jul_09_1458,60.0570911198,go-nogo,001,48,
logos/3.jpg,properties3.xlsx,logos/3.jpg,0,0,400,a,0,1,1,2,0,64,64,83,,,['a'],0,[0.0005734404912800528],2018_Jul_09_1458,60.0570911198,go-nogo,001,48,
logos/3.jpg,properties3.xlsx,frogs/ab9.jpg,0,0,400,l,0,1,1,2,0,65,65,8,,,['l'],0,[0.20036909542614012],2018_Jul_09_1458,60.0570911198,go-nogo,001,48,
logos/3.jpg,properties3.xlsx,logos/3.jpg,0,0,400,a,0,1,1,2,0,66,66,81,,,['a'],0,[0.08382812486524926],2018_Jul_09_1458,60.0570911198,go-nogo,001,48,
logos/3.jpg,properties3.xlsx,frogs/ab67.jpg,0,0,400,l,0,1,1,2,0,67,67,65,,,['l'],0,[0.1338562564451422],2018_Jul_09_1458,60.0570911198,go-nogo,001,48,
logos/3.jpg,properties3.xlsx,frogs/ab66.jpg,0,0,400,l,0,1,1,2,0,68,68,64,,,['l'],0,[0.2667857921005634],2018_Jul_09_1458,60.0570911198,go-nogo,001,48,
logos/3.jpg,properties3.xlsx,logos/3.jpg,0,0,400,a,0,1,1,2,0,69,69,87,,,['a'],0,[0.01703596120205475],2018_Jul_09_1458,60.0570911198,go-nogo,001,48,
logos/3.jpg,properties3.xlsx,frogs/ab1.jpg,0,0,400,l,0,1,1,2,0,70,70,0,,,['l'],0,[0.46697853182195104],2018_Jul_09_1458,60.0570911198,go-nogo,001,48,
logos/3.jpg,properties3.xlsx,logos/3.jpg,0,0,400,a,0,1,1,2,0,71,71,88,,,['a'],0,[0.5502047717309324],2018_Jul_09_1458,60.0570911198,go-nogo,001,48,
logos/3.jpg,properties3.xlsx,frogs/ab8.jpg,0,0,400,l,0,1,1,2,0,72,72,7,,,['l'],0,[0.0005774227138317656],2018_Jul_09_1458,60.0570911198,go-nogo,001,48,
logos/3.jpg,properties3.xlsx,frogs/ab15.jpg,0,0,400,l,0,1,1,2,0,73,73,14,,,['l'],0,[0.2836567753874988],2018_Jul_09_1458,60.0570911198,go-nogo,001,48,
logos/3.jpg,properties3.xlsx,frogs/ab38.jpg,0,0,400,l,0,1,1,2,0,74,74,37,,,['l'],0,[0.18407382818986662],2018_Jul_09_1458,60.0570911198,go-nogo,001,48,
logos/3.jpg,properties3.xlsx,frogs/ab23.jpg,0,0,400,l,0,1,1,2,0,75,75,22,,,['l'],0,[0.23366732828435488],2018_Jul_09_1458,60.0570911198,go-nogo,001,48,
logos/3.jpg,properties3.xlsx,frogs/ab77.jpg,0,0,400,l,0,1,1,2,0,76,76,75,,,['l'],0,[0.2998894647935231],2018_Jul_09_1458,60.0570911198,go-nogo,001,48,
logos/3.jpg,properties3.xlsx,frogs/ab76.jpg,0,0,400,l,0,1,1,2,0,77,77,74,,,['l'],0,[0.35037555231974693],2018_Jul_09_1458,60.0570911198,go-nogo,001,48,
logos/3.jpg,properties3.xlsx,frogs/ab35.jpg,0,0,400,l,0,1,1,2,0,78,78,34,,,['l'],0,[0.16702535141666885],2018_Jul_09_1458,60.0570911198,go-nogo,001,48,
logos/3.jpg,properties3.xlsx,frogs/ab54.jpg,0,0,400,l,0,1,1,2,0,79,79,53,,,['l'],0,[0.08383893376594642],2018_Jul_09_1458,60.0570911198,go-nogo,001,48,
logos/3.jpg,properties3.xlsx,frogs/ab17.jpg,0,0,400,l,0,1,1,2,0,80,80,16,,,['l'],0,[0.13409860332103563],2018_Jul_09_1458,60.0570911198,go-nogo,001,48,
logos/3.jpg,properties3.xlsx,frogs/ab79.jpg,0,0,400,l,0,1,1,2,0,81,81,77,,,['l'],0,[0.21701422962723882],2018_Jul_09_1458,60.0570911198,go-nogo,001,48,
logos/3.jpg,properties3.xlsx,frogs/ab78.jpg,0,0,400,l,0,1,1,2,0,82,82,76,,,['l'],0,[0.23363091936334968],2018_Jul_09_1458,60.0570911198,go-nogo,001,48,
logos/3.jpg,properties3.xlsx,frogs/ab80.jpg,0,0,400,l,0,1,1,2,0,83,83,78,,,['l'],0,[0.21718318977218587],2018_Jul_09_1458,60.0570911198,go-nogo,001,48,
logos/3.jpg,properties3.xlsx,logos/3.jpg,0,0,400,a,0,1,1,2,0,84,84,82,,,['a'],0,[0.01713210350862937],2018_Jul_09_1458,60.0570911198,go-nogo,001,48,
logos/3.jpg,properties3.xlsx,logos/3.jpg,0,0,400,a,0,1,1,2,0,85,85,86,,,['l'],0,[0.35065203255726374],2018_Jul_09_1458,60.0570911198,go-nogo,001,48,
logos/3.jpg,properties3.xlsx,frogs/ab50.jpg,0,0,400,l,0,1,1,2,0,86,86,49,,,['l'],0,[0.333354951129877],2018_Jul_09_1458,60.0570911198,go-nogo,001,48,
logos/3.jpg,properties3.xlsx,frogs/ab58.jpg,0,0,400,l,0,1,1,2,0,87,87,57,,,['l'],0,[0.1836670722841518],2018_Jul_09_1458,60.0570911198,go-nogo,001,48,
logos/3.jpg,properties3.xlsx,frogs/ab5.jpg,0,0,400,l,0,1,1,2,0,88,88,4,,,['l'],0,[0.26695133890825673],2018_Jul_09_1458,60.0570911198,go-nogo,001,48,
logos/3.jpg,properties3.xlsx,frogs/ab28.jpg,0,0,400,l,0,1,1,2,0,89,89,27,,,['l'],0,[0.30044356304279063],2018_Jul_09_1458,60.0570911198,go-nogo,001,48,
logos/3.jpg,properties3.xlsx,,,,,,0,1,1,2,,,,,,,,,,2018_Jul_09_1458,60.0570911198,go-nogo,001,48,
logos/1.jpg,properties1.xlsx,frogs/ab25.jpg,0,0,400,l,0,2,2,0,0,0,0,24,space,6.93115528347,['l'],0,[0.033039957084838534],2018_Jul_09_1458,60.0570911198,go-nogo,001,48,
logos/1.jpg,properties1.xlsx,frogs/ab66.jpg,0,0,400,l,0,2,2,0,0,1,1,64,,,['l'],0,[1.4497576815701905],2018_Jul_09_1458,60.0570911198,go-nogo,001,48,
logos/1.jpg,properties1.xlsx,frogs/ab30.jpg,0,0,400,l,0,2,2,0,0,2,2,29,,,['l'],0,[0.3171632217563456],2018_Jul_09_1458,60.0570911198,go-nogo,001,48,
logos/1.jpg,properties1.xlsx,frogs/ab68.jpg,0,0,400,l,0,2,2,0,0,3,3,66,,,['l'],0,[0.31705683944528573],2018_Jul_09_1458,60.0570911198,go-nogo,001,48,
logos/1.jpg,properties1.xlsx,frogs/ab17.jpg,0,0,400,l,0,2,2,0,0,4,4,16,,,['l'],0,[0.28370683765024296],2018_Jul_09_1458,60.0570911198,go-nogo,001,48,
logos/1.jpg,properties1.xlsx,frogs/ab33.jpg,0,0,400,l,0,2,2,0,0,5,5,32,,,['l'],0,[0.2670105034048902],2018_Jul_09_1458,60.0570911198,go-nogo,001,48,
logos/1.jpg,properties1.xlsx,frogs/ab45.jpg,0,0,400,l,0,2,2,0,0,6,6,44,,,['l'],0,[0.15059980851219734],2018_Jul_09_1458,60.0570911198,go-nogo,001,48,
logos/1.jpg,properties1.xlsx,frogs/ab22.jpg,0,0,400,l,0,2,2,0,0,7,7,21,,,['l'],0,[0.26718458355026087],2018_Jul_09_1458,60.0570911198,go-nogo,001,48,
logos/1.jpg,properties1.xlsx,frogs/ab74.jpg,0,0,400,l,0,2,2,0,0,8,8,72,,,['l'],0,[0.2835873708827421],2018_Jul_09_1458,60.0570911198,go-nogo,001,48,
logos/1.jpg,properties1.xlsx,frogs/ab70.jpg,0,0,400,l,0,2,2,0,0,9,9,68,,,['l'],0,[0.2337600572500378],2018_Jul_09_1458,60.0570911198,go-nogo,001,48,
logos/1.jpg,properties1.xlsx,frogs/ab47.jpg,0,0,400,l,0,2,2,0,0,10,10,46,,,['l'],0,[0.3003838296608592],2018_Jul_09_1458,60.0570911198,go-nogo,001,48,
logos/1.jpg,properties1.xlsx,logos/1.jpg,0,0,400,a,0,2,2,0,0,11,11,84,,,['a'],0,[0.13374304745957488],2018_Jul_09_1458,60.0570911198,go-nogo,001,48,
logos/1.jpg,properties1.xlsx,frogs/ab38.jpg,0,0,400,l,0,2,2,0,0,12,12,37,,,['l'],0,[0.017222556918568444],2018_Jul_09_1458,60.0570911198,go-nogo,001,48,
logos/1.jpg,properties1.xlsx,frogs/ab34.jpg,0,0,400,l,0,2,2,0,0,13,13,33,,,['l'],0,[0.20024337087306776],2018_Jul_09_1458,60.0570911198,go-nogo,001,48,
logos/1.jpg,properties1.xlsx,frogs/ab41.jpg,0,0,400,l,0,2,2,0,0,14,14,40,,,['l'],0,[0.2837568999166251],2018_Jul_09_1458,60.0570911198,go-nogo,001,48,
logos/1.jpg,properties1.xlsx,frogs/ab77.jpg,0,0,400,l,0,2,2,0,0,15,15,75,,,['l'],0,[0.38358446954589454],2018_Jul_09_1458,60.0570911198,go-nogo,001,48,
logos/1.jpg,properties1.xlsx,frogs/ab15.jpg,0,0,400,l,0,2,2,0,0,16,16,14,,,['l'],0,[0.28381265107600484],2018_Jul_09_1458,60.0570911198,go-nogo,001,48,
logos/1.jpg,properties1.xlsx,logos/1.jpg,0,0,400,a,0,2,2,0,0,17,17,87,,,['a'],0,[0.13361163401350495],2018_Jul_09_1458,60.0570911198,go-nogo,001,48,
logos/1.jpg,properties1.xlsx,frogs/ab36.jpg,0,0,400,l,0,2,2,0,0,18,18,35,,,['l'],0,[0.08400163612532197],2018_Jul_09_1458,60.0570911198,go-nogo,001,48,
logos/1.jpg,properties1.xlsx,frogs/ab81.jpg,0,0,400,l,0,2,2,0,0,19,19,79,,,['l'],0,[0.41697600026236614],2018_Jul_09_1458,60.0570911198,go-nogo,001,48,
logos/1.jpg,properties1.xlsx,frogs/ab71.jpg,0,0,400,l,0,2,2,0,0,20,20,69,,,['l'],0,[0.3669057708684704],2018_Jul_09_1458,60.0570911198,go-nogo,001,48,
logos/1.jpg,properties1.xlsx,frogs/ab14.jpg,0,0,400,l,0,2,2,0,0,21,21,13,,,['l'],0,[0.3003041851479793],2018_Jul_09_1458,60.0570911198,go-nogo,001,48,
logos/1.jpg,properties1.xlsx,frogs/ab4.jpg,0,0,400,l,0,2,2,0,0,22,22,3,,,['l'],0,[0.3170335149807215],2018_Jul_09_1458,60.0570911198,go-nogo,001,48,
logos/1.jpg,properties1.xlsx,logos/1.jpg,0,0,400,a,0,2,2,0,0,23,23,89,,,['a'],0,[0.1170626421153429],2018_Jul_09_1458,60.0570911198,go-nogo,001,48,
logos/1.jpg,properties1.xlsx,frogs/ab10.jpg,0,0,400,l,0,2,2,0,0,24,24,9,,,['l'],0,[0.3171654973157274],2018_Jul_09_1458,60.0570911198,go-nogo,001,48,
logos/1.jpg,properties1.xlsx,frogs/ab37.jpg,0,0,400,l,0,2,2,0,0,25,25,36,,,['l'],0,[0.2004686510663305],2018_Jul_09_1458,60.0570911198,go-nogo,001,48,
logos/1.jpg,properties1.xlsx,frogs/ab20.jpg,0,0,400,l,0,2,2,0,0,26,26,19,,,['l'],0,[0.25039608922816115],2018_Jul_09_1458,60.0570911198,go-nogo,001,48,
logos/1.jpg,properties1.xlsx,frogs/ab44.jpg,0,0,400,l,0,2,2,0,0,27,27,43,,,['l'],0,[0.3166529279878887],2018_Jul_09_1458,60.0570911198,go-nogo,001,48,
logos/1.jpg,properties1.xlsx,frogs/ab27.jpg,0,0,400,l,0,2,2,0,0,28,28,26,,,['l'],0,[0.317275292964041],2018_Jul_09_1458,60.0570911198,go-nogo,001,48,
logos/1.jpg,properties1.xlsx,logos/1.jpg,0,0,400,a,0,2,2,0,0,29,29,85,,,['a'],0,[0.08381390263093635],2018_Jul_09_1458,60.0570911198,go-nogo,001,48,
logos/1.jpg,properties1.xlsx,frogs/ab54.jpg,0,0,400,l,0,2,2,0,0,30,30,53,,,['l'],0,[0.06708627947227797],2018_Jul_09_1458,60.0570911198,go-nogo,001,48,
logos/1.jpg,properties1.xlsx,frogs/ab3.jpg,0,0,400,l,0,2,2,0,0,31,31,2,,,['l'],0,[0.3835600073034584],2018_Jul_09_1458,60.0570911198,go-nogo,001,48,
logos/1.jpg,properties1.xlsx,frogs/ab64.jpg,0,0,400,l,0,2,2,0,0,32,32,62,,,['l'],0,[0.30029565180666395],2018_Jul_09_1458,60.0570911198,go-nogo,001,48,
logos/1.jpg,properties1.xlsx,frogs/ab57.jpg,0,0,400,l,0,2,2,0,0,33,33,56,,,['l'],0,[0.30036334964461275],2018_Jul_09_1458,60.0570911198,go-nogo,001,48,
logos/1.jpg,properties1.xlsx,frogs/ab58.jpg,0,0,400,l,0,2,2,0,0,34,34,57,,,['l'],0,[0.3336593069470837],2018_Jul_09_1458,60.0570911198,go-nogo,001,48,
logos/1.jpg,properties1.xlsx,frogs/ab61.jpg,0,0,400,l,0,2,2,0,0,35,35,59,,,['l'],0,[0.2836032997838629],2018_Jul_09_1458,60.0570911198,go-nogo,001,48,
logos/1.jpg,properties1.xlsx,frogs/ab31.jpg,0,0,400,l,0,2,2,0,0,36,36,30,,,['l'],0,[0.1838508235559857],2018_Jul_09_1458,60.0570911198,go-nogo,001,48,
logos/1.jpg,properties1.xlsx,frogs/ab60.jpg,0,0,400,l,0,2,2,0,0,37,37,58,,,['l'],0,[0.3171330706209119],2018_Jul_09_1458,60.0570911198,go-nogo,001,48,
logos/1.jpg,properties1.xlsx,frogs/ab12.jpg,0,0,400,l,0,2,2,0,0,38,38,11,,,['l'],0,[0.3170545638859039],2018_Jul_09_1458,60.0570911198,go-nogo,001,48,
logos/1.jpg,properties1.xlsx,logos/1.jpg,0,0,400,a,0,2,2,0,0,39,39,86,,,['a'],0,[0.2171240252791904],2018_Jul_09_1458,60.0570911198,go-nogo,001,48,
logos/1.jpg,properties1.xlsx,frogs/ab8.jpg,0,0,400,l,0,2,2,0,0,40,40,7,,,['l'],0,[0.36689723753079306],2018_Jul_09_1458,60.0570911198,go-nogo,001,48,
logos/1.jpg,properties1.xlsx,logos/1.jpg,0,0,400,a,0,2,2,0,0,41,41,81,,,['a'],0,[0.06712325727858115],2018_Jul_09_1458,60.0570911198,go-nogo,001,48,
logos/1.jpg,properties1.xlsx,frogs/ab40.jpg,0,0,400,l,0,2,2,0,0,42,42,39,,,['l'],0,[0.0005711649318982381],2018_Jul_09_1458,60.0570911198,go-nogo,001,48,
logos/1.jpg,properties1.xlsx,logos/1.jpg,0,0,400,a,0,2,2,0,0,43,43,83,,,['a'],0,[0.11713090883858968],2018_Jul_09_1458,60.0570911198,go-nogo,001,48,
logos/1.jpg,properties1.xlsx,frogs/ab62.jpg,0,0,400,l,0,2,2,0,0,44,44,60,,,['l'],0,[0.06707490168264485],2018_Jul_09_1458,60.0570911198,go-nogo,001,48,
logos/1.jpg,properties1.xlsx,frogs/ab50.jpg,0,0,400,l,0,2,2,0,0,45,45,49,,,['l'],0,[0.017172494652186288],2018_Jul_09_1458,60.0570911198,go-nogo,001,48,
logos/1.jpg,properties1.xlsx,frogs/ab52.jpg,0,0,400,l,0,2,2,0,0,46,46,51,,,['l'],0,[0.0005723027097701561],2018_Jul_09_1458,60.0570911198,go-nogo,001,48,
logos/1.jpg,properties1.xlsx,frogs/ab63.jpg,0,0,400,l,0,2,2,0,0,47,47,61,,,['l'],0,[0.11701257985259872],2018_Jul_09_1458,60.0570911198,go-nogo,001,48,
logos/1.jpg,properties1.xlsx,frogs/ab78.jpg,0,0,400,l,0,2,2,0,0,48,48,76,,,['l'],0,[0.05038710077496944],2018_Jul_09_1458,60.0570911198,go-nogo,001,48,
logos/1.jpg,properties1.xlsx,frogs/ab9.jpg,0,0,400,l,0,2,2,0,0,49,49,8,,,['l'],0,[0.08396636498582666],2018_Jul_09_1458,60.0570911198,go-nogo,001,48,
logos/1.jpg,properties1.xlsx,frogs/ab11.jpg,0,0,400,l,0,2,2,0,0,50,50,10,,,['l'],0,[1.3993267763144104],2018_Jul_09_1458,60.0570911198,go-nogo,001,48,
logos/1.jpg,properties1.xlsx,frogs/ab42.jpg,0,0,400,l,0,2,2,0,0,51,51,41,,,['l'],0,[0.36705538877504296],2018_Jul_09_1458,60.0570911198,go-nogo,001,48,
logos/1.jpg,properties1.xlsx,logos/1.jpg,0,0,400,a,0,2,2,0,0,52,52,88,,,['a'],0,[0.017189561334816972],2018_Jul_09_1458,60.0570911198,go-nogo,001,48,
logos/1.jpg,properties1.xlsx,frogs/ab72.jpg,0,0,400,l,0,2,2,0,0,53,53,70,,,['l'],0,[0.5835917513322784],2018_Jul_09_1458,60.0570911198,go-nogo,001,48,
logos/1.jpg,properties1.xlsx,frogs/ab69.jpg,0,0,400,l,0,2,2,0,0,54,54,67,,,['l'],0,[0.3835309939495346],2018_Jul_09_1458,60.0570911198,go-nogo,001,48,
logos/1.jpg,properties1.xlsx,frogs/ab18.jpg,0,0,400,l,0,2,2,0,0,55,55,17,,,['l'],0,[0.3337753603773308],2018_Jul_09_1458,60.0570911198,go-nogo,001,48,
logos/1.jpg,properties1.xlsx,frogs/ab67.jpg,0,0,400,l,0,2,2,0,0,56,56,65,,,['l'],0,[0.2170756696832541],2018_Jul_09_1458,60.0570911198,go-nogo,001,48,
logos/1.jpg,properties1.xlsx,frogs/ab29.jpg,0,0,400,l,0,2,2,0,0,57,57,28,,,['l'],0,[0.416939022452425],2018_Jul_09_1458,60.0570911198,go-nogo,001,48,
logos/1.jpg,properties1.xlsx,logos/1.jpg,0,0,400,a,0,2,2,0,0,58,58,82,,,['a'],0,[0.05059531428560149],2018_Jul_09_1458,60.0570911198,go-nogo,001,48,
logos/1.jpg,properties1.xlsx,frogs/ab55.jpg,0,0,400,l,0,2,2,0,0,59,59,54,,,['l'],0,[0.3833978738330188],2018_Jul_09_1458,60.0570911198,go-nogo,001,48,
logos/1.jpg,properties1.xlsx,frogs/ab7.jpg,0,0,400,l,0,2,2,0,0,60,60,6,,,['l'],0,[0.3004310474789236],2018_Jul_09_1458,60.0570911198,go-nogo,001,48,
logos/1.jpg,properties1.xlsx,frogs/ab49.jpg,0,0,400,l,0,2,2,0,0,61,61,48,,,['l'],0,[0.35037157009355724],2018_Jul_09_1458,60.0570911198,go-nogo,001,48,
logos/1.jpg,properties1.xlsx,frogs/ab1.jpg,0,0,400,l,0,2,2,0,0,62,62,0,,,['l'],0,[0.38381259418747504],2018_Jul_09_1458,60.0570911198,go-nogo,001,48,
logos/1.jpg,properties1.xlsx,frogs/ab43.jpg,0,0,400,l,0,2,2,0,0,63,63,42,,,['l'],0,[0.38369142074952833],2018_Jul_09_1458,60.0570911198,go-nogo,001,48,
logos/1.jpg,properties1.xlsx,frogs/ab79.jpg,0,0,400,l,0,2,2,0,0,64,64,77,,,['l'],0,[0.33373553811907186],2018_Jul_09_1458,60.0570911198,go-nogo,001,48,
logos/1.jpg,properties1.xlsx,frogs/ab28.jpg,0,0,400,l,0,2,2,0,0,65,65,27,,,['l'],0,[0.1837740234877856],2018_Jul_09_1458,60.0570911198,go-nogo,001,48,
logos/1.jpg,properties1.xlsx,frogs/ab39.jpg,0,0,400,l,0,2,2,0,0,66,66,38,,,['l'],0,[0.4169464180158684],2018_Jul_09_1458,60.0570911198,go-nogo,001,48,
logos/1.jpg,properties1.xlsx,frogs/ab65.jpg,0,0,400,l,0,2,2,0,0,67,67,63,,,['l'],0,[0.3670872465809225],2018_Jul_09_1458,60.0570911198,go-nogo,001,48,
logos/1.jpg,properties1.xlsx,frogs/ab48.jpg,0,0,400,l,0,2,2,0,0,68,68,47,,,['l'],0,[0.3503431256249314],2018_Jul_09_1458,60.0570911198,go-nogo,001,48,
logos/1.jpg,properties1.xlsx,frogs/ab5.jpg,0,0,400,l,0,2,2,0,0,69,69,4,,,['l'],0,[0.16706346700448194],2018_Jul_09_1458,60.0570911198,go-nogo,001,48,
logos/1.jpg,properties1.xlsx,frogs/ab56.jpg,0,0,400,l,0,2,2,0,0,70,70,55,,,['l'],0,[0.36690633976104436],2018_Jul_09_1458,60.0570911198,go-nogo,001,48,
logos/1.jpg,properties1.xlsx,frogs/ab53.jpg,0,0,400,l,0,2,2,0,0,71,71,52,,,['l'],0,[0.40033598606532905],2018_Jul_09_1458,60.0570911198,go-nogo,001,48,
logos/1.jpg,properties1.xlsx,frogs/ab2.jpg,0,0,400,l,0,2,2,0,0,72,72,1,,,['l'],0,[0.017225970255822176],2018_Jul_09_1458,60.0570911198,go-nogo,001,48,
logos/1.jpg,properties1.xlsx,frogs/ab32.jpg,0,0,400,l,0,2,2,0,0,73,73,31,,,['l'],0,[0.00035384919101488777],2018_Jul_09_1458,60.0570911198,go-nogo,001,48,
logos/1.jpg,properties1.xlsx,frogs/ab19.jpg,0,0,400,l,0,2,2,0,0,74,74,18,,,['l'],0,[0.48320837677965756],2018_Jul_09_1458,60.0570911198,go-nogo,001,48,
logos/1.jpg,properties1.xlsx,frogs/ab46.jpg,0,0,400,l,0,2,2,0,0,75,75,45,,,['l'],0,[0.3336490669353225],2018_Jul_09_1458,60.0570911198,go-nogo,001,48,
logos/1.jpg,properties1.xlsx,frogs/ab16.jpg,0,0,400,l,0,2,2,0,0,76,76,15,,,['l'],0,[0.3171160039382812],2018_Jul_09_1458,60.0570911198,go-nogo,001,48,
logos/1.jpg,properties1.xlsx,frogs/ab6.jpg,0,0,400,l,0,2,2,0,0,77,77,5,,,['l'],0,[0.31708642169178347],2018_Jul_09_1458,60.0570911198,go-nogo,001,48,
logos/1.jpg,properties1.xlsx,frogs/ab21.jpg,0,0,400,l,0,2,2,0,0,78,78,20,,,['l'],0,[0.30014432723328355],2018_Jul_09_1458,60.0570911198,go-nogo,001,48,
logos/1.jpg,properties1.xlsx,frogs/ab76.jpg,0,0,400,l,0,2,2,0,0,79,79,74,,,['l'],0,[0.3337167647696333],2018_Jul_09_1458,60.0570911198,go-nogo,001,48,
logos/1.jpg,properties1.xlsx,frogs/ab13.jpg,0,0,400,l,0,2,2,0,0,80,80,12,,,['l'],0,[0.3337526048053405],2018_Jul_09_1458,60.0570911198,go-nogo,001,48,
logos/1.jpg,properties1.xlsx,frogs/ab80.jpg,0,0,400,l,0,2,2,0,0,81,81,78,,,['l'],0,[0.4004884484165814],2018_Jul_09_1458,60.0570911198,go-nogo,001,48,
logos/1.jpg,properties1.xlsx,frogs/ab26.jpg,0,0,400,l,0,2,2,0,0,82,82,25,,,['l'],0,[0.36702694430641714],2018_Jul_09_1458,60.0570911198,go-nogo,001,48,
logos/1.jpg,properties1.xlsx,logos/1.jpg,0,0,400,a,0,2,2,0,0,83,83,80,,,['a'],0,[0.10053185467768344],2018_Jul_09_1458,60.0570911198,go-nogo,001,48,
logos/1.jpg,properties1.xlsx,frogs/ab75.jpg,0,0,400,l,0,2,2,0,0,84,84,73,,,['l'],0,[0.33350172458813176],2018_Jul_09_1458,60.0570911198,go-nogo,001,48,
logos/1.jpg,properties1.xlsx,frogs/ab35.jpg,0,0,400,l,0,2,2,0,0,85,85,34,,,['l'],0,[0.4333719609239779],2018_Jul_09_1458,60.0570911198,go-nogo,001,48,
logos/1.jpg,properties1.xlsx,frogs/ab51.jpg,0,0,400,l,0,2,2,0,0,86,86,50,,,['l'],0,[0.3836254295820254],2018_Jul_09_1458,60.0570911198,go-nogo,001,48,
logos/1.jpg,properties1.xlsx,frogs/ab73.jpg,0,0,400,l,0,2,2,0,0,87,87,71,,,['l'],0,[0.466952931798005],2018_Jul_09_1458,60.0570911198,go-nogo,001,48,
logos/1.jpg,properties1.xlsx,frogs/ab24.jpg,0,0,400,l,0,2,2,0,0,88,88,23,,,['l'],0,[0.4336524233840464],2018_Jul_09_1458,60.0570911198,go-nogo,001,48,
logos/1.jpg,properties1.xlsx,frogs/ab23.jpg,0,0,400,l,0,2,2,0,0,89,89,22,,,['l'],0,[0.3169936927224626],2018_Jul_09_1458,60.0570911198,go-nogo,001,48,
logos/1.jpg,properties1.xlsx,,,,,,0,2,2,0,,,,,,,,,,2018_Jul_09_1458,60.0570911198,go-nogo,001,48,
logos/4.jpg,properties4.xlsx,logos/4.jpg,0,0,400,a,0,3,3,3,0,0,0,82,space,6.7479643716,['a'],0,[0.9499604906341119],2018_Jul_09_1458,60.0570911198,go-nogo,001,48,
logos/4.jpg,properties4.xlsx,frogs/ab8.jpg,0,0,400,l,0,3,3,3,0,1,1,7,,,['l'],0,[0.3335950224463886],2018_Jul_09_1458,60.0570911198,go-nogo,001,48,
logos/4.jpg,properties4.xlsx,frogs/ab63.jpg,0,0,400,l,0,3,3,3,0,2,2,61,,,['l'],0,[0.23360475045410567],2018_Jul_09_1458,60.0570911198,go-nogo,001,48,
logos/4.jpg,properties4.xlsx,frogs/ab75.jpg,0,0,400,l,0,3,3,3,0,3,3,73,,,['l'],0,[0.20038047321213526],2018_Jul_09_1458,60.0570911198,go-nogo,001,48,
logos/4.jpg,properties4.xlsx,frogs/ab44.jpg,0,0,400,l,0,3,3,3,0,4,4,43,,,['l'],0,[0.18355727663220023],2018_Jul_09_1458,60.0570911198,go-nogo,001,48,
logos/4.jpg,properties4.xlsx,frogs/ab55.jpg,0,0,400,l,0,3,3,3,0,5,5,54,,,['l'],0,[0.26703439675839036],2018_Jul_09_1458,60.0570911198,go-nogo,001,48,
logos/4.jpg,properties4.xlsx,logos/4.jpg,0,0,400,a,0,3,3,3,0,6,6,81,,,['a'],0,[0.050538994237285806],2018_Jul_09_1458,60.0570911198,go-nogo,001,48,
logos/4.jpg,properties4.xlsx,frogs/ab73.jpg,0,0,400,l,0,3,3,3,0,7,7,71,,,['l'],0,[0.25037788476402056],2018_Jul_09_1458,60.0570911198,go-nogo,001,48,
logos/4.jpg,properties4.xlsx,frogs/ab36.jpg,0,0,400,l,0,3,3,3,0,8,8,35,,,['l'],0,[0.23372649278098834],2018_Jul_09_1458,60.0570911198,go-nogo,001,48,
logos/4.jpg,properties4.xlsx,frogs/ab20.jpg,0,0,400,l,0,3,3,3,0,9,9,19,,,['l'],0,[0.2337936217263632],2018_Jul_09_1458,60.0570911198,go-nogo,001,48,
logos/4.jpg,properties4.xlsx,frogs/ab21.jpg,0,0,400,l,0,3,3,3,0,10,10,20,,,['l'],0,[0.2668210632436967],2018_Jul_09_1458,60.0570911198,go-nogo,001,48,
logos/4.jpg,properties4.xlsx,frogs/ab46.jpg,0,0,400,l,0,3,3,3,0,11,11,45,,,['l'],0,[0.26710892126357066],2018_Jul_09_1458,60.0570911198,go-nogo,001,48,
logos/4.jpg,properties4.xlsx,frogs/ab52.jpg,0,0,400,l,0,3,3,3,0,12,12,51,,,['l'],0,[0.28371195765794255],2018_Jul_09_1458,60.0570911198,go-nogo,001,48,
logos/4.jpg,properties4.xlsx,frogs/ab79.jpg,0,0,400,l,0,3,3,3,0,13,13,77,,,['l'],0,[0.28366132649898645],2018_Jul_09_1458,60.0570911198,go-nogo,001,48,
logos/4.jpg,properties4.xlsx,frogs/ab15.jpg,0,0,400,l,0,3,3,3,0,14,14,14,,,['l'],0,[0.26729949920627405],2018_Jul_09_1458,60.0570911198,go-nogo,001,48,
logos/4.jpg,properties4.xlsx,frogs/ab68.jpg,0,0,400,l,0,3,3,3,0,15,15,66,,,['l'],0,[0.28319142387772445],2018_Jul_09_1458,60.0570911198,go-nogo,001,48,
logos/4.jpg,properties4.xlsx,logos/4.jpg,0,0,400,a,0,3,3,3,0,16,16,80,,,['a'],0,[0.0838679471235082],2018_Jul_09_1458,60.0570911198,go-nogo,001,48,
logos/4.jpg,properties4.xlsx,frogs/ab50.jpg,0,0,400,l,0,3,3,3,0,17,17,49,,,['l'],0,[0.2669712500392052],2018_Jul_09_1458,60.0570911198,go-nogo,001,48,
logos/4.jpg,properties4.xlsx,frogs/ab7.jpg,0,0,400,l,0,3,3,3,0,18,18,6,,,['l'],0,[0.06705043943657074],2018_Jul_09_1458,60.0570911198,go-nogo,001,48,
logos/4.jpg,properties4.xlsx,frogs/ab74.jpg,0,0,400,l,0,3,3,3,0,19,19,72,,,['l'],0,[0.017224832477950258],2018_Jul_09_1458,60.0570911198,go-nogo,001,48,
logos/4.jpg,properties4.xlsx,frogs/ab80.jpg,0,0,400,l,0,3,3,3,0,20,20,78,,,['l'],0,[0.11704728210315807],2018_Jul_09_1458,60.0570911198,go-nogo,001,48,
logos/4.jpg,properties4.xlsx,frogs/ab23.jpg,0,0,400,l,0,3,3,3,0,21,21,22,,,['l'],0,[0.10037541010024142],2018_Jul_09_1458,60.0570911198,go-nogo,001,48,
logos/4.jpg,properties4.xlsx,frogs/ab65.jpg,0,0,400,l,0,3,3,3,0,22,22,63,,,['l'],0,[0.017198094676132314],2018_Jul_09_1458,60.0570911198,go-nogo,001,48,
logos/4.jpg,properties4.xlsx,frogs/ab69.jpg,0,0,400,l,0,3,3,3,0,23,23,67,,,['l'],0,[0.3335716979781864],2018_Jul_09_1458,60.0570911198,go-nogo,001,48,
logos/4.jpg,properties4.xlsx,frogs/ab28.jpg,0,0,400,l,0,3,3,3,0,24,24,27,,,['l'],0,[0.2835663219775597],2018_Jul_09_1458,60.0570911198,go-nogo,001,48,
logos/4.jpg,properties4.xlsx,frogs/ab64.jpg,0,0,400,l,0,3,3,3,0,25,25,62,,,['l'],0,[0.2669644233646977],2018_Jul_09_1458,60.0570911198,go-nogo,001,48,
logos/4.jpg,properties4.xlsx,frogs/ab32.jpg,0,0,400,l,0,3,3,3,0,26,26,31,,,['l'],0,[0.26706170344914426],2018_Jul_09_1458,60.0570911198,go-nogo,001,48,
logos/4.jpg,properties4.xlsx,logos/4.jpg,0,0,400,a,0,3,3,3,0,27,27,85,,,['a'],0,[0.0005825427178933751],2018_Jul_09_1458,60.0570911198,go-nogo,001,48,
logos/4.jpg,properties4.xlsx,frogs/ab35.jpg,0,0,400,l,0,3,3,3,0,28,28,34,,,['l'],0,[0.3336490669353225],2018_Jul_09_1458,60.0570911198,go-nogo,001,48,
logos/4.jpg,properties4.xlsx,frogs/ab24.jpg,0,0,400,l,0,3,3,3,0,29,29,23,,,['l'],0,[0.33366499583644327],2018_Jul_09_1458,60.0570911198,go-nogo,001,48,
logos/4.jpg,properties4.xlsx,frogs/ab71.jpg,0,0,400,l,0,3,3,3,0,30,30,69,,,['l'],0,[0.31689641263801605],2018_Jul_09_1458,60.0570911198,go-nogo,001,48,
logos/4.jpg,properties4.xlsx,logos/4.jpg,0,0,400,a,0,3,3,3,0,31,31,86,,,['a'],0,[0.05056231870185002],2018_Jul_09_1458,60.0570911198,go-nogo,001,48,
logos/4.jpg,properties4.xlsx,frogs/ab30.jpg,0,0,400,l,0,3,3,3,0,32,32,29,,,['l'],0,[0.283653930939181],2018_Jul_09_1458,60.0570911198,go-nogo,001,48,
logos/4.jpg,properties4.xlsx,logos/4.jpg,0,0,400,a,0,3,3,3,0,33,33,88,,,['a'],0,[0.06708286613502423],2018_Jul_09_1458,60.0570911198,go-nogo,001,48,
logos/4.jpg,properties4.xlsx,frogs/ab1.jpg,0,0,400,l,0,3,3,3,0,34,34,0,,,['l'],0,[0.3670849710215407],2018_Jul_09_1458,60.0570911198,go-nogo,001,48,
logos/4.jpg,properties4.xlsx,frogs/ab29.jpg,0,0,400,l,0,3,3,3,0,35,35,28,,,['l'],0,[0.2837620199206867],2018_Jul_09_1458,60.0570911198,go-nogo,001,48,
logos/4.jpg,properties4.xlsx,frogs/ab39.jpg,0,0,400,l,0,3,3,3,0,36,36,38,,,['l'],0,[0.266752227627876],2018_Jul_09_1458,60.0570911198,go-nogo,001,48,
logos/4.jpg,properties4.xlsx,frogs/ab57.jpg,0,0,400,l,0,3,3,3,0,37,37,56,,,['l'],0,[0.2837495043531817],2018_Jul_09_1458,60.0570911198,go-nogo,001,48,
logos/4.jpg,properties4.xlsx,frogs/ab40.jpg,0,0,400,l,0,3,3,3,0,38,38,39,,,['l'],0,[0.28376998436942813],2018_Jul_09_1458,60.0570911198,go-nogo,001,48,
logos/4.jpg,properties4.xlsx,frogs/ab54.jpg,0,0,400,l,0,3,3,3,0,39,39,53,,,['l'],0,[0.3170312394213397],2018_Jul_09_1458,60.0570911198,go-nogo,001,48,
logos/4.jpg,properties4.xlsx,frogs/ab4.jpg,0,0,400,l,0,3,3,3,0,40,40,3,,,['l'],0,[0.31724969294373295],2018_Jul_09_1458,60.0570911198,go-nogo,001,48,
logos/4.jpg,properties4.xlsx,frogs/ab19.jpg,0,0,400,l,0,3,3,3,0,41,41,18,,,['l'],0,[0.2834007751698664],2018_Jul_09_1458,60.0570911198,go-nogo,001,48,
logos/4.jpg,properties4.xlsx,logos/4.jpg,0,0,400,a,0,3,3,3,0,42,42,87,,,['a'],0,[0.017237348041817313],2018_Jul_09_1458,60.0570911198,go-nogo,001,48,
logos/4.jpg,properties4.xlsx,logos/4.jpg,0,0,400,a,0,3,3,3,0,43,43,83,,,['l'],0,[0.46687897618176066],2018_Jul_09_1458,60.0570911198,go-nogo,001,48,
logos/4.jpg,properties4.xlsx,frogs/ab45.jpg,0,0,400,l,0,3,3,3,0,44,44,44,,,['l'],0,[0.333733262563328],2018_Jul_09_1458,60.0570911198,go-nogo,001,48,
logos/4.jpg,properties4.xlsx,frogs/ab76.jpg,0,0,400,l,0,3,3,3,0,45,45,74,,,['l'],0,[0.283680668737361],2018_Jul_09_1458,60.0570911198,go-nogo,001,48,
logos/4.jpg,properties4.xlsx,frogs/ab42.jpg,0,0,400,l,0,3,3,3,0,46,46,41,,,['l'],0,[0.1671186492749257],2018_Jul_09_1458,60.0570911198,go-nogo,001,48,
logos/4.jpg,properties4.xlsx,frogs/ab77.jpg,0,0,400,l,0,3,3,3,0,47,47,75,,,['l'],0,[0.16712888928304892],2018_Jul_09_1458,60.0570911198,go-nogo,001,48,
logos/4.jpg,properties4.xlsx,frogs/ab33.jpg,0,0,400,l,0,3,3,3,0,48,48,32,,,['l'],0,[0.21711719860468293],2018_Jul_09_1458,60.0570911198,go-nogo,001,48,
logos/4.jpg,properties4.xlsx,frogs/ab10.jpg,0,0,400,l,0,3,3,3,0,49,49,9,,,['l'],0,[0.23318491009558784],2018_Jul_09_1458,60.0570911198,go-nogo,001,48,
logos/4.jpg,properties4.xlsx,frogs/ab81.jpg,0,0,400,l,0,3,3,3,0,50,50,79,,,['l'],0,[0.2668574721647019],2018_Jul_09_1458,60.0570911198,go-nogo,001,48,
logos/4.jpg,properties4.xlsx,frogs/ab72.jpg,0,0,400,l,0,3,3,3,0,51,51,70,,,['l'],0,[0.18277619152650004],2018_Jul_09_1458,60.0570911198,go-nogo,001,48,
logos/4.jpg,properties4.xlsx,frogs/ab61.jpg,0,0,400,l,0,3,3,3,0,52,52,59,,,['l'],0,[0.25016000013783923],2018_Jul_09_1458,60.0570911198,go-nogo,001,48,
logos/4.jpg,properties4.xlsx,frogs/ab22.jpg,0,0,400,l,0,3,3,3,0,53,53,21,,,['l'],0,[0.30043161636785953],2018_Jul_09_1458,60.0570911198,go-nogo,001,48,
logos/4.jpg,properties4.xlsx,frogs/ab9.jpg,0,0,400,l,0,3,3,3,0,54,54,8,,,['l'],0,[0.5171119079350319],2018_Jul_09_1458,60.0570911198,go-nogo,001,48,
logos/4.jpg,properties4.xlsx,frogs/ab43.jpg,0,0,400,l,0,3,3,3,0,55,55,42,,,['l'],0,[0.3836709407296439],2018_Jul_09_1458,60.0570911198,go-nogo,001,48,
logos/4.jpg,properties4.xlsx,frogs/ab47.jpg,0,0,400,l,0,3,3,3,0,56,56,46,,,['l'],0,[0.05055662980885245],2018_Jul_09_1458,60.0570911198,go-nogo,001,48,
logos/4.jpg,properties4.xlsx,frogs/ab38.jpg,0,0,400,l,0,3,3,3,0,57,57,37,,,['l'],0,[0.40035475941112963],2018_Jul_09_1458,60.0570911198,go-nogo,001,48,
logos/4.jpg,properties4.xlsx,frogs/ab34.jpg,0,0,400,l,0,3,3,3,0,58,58,33,,,['l'],0,[0.30028142957235104],2018_Jul_09_1458,60.0570911198,go-nogo,001,48,
logos/4.jpg,properties4.xlsx,frogs/ab31.jpg,0,0,400,l,0,3,3,3,0,59,59,30,,,['l'],0,[0.316988572718401],2018_Jul_09_1458,60.0570911198,go-nogo,001,48,
logos/4.jpg,properties4.xlsx,frogs/ab62.jpg,0,0,400,l,0,3,3,3,0,60,60,60,,,['l'],0,[0.31722352403085097],2018_Jul_09_1458,60.0570911198,go-nogo,001,48,
logos/4.jpg,properties4.xlsx,frogs/ab18.jpg,0,0,400,l,0,3,3,3,0,61,61,17,,,['l'],0,[0.2837358510114427],2018_Jul_09_1458,60.0570911198,go-nogo,001,48,
logos/4.jpg,properties4.xlsx,frogs/ab11.jpg,0,0,400,l,0,3,3,3,0,62,62,10,,,['l'],0,[0.033976917882682756],2018_Jul_09_1458,60.0570911198,go-nogo,001,48,
logos/4.jpg,properties4.xlsx,frogs/ab51.jpg,0,0,400,l,0,3,3,3,0,63,63,50,,,['l'],0,[0.18378938349997043],2018_Jul_09_1458,60.0570911198,go-nogo,001,48,
logos/4.jpg,properties4.xlsx,frogs/ab16.jpg,0,0,400,l,0,3,3,3,0,64,64,15,,,['l'],0,[0.03391263338198769],2018_Jul_09_1458,60.0570911198,go-nogo,001,48,
logos/4.jpg,properties4.xlsx,frogs/ab2.jpg,0,0,400,l,0,3,3,3,0,65,65,1,,,['l'],0,[0.05051225643910584],2018_Jul_09_1458,60.0570911198,go-nogo,001,48,
logos/4.jpg,properties4.xlsx,frogs/ab3.jpg,0,0,400,l,0,3,3,3,0,66,66,2,,,['l'],0,[0.11701826874559629],2018_Jul_09_1458,60.0570911198,go-nogo,001,48,
logos/4.jpg,properties4.xlsx,frogs/ab25.jpg,0,0,400,l,0,3,3,3,0,67,67,24,,,['l'],0,[0.0005819738325953949],2018_Jul_09_1458,60.0570911198,go-nogo,001,48,
logos/4.jpg,properties4.xlsx,frogs/ab67.jpg,0,0,400,l,0,3,3,3,0,68,68,65,,,['l'],0,[0.500261404667981],2018_Jul_09_1458,60.0570911198,go-nogo,001,48,
logos/4.jpg,properties4.xlsx,frogs/ab78.jpg,0,0,400,l,0,3,3,3,0,69,69,76,,,['l'],0,[0.3170079149604135],2018_Jul_09_1458,60.0570911198,go-nogo,001,48,
logos/4.jpg,properties4.xlsx,frogs/ab49.jpg,0,0,400,l,0,3,3,3,0,70,70,48,,,['l'],0,[0.23375948836110183],2018_Jul_09_1458,60.0570911198,go-nogo,001,48,
logos/4.jpg,properties4.xlsx,frogs/ab48.jpg,0,0,400,l,0,3,3,3,0,71,71,47,,,['l'],0,[0.3004111363516131],2018_Jul_09_1458,60.0570911198,go-nogo,001,48,
logos/4.jpg,properties4.xlsx,frogs/ab14.jpg,0,0,400,l,0,3,3,3,0,72,72,13,,,['l'],0,[0.23370373720536008],2018_Jul_09_1458,60.0570911198,go-nogo,001,48,
logos/4.jpg,properties4.xlsx,frogs/ab5.jpg,0,0,400,l,0,3,3,3,0,73,73,4,,,['l'],0,[0.3836424962646561],2018_Jul_09_1458,60.0570911198,go-nogo,001,48,
logos/4.jpg,properties4.xlsx,frogs/ab17.jpg,0,0,400,l,0,3,3,3,0,74,74,16,,,['l'],0,[0.3004145496888668],2018_Jul_09_1458,60.0570911198,go-nogo,001,48,
logos/4.jpg,properties4.xlsx,frogs/ab60.jpg,0,0,400,l,0,3,3,3,0,75,75,58,,,['l'],0,[0.3169123415427748],2018_Jul_09_1458,60.0570911198,go-nogo,001,48,
logos/4.jpg,properties4.xlsx,frogs/ab6.jpg,0,0,400,l,0,3,3,3,0,76,76,5,,,['l'],0,[0.3673534868066781],2018_Jul_09_1458,60.0570911198,go-nogo,001,48,
logos/4.jpg,properties4.xlsx,frogs/ab41.jpg,0,0,400,l,0,3,3,3,0,77,77,40,,,['l'],0,[0.4001761281506333],2018_Jul_09_1458,60.0570911198,go-nogo,001,48,
logos/4.jpg,properties4.xlsx,frogs/ab26.jpg,0,0,400,l,0,3,3,3,0,78,78,25,,,['l'],0,[0.40032290160888806],2018_Jul_09_1458,60.0570911198,go-nogo,001,48,
logos/4.jpg,properties4.xlsx,logos/4.jpg,0,0,400,a,0,3,3,3,0,79,79,84,,,['a'],0,[0.0337140909905429],2018_Jul_09_1458,60.0570911198,go-nogo,001,48,
logos/4.jpg,properties4.xlsx,logos/4.jpg,0,0,400,a,0,3,3,3,0,80,80,89,,,['l'],0,[0.6336011095627327],2018_Jul_09_1458,60.0570911198,go-nogo,001,48,
logos/4.jpg,properties4.xlsx,frogs/ab70.jpg,0,0,400,l,0,3,3,3,0,81,81,68,,,['l'],0,[0.0005745782691519707],2018_Jul_09_1458,60.0570911198,go-nogo,001,48,
logos/4.jpg,properties4.xlsx,frogs/ab27.jpg,0,0,400,l,0,3,3,3,0,82,82,26,,,['l'],0,[0.4003536216368957],2018_Jul_09_1458,60.0570911198,go-nogo,001,48,
logos/4.jpg,properties4.xlsx,frogs/ab56.jpg,0,0,400,l,0,3,3,3,0,83,83,55,,,['l'],0,[0.13374475412638276],2018_Jul_09_1458,60.0570911198,go-nogo,001,48,
logos/4.jpg,properties4.xlsx,frogs/ab12.jpg,0,0,400,l,0,3,3,3,0,84,84,11,,,['l'],0,[0.03394449118786724],2018_Jul_09_1458,60.0570911198,go-nogo,001,48,
logos/4.jpg,properties4.xlsx,frogs/ab13.jpg,0,0,400,l,0,3,3,3,0,85,85,12,,,['l'],0,[0.20041688213314046],2018_Jul_09_1458,60.0570911198,go-nogo,001,48,
logos/4.jpg,properties4.xlsx,frogs/ab53.jpg,0,0,400,l,0,3,3,3,0,86,86,52,,,['l'],0,[0.40001797690274543],2018_Jul_09_1458,60.0570911198,go-nogo,001,48,
logos/4.jpg,properties4.xlsx,frogs/ab37.jpg,0,0,400,l,0,3,3,3,0,87,87,36,,,['l'],0,[0.3003889496649208],2018_Jul_09_1458,60.0570911198,go-nogo,001,48,
logos/4.jpg,properties4.xlsx,frogs/ab66.jpg,0,0,400,l,0,3,3,3,0,88,88,64,,,['l'],0,[0.06699696383657283],2018_Jul_09_1458,60.0570911198,go-nogo,001,48,
logos/4.jpg,properties4.xlsx,frogs/ab58.jpg,0,0,400,l,0,3,3,3,0,89,89,57,,,['l'],0,[0.16708792925055604],2018_Jul_09_1458,60.0570911198,go-nogo,001,48,
logos/4.jpg,properties4.xlsx,,,,,,0,3,3,3,,,,,,,,,,2018_Jul_09_1458,60.0570911198,go-nogo,001,48,
