pix,source,image1,x,y,size,answer,trials_2.thisRepN,trials_2.thisTrialN,trials_2.thisN,trials_2.thisIndex,trials.thisRepN,trials.thisTrialN,trials.thisN,trials.thisIndex,key_resp_3.keys,key_resp_3.rt,key_resp_2.keys,key_resp_2.corr,key_resp_2.rt,date,frameRate,expName,session,participant,
logos/1.jpg,properties1.xlsx,frogs/ab54.jpg,0,0,400,l,0,0,0,0,0,0,0,53,space,7.76385117626,['l'],0,[0.10041693902348925],2018_Jul_09_1434,59.9601927933,go-nogo,001,49,
logos/1.jpg,properties1.xlsx,frogs/ab19.jpg,0,0,400,l,0,0,0,0,0,1,1,18,,,['l'],0,[1.4165123554230377],2018_Jul_09_1434,59.9601927933,go-nogo,001,49,
logos/1.jpg,properties1.xlsx,frogs/ab7.jpg,0,0,400,l,0,0,0,0,0,2,2,6,,,['l'],0,[0.35049900131525646],2018_Jul_09_1434,59.9601927933,go-nogo,001,49,
logos/1.jpg,properties1.xlsx,frogs/ab9.jpg,0,0,400,l,0,0,0,0,0,3,3,8,,,['l'],0,[0.2672295258125814],2018_Jul_09_1434,59.9601927933,go-nogo,001,49,
logos/1.jpg,properties1.xlsx,frogs/ab1.jpg,0,0,400,l,0,0,0,0,0,4,4,0,,,['l'],0,[0.23369691053085262],2018_Jul_09_1434,59.9601927933,go-nogo,001,49,
logos/1.jpg,properties1.xlsx,frogs/ab16.jpg,0,0,400,l,0,0,0,0,0,5,5,15,,,['l'],0,[0.21707339412569127],2018_Jul_09_1434,59.9601927933,go-nogo,001,49,
logos/1.jpg,properties1.xlsx,frogs/ab77.jpg,0,0,400,l,0,0,0,0,0,6,6,75,,,['l'],0,[0.2337663150356093],2018_Jul_09_1434,59.9601927933,go-nogo,001,49,
logos/1.jpg,properties1.xlsx,frogs/ab63.jpg,0,0,400,l,0,0,0,0,0,7,7,61,,,['l'],0,[0.2504125870182179],2018_Jul_09_1434,59.9601927933,go-nogo,001,49,
logos/1.jpg,properties1.xlsx,frogs/ab3.jpg,0,0,400,l,0,0,0,0,0,8,8,2,,,['l'],0,[0.23367017273267265],2018_Jul_09_1434,59.9601927933,go-nogo,001,49,
logos/1.jpg,properties1.xlsx,frogs/ab72.jpg,0,0,400,l,0,0,0,0,0,9,9,70,,,['l'],0,[0.2670873034694523],2018_Jul_09_1434,59.9601927933,go-nogo,001,49,
logos/1.jpg,properties1.xlsx,logos/1.jpg,0,0,400,a,0,0,0,0,0,10,10,88,,,['a'],0,[0.28379046438931255],2018_Jul_09_1434,59.9601927933,go-nogo,001,49,
logos/1.jpg,properties1.xlsx,frogs/ab45.jpg,0,0,400,l,0,0,0,0,0,11,11,44,,,['l'],0,[0.28382061552656523],2018_Jul_09_1434,59.9601927933,go-nogo,001,49,
logos/1.jpg,properties1.xlsx,frogs/ab53.jpg,0,0,400,l,0,0,0,0,0,12,12,52,,,['l'],0,[0.28372105988637486],2018_Jul_09_1434,59.9601927933,go-nogo,001,49,
logos/1.jpg,properties1.xlsx,frogs/ab34.jpg,0,0,400,l,0,0,0,0,0,13,13,33,,,['l'],0,[0.2171280075035611],2018_Jul_09_1434,59.9601927933,go-nogo,001,49,
logos/1.jpg,properties1.xlsx,frogs/ab15.jpg,0,0,400,l,0,0,0,0,0,14,14,14,,,['l'],0,[0.21704381187737454],2018_Jul_09_1434,59.9601927933,go-nogo,001,49,
logos/1.jpg,properties1.xlsx,frogs/ab28.jpg,0,0,400,l,0,0,0,0,0,15,15,27,,,['l'],0,[0.21692377621911874],2018_Jul_09_1434,59.9601927933,go-nogo,001,49,
logos/1.jpg,properties1.xlsx,logos/1.jpg,0,0,400,a,0,0,0,0,0,16,16,86,,,['a'],0,[0.1170899488060968],2018_Jul_09_1434,59.9601927933,go-nogo,001,49,
logos/1.jpg,properties1.xlsx,logos/1.jpg,0,0,400,a,0,0,0,0,0,17,17,87,,,['a'],0,[0.2338823684694944],2018_Jul_09_1434,59.9601927933,go-nogo,001,49,
logos/1.jpg,properties1.xlsx,frogs/ab25.jpg,0,0,400,l,0,0,0,0,0,18,18,24,,,['l'],0,[0.017227676922630053],2018_Jul_09_1434,59.9601927933,go-nogo,001,49,
logos/1.jpg,properties1.xlsx,logos/1.jpg,0,0,400,a,0,0,0,0,0,19,19,84,,,['a'],0,[0.7167334827227023],2018_Jul_09_1434,59.9601927933,go-nogo,001,49,
logos/1.jpg,properties1.xlsx,frogs/ab21.jpg,0,0,400,l,0,0,0,0,0,20,20,20,,,['l'],0,[0.35040115234187397],2018_Jul_09_1434,59.9601927933,go-nogo,001,49,
logos/1.jpg,properties1.xlsx,frogs/ab14.jpg,0,0,400,l,0,0,0,0,0,21,21,13,,,['l'],0,[0.41658915548941877],2018_Jul_09_1434,59.9601927933,go-nogo,001,49,
logos/1.jpg,properties1.xlsx,frogs/ab12.jpg,0,0,400,l,0,0,0,0,0,22,22,11,,,['l'],0,[0.3667572907434078],2018_Jul_09_1434,59.9601927933,go-nogo,001,49,
logos/1.jpg,properties1.xlsx,logos/1.jpg,0,0,400,a,0,0,0,0,0,23,23,85,,,['a'],0,[0.33361038245857344],2018_Jul_09_1434,59.9601927933,go-nogo,001,49,
logos/1.jpg,properties1.xlsx,frogs/ab73.jpg,0,0,400,l,0,0,0,0,0,24,24,71,,,['l'],0,[0.6667969423342583],2018_Jul_09_1434,59.9601927933,go-nogo,001,49,
logos/1.jpg,properties1.xlsx,frogs/ab47.jpg,0,0,400,l,0,0,0,0,0,25,25,46,,,['l'],0,[0.3670496998838644],2018_Jul_09_1434,59.9601927933,go-nogo,001,49,
logos/1.jpg,properties1.xlsx,frogs/ab22.jpg,0,0,400,l,0,0,0,0,0,26,26,21,,,['l'],0,[0.3503391434005607],2018_Jul_09_1434,59.9601927933,go-nogo,001,49,
logos/1.jpg,properties1.xlsx,frogs/ab62.jpg,0,0,400,l,0,0,0,0,0,27,27,60,,,['l'],0,[0.3005220697796176],2018_Jul_09_1434,59.9601927933,go-nogo,001,49,
logos/1.jpg,properties1.xlsx,frogs/ab30.jpg,0,0,400,l,0,0,0,0,0,28,28,29,,,['l'],0,[0.2671476057439577],2018_Jul_09_1434,59.9601927933,go-nogo,001,49,
logos/1.jpg,properties1.xlsx,frogs/ab5.jpg,0,0,400,l,0,0,0,0,0,29,29,4,,,['l'],0,[0.40035191496644984],2018_Jul_09_1434,59.9601927933,go-nogo,001,49,
logos/1.jpg,properties1.xlsx,frogs/ab81.jpg,0,0,400,l,0,0,0,0,0,30,30,79,,,['l'],0,[0.2670178989665146],2018_Jul_09_1434,59.9601927933,go-nogo,001,49,
logos/1.jpg,properties1.xlsx,frogs/ab55.jpg,0,0,400,l,0,0,0,0,0,31,31,54,,,['l'],0,[0.36695128201972693],2018_Jul_09_1434,59.9601927933,go-nogo,001,49,
logos/1.jpg,properties1.xlsx,frogs/ab37.jpg,0,0,400,l,0,0,0,0,0,32,32,36,,,['l'],0,[0.2503875558868458],2018_Jul_09_1434,59.9601927933,go-nogo,001,49,
logos/1.jpg,properties1.xlsx,frogs/ab10.jpg,0,0,400,l,0,0,0,0,0,33,33,9,,,['l'],0,[0.26709071680670604],2018_Jul_09_1434,59.9601927933,go-nogo,001,49,
logos/1.jpg,properties1.xlsx,frogs/ab40.jpg,0,0,400,l,0,0,0,0,0,34,34,39,,,['l'],0,[0.2503864181071549],2018_Jul_09_1434,59.9601927933,go-nogo,001,49,
logos/1.jpg,properties1.xlsx,frogs/ab50.jpg,0,0,400,l,0,0,0,0,0,35,35,49,,,['l'],0,[0.3669330775610433],2018_Jul_09_1434,59.9601927933,go-nogo,001,49,
logos/1.jpg,properties1.xlsx,frogs/ab36.jpg,0,0,400,l,0,0,0,0,0,36,36,35,,,['l'],0,[0.28370399320556317],2018_Jul_09_1434,59.9601927933,go-nogo,001,49,
logos/1.jpg,properties1.xlsx,frogs/ab38.jpg,0,0,400,l,0,0,0,0,0,37,37,37,,,['l'],0,[0.267065116784579],2018_Jul_09_1434,59.9601927933,go-nogo,001,49,
logos/1.jpg,properties1.xlsx,frogs/ab80.jpg,0,0,400,l,0,0,0,0,0,38,38,78,,,['l'],0,[0.30040374078816967],2018_Jul_09_1434,59.9601927933,go-nogo,001,49,
logos/1.jpg,properties1.xlsx,frogs/ab35.jpg,0,0,400,l,0,0,0,0,0,39,39,34,,,['l'],0,[0.28351227748680685],2018_Jul_09_1434,59.9601927933,go-nogo,001,49,
logos/1.jpg,properties1.xlsx,frogs/ab20.jpg,0,0,400,l,0,0,0,0,0,40,40,19,,,['l'],0,[0.31708414613422065],2018_Jul_09_1434,59.9601927933,go-nogo,001,49,
logos/1.jpg,properties1.xlsx,frogs/ab13.jpg,0,0,400,l,0,0,0,0,0,41,41,12,,,['l'],0,[0.26698205893626437],2018_Jul_09_1434,59.9601927933,go-nogo,001,49,
logos/1.jpg,properties1.xlsx,frogs/ab60.jpg,0,0,400,l,0,0,0,0,0,42,42,58,,,['l'],0,[0.3335927468870068],2018_Jul_09_1434,59.9601927933,go-nogo,001,49,
logos/1.jpg,properties1.xlsx,frogs/ab56.jpg,0,0,400,l,0,0,0,0,0,43,43,55,,,['l'],0,[0.4499960462180752],2018_Jul_09_1434,59.9601927933,go-nogo,001,49,
logos/1.jpg,properties1.xlsx,frogs/ab18.jpg,0,0,400,l,0,0,0,0,0,44,44,17,,,['l'],0,[0.2503875558850268],2018_Jul_09_1434,59.9601927933,go-nogo,001,49,
logos/1.jpg,properties1.xlsx,frogs/ab23.jpg,0,0,400,l,0,0,0,0,0,45,45,22,,,['l'],0,[0.11753595807567763],2018_Jul_09_1434,59.9601927933,go-nogo,001,49,
logos/1.jpg,properties1.xlsx,frogs/ab61.jpg,0,0,400,l,0,0,0,0,0,46,46,59,,,['l'],0,[0.23365993272454944],2018_Jul_09_1434,59.9601927933,go-nogo,001,49,
logos/1.jpg,properties1.xlsx,frogs/ab57.jpg,0,0,400,l,0,0,0,0,0,47,47,56,,,['l'],0,[0.23372478611236147],2018_Jul_09_1434,59.9601927933,go-nogo,001,49,
logos/1.jpg,properties1.xlsx,frogs/ab46.jpg,0,0,400,l,0,0,0,0,0,48,48,45,,,['l'],0,[0.21707453190356318],2018_Jul_09_1434,59.9601927933,go-nogo,001,49,
logos/1.jpg,properties1.xlsx,frogs/ab65.jpg,0,0,400,l,0,0,0,0,0,49,49,63,,,['l'],0,[0.2333419235637848],2018_Jul_09_1434,59.9601927933,go-nogo,001,49,
logos/1.jpg,properties1.xlsx,frogs/ab42.jpg,0,0,400,l,0,0,0,0,0,50,50,41,,,['l'],0,[0.3002797229037242],2018_Jul_09_1434,59.9601927933,go-nogo,001,49,
logos/1.jpg,properties1.xlsx,frogs/ab39.jpg,0,0,400,l,0,0,0,0,0,51,51,38,,,['l'],0,[0.25015203568545985],2018_Jul_09_1434,59.9601927933,go-nogo,001,49,
logos/1.jpg,properties1.xlsx,frogs/ab66.jpg,0,0,400,l,0,0,0,0,0,52,52,64,,,['l'],0,[0.283784775496315],2018_Jul_09_1434,59.9601927933,go-nogo,001,49,
logos/1.jpg,properties1.xlsx,frogs/ab4.jpg,0,0,400,l,0,0,0,0,0,53,53,3,,,['l'],0,[0.2836983043107466],2018_Jul_09_1434,59.9601927933,go-nogo,001,49,
logos/1.jpg,properties1.xlsx,frogs/ab11.jpg,0,0,400,l,0,0,0,0,0,54,54,10,,,['l'],0,[0.2667294720540667],2018_Jul_09_1434,59.9601927933,go-nogo,001,49,
logos/1.jpg,properties1.xlsx,frogs/ab29.jpg,0,0,400,l,0,0,0,0,0,55,55,28,,,['l'],0,[0.25043136036765645],2018_Jul_09_1434,59.9601927933,go-nogo,001,49,
logos/1.jpg,properties1.xlsx,frogs/ab79.jpg,0,0,400,l,0,0,0,0,0,56,56,77,,,['l'],0,[0.35052005022225785],2018_Jul_09_1434,59.9601927933,go-nogo,001,49,
logos/1.jpg,properties1.xlsx,frogs/ab49.jpg,0,0,400,l,0,0,0,0,0,57,57,48,,,['l'],0,[0.3171080394877208],2018_Jul_09_1434,59.9601927933,go-nogo,001,49,
logos/1.jpg,properties1.xlsx,frogs/ab64.jpg,0,0,400,l,0,0,0,0,0,58,58,62,,,['l'],0,[0.3836840251879039],2018_Jul_09_1434,59.9601927933,go-nogo,001,49,
logos/1.jpg,properties1.xlsx,frogs/ab70.jpg,0,0,400,l,0,0,0,0,0,59,59,68,,,['l'],0,[0.2504398937089718],2018_Jul_09_1434,59.9601927933,go-nogo,001,49,
logos/1.jpg,properties1.xlsx,logos/1.jpg,0,0,400,a,0,0,0,0,0,60,60,83,,,['a'],0,[0.23376119503154769],2018_Jul_09_1434,59.9601927933,go-nogo,001,49,
logos/1.jpg,properties1.xlsx,frogs/ab51.jpg,0,0,400,l,0,0,0,0,0,61,61,50,,,['l'],0,[0.23375664391642204],2018_Jul_09_1434,59.9601927933,go-nogo,001,49,
logos/1.jpg,properties1.xlsx,frogs/ab8.jpg,0,0,400,l,0,0,0,0,0,62,62,7,,,['l'],0,[0.2170170740755566],2018_Jul_09_1434,59.9601927933,go-nogo,001,49,
logos/1.jpg,properties1.xlsx,frogs/ab69.jpg,0,0,400,l,0,0,0,0,0,63,63,67,,,['l'],0,[0.21695449624530738],2018_Jul_09_1434,59.9601927933,go-nogo,001,49,
logos/1.jpg,properties1.xlsx,frogs/ab76.jpg,0,0,400,l,0,0,0,0,0,64,64,74,,,['l'],0,[0.23373843945591943],2018_Jul_09_1434,59.9601927933,go-nogo,001,49,
logos/1.jpg,properties1.xlsx,frogs/ab75.jpg,0,0,400,l,0,0,0,0,0,65,65,73,,,['l'],0,[0.2170586030024424],2018_Jul_09_1434,59.9601927933,go-nogo,001,49,
logos/1.jpg,properties1.xlsx,frogs/ab43.jpg,0,0,400,l,0,0,0,0,0,66,66,42,,,['l'],0,[0.21696018514012394],2018_Jul_09_1434,59.9601927933,go-nogo,001,49,
logos/1.jpg,properties1.xlsx,frogs/ab74.jpg,0,0,400,l,0,0,0,0,0,67,67,72,,,['l'],0,[0.25039381366877933],2018_Jul_09_1434,59.9601927933,go-nogo,001,49,
logos/1.jpg,properties1.xlsx,logos/1.jpg,0,0,400,a,0,0,0,0,0,68,68,89,,,['a'],0,[0.23369861720129848],2018_Jul_09_1434,59.9601927933,go-nogo,001,49,
logos/1.jpg,properties1.xlsx,frogs/ab78.jpg,0,0,400,l,0,0,0,0,0,69,69,76,,,['l'],0,[0.233731043894295],2018_Jul_09_1434,59.9601927933,go-nogo,001,49,
logos/1.jpg,properties1.xlsx,frogs/ab24.jpg,0,0,400,l,0,0,0,0,0,70,70,23,,,['l'],0,[0.2336957727529807],2018_Jul_09_1434,59.9601927933,go-nogo,001,49,
logos/1.jpg,properties1.xlsx,frogs/ab68.jpg,0,0,400,l,0,0,0,0,0,71,71,66,,,['l'],0,[0.2336644838378561],2018_Jul_09_1434,59.9601927933,go-nogo,001,49,
logos/1.jpg,properties1.xlsx,frogs/ab52.jpg,0,0,400,l,0,0,0,0,0,72,72,51,,,['l'],0,[0.30000438044771727],2018_Jul_09_1434,59.9601927933,go-nogo,001,49,
logos/1.jpg,properties1.xlsx,frogs/ab6.jpg,0,0,400,l,0,0,0,0,0,73,73,5,,,['l'],0,[0.2004476021593291],2018_Jul_09_1434,59.9601927933,go-nogo,001,49,
logos/1.jpg,properties1.xlsx,frogs/ab48.jpg,0,0,400,l,0,0,0,0,0,74,74,47,,,['l'],0,[0.25041543146653567],2018_Jul_09_1434,59.9601927933,go-nogo,001,49,
logos/1.jpg,properties1.xlsx,frogs/ab67.jpg,0,0,400,l,0,0,0,0,0,75,75,65,,,['l'],0,[0.23379646617286198],2018_Jul_09_1434,59.9601927933,go-nogo,001,49,
logos/1.jpg,properties1.xlsx,frogs/ab33.jpg,0,0,400,l,0,0,0,0,0,76,76,32,,,['l'],0,[0.5002119112923538],2018_Jul_09_1434,59.9601927933,go-nogo,001,49,
logos/1.jpg,properties1.xlsx,logos/1.jpg,0,0,400,a,0,0,0,0,0,77,77,80,,,['a'],0,[0.30051126088073943],2018_Jul_09_1434,59.9601927933,go-nogo,001,49,
logos/1.jpg,properties1.xlsx,frogs/ab58.jpg,0,0,400,l,0,0,0,0,0,78,78,57,,,['l'],0,[0.21722528758618864],2018_Jul_09_1434,59.9601927933,go-nogo,001,49,
logos/1.jpg,properties1.xlsx,frogs/ab71.jpg,0,0,400,l,0,0,0,0,0,79,79,69,,,['l'],0,[0.25003313780507597],2018_Jul_09_1434,59.9601927933,go-nogo,001,49,
logos/1.jpg,properties1.xlsx,frogs/ab2.jpg,0,0,400,l,0,0,0,0,0,80,80,1,,,['l'],0,[0.25040405367872154],2018_Jul_09_1434,59.9601927933,go-nogo,001,49,
logos/1.jpg,properties1.xlsx,frogs/ab31.jpg,0,0,400,l,0,0,0,0,0,81,81,30,,,['l'],0,[0.4171278937265015],2018_Jul_09_1434,59.9601927933,go-nogo,001,49,
logos/1.jpg,properties1.xlsx,frogs/ab41.jpg,0,0,400,l,0,0,0,0,0,82,82,40,,,['l'],0,[0.5501330916704319],2018_Jul_09_1434,59.9601927933,go-nogo,001,49,
logos/1.jpg,properties1.xlsx,frogs/ab27.jpg,0,0,400,l,0,0,0,0,0,83,83,26,,,['l'],0,[0.48349111480274587],2018_Jul_09_1434,59.9601927933,go-nogo,001,49,
logos/1.jpg,properties1.xlsx,logos/1.jpg,0,0,400,a,0,0,0,0,0,84,84,81,,,['a'],0,[0.283614677573496],2018_Jul_09_1434,59.9601927933,go-nogo,001,49,
logos/1.jpg,properties1.xlsx,frogs/ab44.jpg,0,0,400,l,0,0,0,0,0,85,85,43,,,['l'],0,[0.31723433292791015],2018_Jul_09_1434,59.9601927933,go-nogo,001,49,
logos/1.jpg,properties1.xlsx,logos/1.jpg,0,0,400,a,0,0,0,0,0,86,86,82,,,['a'],0,[0.30041966969110945],2018_Jul_09_1434,59.9601927933,go-nogo,001,49,
logos/1.jpg,properties1.xlsx,frogs/ab26.jpg,0,0,400,l,0,0,0,0,0,87,87,25,,,['l'],0,[0.3008486122798786],2018_Jul_09_1434,59.9601927933,go-nogo,001,49,
logos/1.jpg,properties1.xlsx,frogs/ab32.jpg,0,0,400,l,0,0,0,0,0,88,88,31,,,['l'],0,[0.3339721961019677],2018_Jul_09_1434,59.9601927933,go-nogo,001,49,
logos/1.jpg,properties1.xlsx,frogs/ab17.jpg,0,0,400,l,0,0,0,0,0,89,89,16,,,['l'],0,[0.2837426776823122],2018_Jul_09_1434,59.9601927933,go-nogo,001,49,
logos/1.jpg,properties1.xlsx,,,,,,0,0,0,0,,,,,,,,,,2018_Jul_09_1434,59.9601927933,go-nogo,001,49,
logos/3.jpg,properties3.xlsx,frogs/ab53.jpg,0,0,400,l,0,1,1,2,0,0,0,52,space,4.7660926004,['l'],0,[0.5170271434180904],2018_Jul_09_1434,59.9601927933,go-nogo,001,49,
logos/3.jpg,properties3.xlsx,frogs/ab20.jpg,0,0,400,l,0,1,1,2,0,1,1,19,,,['l'],0,[0.21731232766251196],2018_Jul_09_1434,59.9601927933,go-nogo,001,49,
logos/3.jpg,properties3.xlsx,frogs/ab71.jpg,0,0,400,l,0,1,1,2,0,2,2,69,,,['l'],0,[0.2171905853356293],2018_Jul_09_1434,59.9601927933,go-nogo,001,49,
logos/3.jpg,properties3.xlsx,frogs/ab9.jpg,0,0,400,l,0,1,1,2,0,3,3,8,,,['l'],0,[0.31716891065116215],2018_Jul_09_1434,59.9601927933,go-nogo,001,49,
logos/3.jpg,properties3.xlsx,frogs/ab50.jpg,0,0,400,l,0,1,1,2,0,4,4,49,,,['l'],0,[0.2337060127629229],2018_Jul_09_1434,59.9601927933,go-nogo,001,49,
logos/3.jpg,properties3.xlsx,frogs/ab62.jpg,0,0,400,l,0,1,1,2,0,5,5,60,,,['l'],0,[0.25039608922816115],2018_Jul_09_1434,59.9601927933,go-nogo,001,49,
logos/3.jpg,properties3.xlsx,frogs/ab8.jpg,0,0,400,l,0,1,1,2,0,6,6,7,,,['l'],0,[0.283744953241694],2018_Jul_09_1434,59.9601927933,go-nogo,001,49,
logos/3.jpg,properties3.xlsx,logos/3.jpg,0,0,400,a,0,1,1,2,0,7,7,84,,,['a'],0,[0.2504802848543477],2018_Jul_09_1434,59.9601927933,go-nogo,001,49,
logos/3.jpg,properties3.xlsx,frogs/ab7.jpg,0,0,400,l,0,1,1,2,0,8,8,6,,,['l'],0,[0.2837142332136864],2018_Jul_09_1434,59.9601927933,go-nogo,001,49,
logos/3.jpg,properties3.xlsx,logos/3.jpg,0,0,400,a,0,1,1,2,0,9,9,81,,,['a'],0,[0.23383913287580071],2018_Jul_09_1434,59.9601927933,go-nogo,001,49,
logos/3.jpg,properties3.xlsx,frogs/ab74.jpg,0,0,400,l,0,1,1,2,0,10,10,72,,,['l'],0,[0.3002899629136664],2018_Jul_09_1434,59.9601927933,go-nogo,001,49,
logos/3.jpg,properties3.xlsx,frogs/ab22.jpg,0,0,400,l,0,1,1,2,0,11,11,21,,,['l'],0,[0.2671185923845769],2018_Jul_09_1434,59.9601927933,go-nogo,001,49,
logos/3.jpg,properties3.xlsx,logos/3.jpg,0,0,400,a,0,1,1,2,0,12,12,86,,,['a'],0,[0.20054033112865],2018_Jul_09_1434,59.9601927933,go-nogo,001,49,
logos/3.jpg,properties3.xlsx,frogs/ab67.jpg,0,0,400,l,0,1,1,2,0,13,13,65,,,['l'],0,[0.2500445155928901],2018_Jul_09_1434,59.9601927933,go-nogo,001,49,
logos/3.jpg,properties3.xlsx,frogs/ab35.jpg,0,0,400,l,0,1,1,2,0,14,14,34,,,['l'],0,[0.23363888381754805],2018_Jul_09_1434,59.9601927933,go-nogo,001,49,
logos/3.jpg,properties3.xlsx,frogs/ab37.jpg,0,0,400,l,0,1,1,2,0,15,15,36,,,['l'],0,[0.23373331945185782],2018_Jul_09_1434,59.9601927933,go-nogo,001,49,
logos/3.jpg,properties3.xlsx,frogs/ab17.jpg,0,0,400,l,0,1,1,2,0,16,16,16,,,['l'],0,[0.2504831293008465],2018_Jul_09_1434,59.9601927933,go-nogo,001,49,
logos/3.jpg,properties3.xlsx,logos/3.jpg,0,0,400,a,0,1,1,2,0,17,17,88,,,['a'],0,[0.18348502768458275],2018_Jul_09_1434,59.9601927933,go-nogo,001,49,
logos/3.jpg,properties3.xlsx,frogs/ab81.jpg,0,0,400,l,0,1,1,2,0,18,18,79,,,['l'],0,[0.2335546881877235],2018_Jul_09_1434,59.9601927933,go-nogo,001,49,
logos/3.jpg,properties3.xlsx,frogs/ab19.jpg,0,0,400,l,0,1,1,2,0,19,19,18,,,['l'],0,[0.20043508659364306],2018_Jul_09_1434,59.9601927933,go-nogo,001,49,
logos/3.jpg,properties3.xlsx,frogs/ab29.jpg,0,0,400,l,0,1,1,2,0,20,20,28,,,['l'],0,[0.15035404830268817],2018_Jul_09_1434,59.9601927933,go-nogo,001,49,
logos/3.jpg,properties3.xlsx,frogs/ab39.jpg,0,0,400,l,0,1,1,2,0,21,21,38,,,['l'],0,[0.3837426207937824],2018_Jul_09_1434,59.9601927933,go-nogo,001,49,
logos/3.jpg,properties3.xlsx,frogs/ab44.jpg,0,0,400,l,0,1,1,2,0,22,22,43,,,['l'],0,[0.3002922384712292],2018_Jul_09_1434,59.9601927933,go-nogo,001,49,
logos/3.jpg,properties3.xlsx,frogs/ab65.jpg,0,0,400,l,0,1,1,2,0,23,23,63,,,['l'],0,[0.3669421797912946],2018_Jul_09_1434,59.9601927933,go-nogo,001,49,
logos/3.jpg,properties3.xlsx,frogs/ab30.jpg,0,0,400,l,0,1,1,2,0,24,24,29,,,['l'],0,[0.3336308624748199],2018_Jul_09_1434,59.9601927933,go-nogo,001,49,
logos/3.jpg,properties3.xlsx,frogs/ab23.jpg,0,0,400,l,0,1,1,2,0,25,25,22,,,['l'],0,[0.33379413372676936],2018_Jul_09_1434,59.9601927933,go-nogo,001,49,
logos/3.jpg,properties3.xlsx,frogs/ab6.jpg,0,0,400,l,0,1,1,2,0,26,26,5,,,['l'],0,[0.3003201140509191],2018_Jul_09_1434,59.9601927933,go-nogo,001,49,
logos/3.jpg,properties3.xlsx,logos/3.jpg,0,0,400,a,0,1,1,2,0,27,27,83,,,['a'],0,[0.18360620112071047],2018_Jul_09_1434,59.9601927933,go-nogo,001,49,
logos/3.jpg,properties3.xlsx,frogs/ab12.jpg,0,0,400,l,0,1,1,2,0,28,28,11,,,['l'],0,[0.23359451044416346],2018_Jul_09_1434,59.9601927933,go-nogo,001,49,
logos/3.jpg,properties3.xlsx,frogs/ab25.jpg,0,0,400,l,0,1,1,2,0,29,29,24,,,['l'],0,[0.33329464885537163],2018_Jul_09_1434,59.9601927933,go-nogo,001,49,
logos/3.jpg,properties3.xlsx,frogs/ab21.jpg,0,0,400,l,0,1,1,2,0,30,30,20,,,['l'],0,[0.21728103874738736],2018_Jul_09_1434,59.9601927933,go-nogo,001,49,
logos/3.jpg,properties3.xlsx,frogs/ab77.jpg,0,0,400,l,0,1,1,2,0,31,31,75,,,['l'],0,[0.26706739234214183],2018_Jul_09_1434,59.9601927933,go-nogo,001,49,
logos/3.jpg,properties3.xlsx,frogs/ab28.jpg,0,0,400,l,0,1,1,2,0,32,32,27,,,['l'],0,[0.21704096743087575],2018_Jul_09_1434,59.9601927933,go-nogo,001,49,
logos/3.jpg,properties3.xlsx,frogs/ab49.jpg,0,0,400,l,0,1,1,2,0,33,33,48,,,['l'],0,[0.25045866705659137],2018_Jul_09_1434,59.9601927933,go-nogo,001,49,
logos/3.jpg,properties3.xlsx,frogs/ab38.jpg,0,0,400,l,0,1,1,2,0,34,34,37,,,['l'],0,[0.6510011599657446],2018_Jul_09_1434,59.9601927933,go-nogo,001,49,
logos/3.jpg,properties3.xlsx,frogs/ab57.jpg,0,0,400,l,0,1,1,2,0,35,35,56,,,['l'],0,[0.2670571523340186],2018_Jul_09_1434,59.9601927933,go-nogo,001,49,
logos/3.jpg,properties3.xlsx,frogs/ab31.jpg,0,0,400,l,0,1,1,2,0,36,36,30,,,['l'],0,[0.3170585461120936],2018_Jul_09_1434,59.9601927933,go-nogo,001,49,
logos/3.jpg,properties3.xlsx,frogs/ab55.jpg,0,0,400,l,0,1,1,2,0,37,37,54,,,['l'],0,[0.2670417923200148],2018_Jul_09_1434,59.9601927933,go-nogo,001,49,
logos/3.jpg,properties3.xlsx,frogs/ab42.jpg,0,0,400,l,0,1,1,2,0,38,38,41,,,['l'],0,[0.400310954930319],2018_Jul_09_1434,59.9601927933,go-nogo,001,49,
logos/3.jpg,properties3.xlsx,frogs/ab18.jpg,0,0,400,l,0,1,1,2,0,39,39,17,,,['l'],0,[0.33361265801613627],2018_Jul_09_1434,59.9601927933,go-nogo,001,49,
logos/3.jpg,properties3.xlsx,logos/3.jpg,0,0,400,a,0,1,1,2,0,40,40,85,,,['a'],0,[0.28377453548819176],2018_Jul_09_1434,59.9601927933,go-nogo,001,49,
logos/3.jpg,properties3.xlsx,frogs/ab63.jpg,0,0,400,l,0,1,1,2,0,41,41,61,,,['l'],0,[0.4333526186837844],2018_Jul_09_1434,59.9601927933,go-nogo,001,49,
logos/3.jpg,properties3.xlsx,frogs/ab76.jpg,0,0,400,l,0,1,1,2,0,42,42,74,,,['l'],0,[0.3670741621244815],2018_Jul_09_1434,59.9601927933,go-nogo,001,49,
logos/3.jpg,properties3.xlsx,logos/3.jpg,0,0,400,a,0,1,1,2,0,43,43,89,,,['a'],0,[0.36688472196328803],2018_Jul_09_1434,59.9601927933,go-nogo,001,49,
logos/3.jpg,properties3.xlsx,frogs/ab33.jpg,0,0,400,l,0,1,1,2,0,44,44,32,,,['l'],0,[0.983358848021453],2018_Jul_09_1434,59.9601927933,go-nogo,001,49,
logos/3.jpg,properties3.xlsx,frogs/ab80.jpg,0,0,400,l,0,1,1,2,0,45,45,78,,,['l'],0,[0.3169697993689624],2018_Jul_09_1434,59.9601927933,go-nogo,001,49,
logos/3.jpg,properties3.xlsx,frogs/ab40.jpg,0,0,400,l,0,1,1,2,0,46,46,39,,,['l'],0,[0.3002507095479814],2018_Jul_09_1434,59.9601927933,go-nogo,001,49,
logos/3.jpg,properties3.xlsx,frogs/ab73.jpg,0,0,400,l,0,1,1,2,0,47,47,71,,,['l'],0,[0.23372535500129743],2018_Jul_09_1434,59.9601927933,go-nogo,001,49,
logos/3.jpg,properties3.xlsx,frogs/ab61.jpg,0,0,400,l,0,1,1,2,0,48,48,59,,,['l'],0,[0.31703351497890253],2018_Jul_09_1434,59.9601927933,go-nogo,001,49,
logos/3.jpg,properties3.xlsx,frogs/ab26.jpg,0,0,400,l,0,1,1,2,0,49,49,25,,,['l'],0,[0.3170232749725983],2018_Jul_09_1434,59.9601927933,go-nogo,001,49,
logos/3.jpg,properties3.xlsx,logos/3.jpg,0,0,400,a,0,1,1,2,0,50,50,80,,,['a'],0,[0.25049166264034284],2018_Jul_09_1434,59.9601927933,go-nogo,001,49,
logos/3.jpg,properties3.xlsx,frogs/ab47.jpg,0,0,400,l,0,1,1,2,0,51,51,46,,,['l'],0,[0.3003872429981129],2018_Jul_09_1434,59.9601927933,go-nogo,001,49,
logos/3.jpg,properties3.xlsx,frogs/ab13.jpg,0,0,400,l,0,1,1,2,0,52,52,12,,,['l'],0,[0.31689243041546433],2018_Jul_09_1434,59.9601927933,go-nogo,001,49,
logos/3.jpg,properties3.xlsx,frogs/ab68.jpg,0,0,400,l,0,1,1,2,0,53,53,66,,,['l'],0,[0.28370001098119246],2018_Jul_09_1434,59.9601927933,go-nogo,001,49,
logos/3.jpg,properties3.xlsx,frogs/ab36.jpg,0,0,400,l,0,1,1,2,0,54,54,35,,,['l'],0,[0.3336041246748209],2018_Jul_09_1434,59.9601927933,go-nogo,001,49,
logos/3.jpg,properties3.xlsx,frogs/ab14.jpg,0,0,400,l,0,1,1,2,0,55,55,13,,,['l'],0,[0.2837677088155033],2018_Jul_09_1434,59.9601927933,go-nogo,001,49,
logos/3.jpg,properties3.xlsx,frogs/ab15.jpg,0,0,400,l,0,1,1,2,0,56,56,14,,,['l'],0,[0.3170170171870268],2018_Jul_09_1434,59.9601927933,go-nogo,001,49,
logos/3.jpg,properties3.xlsx,logos/3.jpg,0,0,400,a,0,1,1,2,0,57,57,87,,,['a'],0,[0.16670563558909635],2018_Jul_09_1434,59.9601927933,go-nogo,001,49,
logos/3.jpg,properties3.xlsx,frogs/ab54.jpg,0,0,400,l,0,1,1,2,0,58,58,53,,,['l'],0,[0.3170574083324027],2018_Jul_09_1434,59.9601927933,go-nogo,001,49,
logos/3.jpg,properties3.xlsx,frogs/ab51.jpg,0,0,400,l,0,1,1,2,0,59,59,50,,,['l'],0,[0.25049905820378626],2018_Jul_09_1434,59.9601927933,go-nogo,001,49,
logos/3.jpg,properties3.xlsx,frogs/ab66.jpg,0,0,400,l,0,1,1,2,0,60,60,64,,,['l'],0,[0.2837364199003787],2018_Jul_09_1434,59.9601927933,go-nogo,001,49,
logos/3.jpg,properties3.xlsx,frogs/ab48.jpg,0,0,400,l,0,1,1,2,0,61,61,47,,,['l'],0,[0.28372504211256455],2018_Jul_09_1434,59.9601927933,go-nogo,001,49,
logos/3.jpg,properties3.xlsx,frogs/ab45.jpg,0,0,400,l,0,1,1,2,0,62,62,44,,,['l'],0,[0.3170209994132165],2018_Jul_09_1434,59.9601927933,go-nogo,001,49,
logos/3.jpg,properties3.xlsx,frogs/ab41.jpg,0,0,400,l,0,1,1,2,0,63,63,40,,,['l'],0,[0.25036366253334563],2018_Jul_09_1434,59.9601927933,go-nogo,001,49,
logos/3.jpg,properties3.xlsx,frogs/ab58.jpg,0,0,400,l,0,1,1,2,0,64,64,57,,,['l'],0,[0.2670144856292609],2018_Jul_09_1434,59.9601927933,go-nogo,001,49,
logos/3.jpg,properties3.xlsx,frogs/ab11.jpg,0,0,400,l,0,1,1,2,0,65,65,10,,,['l'],0,[0.3170312394213397],2018_Jul_09_1434,59.9601927933,go-nogo,001,49,
logos/3.jpg,properties3.xlsx,frogs/ab4.jpg,0,0,400,l,0,1,1,2,0,66,66,3,,,['l'],0,[0.3003195451601641],2018_Jul_09_1434,59.9601927933,go-nogo,001,49,
logos/3.jpg,properties3.xlsx,frogs/ab60.jpg,0,0,400,l,0,1,1,2,0,67,67,58,,,['l'],0,[0.3503471078511211],2018_Jul_09_1434,59.9601927933,go-nogo,001,49,
logos/3.jpg,properties3.xlsx,logos/3.jpg,0,0,400,a,0,1,1,2,0,68,68,82,,,['a'],0,[0.1838104324069718],2018_Jul_09_1434,59.9601927933,go-nogo,001,49,
logos/3.jpg,properties3.xlsx,frogs/ab1.jpg,0,0,400,l,0,1,1,2,0,69,69,0,,,['l'],0,[0.21700398962275358],2018_Jul_09_1434,59.9601927933,go-nogo,001,49,
logos/3.jpg,properties3.xlsx,frogs/ab10.jpg,0,0,400,l,0,1,1,2,0,70,70,9,,,['l'],0,[0.30042080747080036],2018_Jul_09_1434,59.9601927933,go-nogo,001,49,
logos/3.jpg,properties3.xlsx,frogs/ab5.jpg,0,0,400,l,0,1,1,2,0,71,71,4,,,['l'],0,[0.25038584921821894],2018_Jul_09_1434,59.9601927933,go-nogo,001,49,
logos/3.jpg,properties3.xlsx,frogs/ab32.jpg,0,0,400,l,0,1,1,2,0,72,72,31,,,['l'],0,[0.28361012645837036],2018_Jul_09_1434,59.9601927933,go-nogo,001,49,
logos/3.jpg,properties3.xlsx,frogs/ab75.jpg,0,0,400,l,0,1,1,2,0,73,73,73,,,['l'],0,[0.28353844639786985],2018_Jul_09_1434,59.9601927933,go-nogo,001,49,
logos/3.jpg,properties3.xlsx,frogs/ab2.jpg,0,0,400,l,0,1,1,2,0,74,74,1,,,['l'],0,[0.4002665815605724],2018_Jul_09_1434,59.9601927933,go-nogo,001,49,
logos/3.jpg,properties3.xlsx,frogs/ab43.jpg,0,0,400,l,0,1,1,2,0,75,75,42,,,['l'],0,[0.2337651772559184],2018_Jul_09_1434,59.9601927933,go-nogo,001,49,
logos/3.jpg,properties3.xlsx,frogs/ab79.jpg,0,0,400,l,0,1,1,2,0,76,76,77,,,['l'],0,[0.2671367968450795],2018_Jul_09_1434,59.9601927933,go-nogo,001,49,
logos/3.jpg,properties3.xlsx,frogs/ab70.jpg,0,0,400,l,0,1,1,2,0,77,77,68,,,['l'],0,[0.28364425981999375],2018_Jul_09_1434,59.9601927933,go-nogo,001,49,
logos/3.jpg,properties3.xlsx,frogs/ab72.jpg,0,0,400,l,0,1,1,2,0,78,78,70,,,['l'],0,[0.2170193496349384],2018_Jul_09_1434,59.9601927933,go-nogo,001,49,
logos/3.jpg,properties3.xlsx,frogs/ab46.jpg,0,0,400,l,0,1,1,2,0,79,79,45,,,['l'],0,[0.28375633102768916],2018_Jul_09_1434,59.9601927933,go-nogo,001,49,
logos/3.jpg,properties3.xlsx,frogs/ab78.jpg,0,0,400,l,0,1,1,2,0,80,80,76,,,['l'],0,[0.25025102243671427],2018_Jul_09_1434,59.9601927933,go-nogo,001,49,
logos/3.jpg,properties3.xlsx,frogs/ab34.jpg,0,0,400,l,0,1,1,2,0,81,81,33,,,['l'],0,[0.16686378683516523],2018_Jul_09_1434,59.9601927933,go-nogo,001,49,
logos/3.jpg,properties3.xlsx,frogs/ab64.jpg,0,0,400,l,0,1,1,2,0,82,82,62,,,['l'],0,[1.0332885617390275],2018_Jul_09_1434,59.9601927933,go-nogo,001,49,
logos/3.jpg,properties3.xlsx,frogs/ab3.jpg,0,0,400,l,0,1,1,2,0,83,83,2,,,['l'],0,[0.35013775656261714],2018_Jul_09_1434,59.9601927933,go-nogo,001,49,
logos/3.jpg,properties3.xlsx,frogs/ab56.jpg,0,0,400,l,0,1,1,2,0,84,84,55,,,['l'],0,[0.3004936253109918],2018_Jul_09_1434,59.9601927933,go-nogo,001,49,
logos/3.jpg,properties3.xlsx,frogs/ab52.jpg,0,0,400,l,0,1,1,2,0,85,85,51,,,['l'],0,[0.23371568388211017],2018_Jul_09_1434,59.9601927933,go-nogo,001,49,
logos/3.jpg,properties3.xlsx,frogs/ab27.jpg,0,0,400,l,0,1,1,2,0,86,86,26,,,['l'],0,[0.16703559142661106],2018_Jul_09_1434,59.9601927933,go-nogo,001,49,
logos/3.jpg,properties3.xlsx,frogs/ab24.jpg,0,0,400,l,0,1,1,2,0,87,87,23,,,['l'],0,[0.31710007503534143],2018_Jul_09_1434,59.9601927933,go-nogo,001,49,
logos/3.jpg,properties3.xlsx,frogs/ab69.jpg,0,0,400,l,0,1,1,2,0,88,88,67,,,['l'],0,[0.30039748300623614],2018_Jul_09_1434,59.9601927933,go-nogo,001,49,
logos/3.jpg,properties3.xlsx,frogs/ab16.jpg,0,0,400,l,0,1,1,2,0,89,89,15,,,['l'],0,[0.3002922384712292],2018_Jul_09_1434,59.9601927933,go-nogo,001,49,
logos/3.jpg,properties3.xlsx,,,,,,0,1,1,2,,,,,,,,,,2018_Jul_09_1434,59.9601927933,go-nogo,001,49,
logos/4.jpg,properties4.xlsx,frogs/ab78.jpg,0,0,400,l,0,2,2,3,0,0,0,76,space,2.26388843852,['l'],0,[0.10019905439366994],2018_Jul_09_1434,59.9601927933,go-nogo,001,49,
logos/4.jpg,properties4.xlsx,frogs/ab80.jpg,0,0,400,l,0,2,2,3,0,1,1,78,,,['l'],0,[0.30030475403691526],2018_Jul_09_1434,59.9601927933,go-nogo,001,49,
logos/4.jpg,properties4.xlsx,frogs/ab17.jpg,0,0,400,l,0,2,2,3,0,2,2,16,,,['l'],0,[0.1838940591442224],2018_Jul_09_1434,59.9601927933,go-nogo,001,49,
logos/4.jpg,properties4.xlsx,frogs/ab19.jpg,0,0,400,l,0,2,2,3,0,3,3,18,,,['l'],0,[0.2338277550879866],2018_Jul_09_1434,59.9601927933,go-nogo,001,49,
logos/4.jpg,properties4.xlsx,frogs/ab81.jpg,0,0,400,l,0,2,2,3,0,4,4,79,,,['l'],0,[0.2172543009473884],2018_Jul_09_1434,59.9601927933,go-nogo,001,49,
logos/4.jpg,properties4.xlsx,frogs/ab1.jpg,0,0,400,l,0,2,2,3,0,5,5,0,,,['l'],0,[0.25040291589903063],2018_Jul_09_1434,59.9601927933,go-nogo,001,49,
logos/4.jpg,properties4.xlsx,frogs/ab7.jpg,0,0,400,l,0,2,2,3,0,6,6,6,,,['l'],0,[0.21700228295230772],2018_Jul_09_1434,59.9601927933,go-nogo,001,49,
logos/4.jpg,properties4.xlsx,logos/4.jpg,0,0,400,a,0,2,2,3,0,7,7,88,,,['a'],0,[0.2833325084448006],2018_Jul_09_1434,59.9601927933,go-nogo,001,49,
logos/4.jpg,properties4.xlsx,frogs/ab77.jpg,0,0,400,l,0,2,2,3,0,8,8,75,,,['l'],0,[0.2501224534389621],2018_Jul_09_1434,59.9601927933,go-nogo,001,49,
logos/4.jpg,properties4.xlsx,logos/4.jpg,0,0,400,a,0,2,2,3,0,9,9,81,,,['a'],0,[0.2670116411845811],2018_Jul_09_1434,59.9601927933,go-nogo,001,49,
logos/4.jpg,properties4.xlsx,frogs/ab9.jpg,0,0,400,l,0,2,2,3,0,10,10,8,,,['l'],0,[0.2502595557780296],2018_Jul_09_1434,59.9601927933,go-nogo,001,49,
logos/4.jpg,properties4.xlsx,frogs/ab76.jpg,0,0,400,l,0,2,2,3,0,11,11,74,,,['l'],0,[0.2669621478089539],2018_Jul_09_1434,59.9601927933,go-nogo,001,49,
logos/4.jpg,properties4.xlsx,logos/4.jpg,0,0,400,a,0,2,2,3,0,12,12,87,,,['a'],0,[0.2171018385943171],2018_Jul_09_1434,59.9601927933,go-nogo,001,49,
logos/4.jpg,properties4.xlsx,frogs/ab21.jpg,0,0,400,l,0,2,2,3,0,13,13,20,,,['l'],0,[0.03359803756029578],2018_Jul_09_1434,59.9601927933,go-nogo,001,49,
logos/4.jpg,properties4.xlsx,logos/4.jpg,0,0,400,a,0,2,2,3,0,14,14,82,,,['a'],0,[0.7999995448881236],2018_Jul_09_1434,59.9601927933,go-nogo,001,49,
logos/4.jpg,properties4.xlsx,frogs/ab69.jpg,0,0,400,l,0,2,2,3,0,15,15,67,,,['l'],0,[0.31694590601546224],2018_Jul_09_1434,59.9601927933,go-nogo,001,49,
logos/4.jpg,properties4.xlsx,frogs/ab67.jpg,0,0,400,l,0,2,2,3,0,16,16,65,,,['l'],0,[0.3003303540590423],2018_Jul_09_1434,59.9601927933,go-nogo,001,49,
logos/4.jpg,properties4.xlsx,frogs/ab51.jpg,0,0,400,l,0,2,2,3,0,17,17,50,,,['l'],0,[0.3170363594272203],2018_Jul_09_1434,59.9601927933,go-nogo,001,49,
logos/4.jpg,properties4.xlsx,frogs/ab23.jpg,0,0,400,l,0,2,2,3,0,18,18,22,,,['l'],0,[0.25036992031527916],2018_Jul_09_1434,59.9601927933,go-nogo,001,49,
logos/4.jpg,properties4.xlsx,frogs/ab31.jpg,0,0,400,l,0,2,2,3,0,19,19,30,,,['l'],0,[0.30041341190735693],2018_Jul_09_1434,59.9601927933,go-nogo,001,49,
logos/4.jpg,properties4.xlsx,frogs/ab22.jpg,0,0,400,l,0,2,2,3,0,20,20,21,,,['l'],0,[0.33371335143601755],2018_Jul_09_1434,59.9601927933,go-nogo,001,49,
logos/4.jpg,properties4.xlsx,frogs/ab64.jpg,0,0,400,l,0,2,2,3,0,21,21,62,,,['l'],0,[0.23380898173854803],2018_Jul_09_1434,59.9601927933,go-nogo,001,49,
logos/4.jpg,properties4.xlsx,frogs/ab8.jpg,0,0,400,l,0,2,2,3,0,22,22,7,,,['l'],0,[0.2835668908646767],2018_Jul_09_1434,59.9601927933,go-nogo,001,49,
logos/4.jpg,properties4.xlsx,frogs/ab57.jpg,0,0,400,l,0,2,2,3,0,23,23,56,,,['l'],0,[0.26709185458457796],2018_Jul_09_1434,59.9601927933,go-nogo,001,49,
logos/4.jpg,properties4.xlsx,frogs/ab49.jpg,0,0,400,l,0,2,2,3,0,24,24,48,,,['l'],0,[0.21703015853381658],2018_Jul_09_1434,59.9601927933,go-nogo,001,49,
logos/4.jpg,properties4.xlsx,frogs/ab35.jpg,0,0,400,l,0,2,2,3,0,25,25,34,,,['l'],0,[0.2833484373477404],2018_Jul_09_1434,59.9601927933,go-nogo,001,49,
logos/4.jpg,properties4.xlsx,frogs/ab34.jpg,0,0,400,l,0,2,2,3,0,26,26,33,,,['l'],0,[0.2837051309852541],2018_Jul_09_1434,59.9601927933,go-nogo,001,49,
logos/4.jpg,properties4.xlsx,frogs/ab41.jpg,0,0,400,l,0,2,2,3,0,27,27,40,,,['l'],0,[0.4003291593908216],2018_Jul_09_1434,59.9601927933,go-nogo,001,49,
logos/4.jpg,properties4.xlsx,logos/4.jpg,0,0,400,a,0,2,2,3,0,28,28,83,,,['a'],0,[0.25050474709678383],2018_Jul_09_1434,59.9601927933,go-nogo,001,49,
logos/4.jpg,properties4.xlsx,frogs/ab60.jpg,0,0,400,l,0,2,2,3,0,29,29,58,,,['l'],0,[0.4836094437923748],2018_Jul_09_1434,59.9601927933,go-nogo,001,49,
logos/4.jpg,properties4.xlsx,frogs/ab3.jpg,0,0,400,l,0,2,2,3,0,30,30,2,,,['l'],0,[0.2837859132741869],2018_Jul_09_1434,59.9601927933,go-nogo,001,49,
logos/4.jpg,properties4.xlsx,frogs/ab42.jpg,0,0,400,l,0,2,2,3,0,31,31,41,,,['l'],0,[0.28354641084843024],2018_Jul_09_1434,59.9601927933,go-nogo,001,49,
logos/4.jpg,properties4.xlsx,frogs/ab75.jpg,0,0,400,l,0,2,2,3,0,32,32,73,,,['l'],0,[0.2837529176922544],2018_Jul_09_1434,59.9601927933,go-nogo,001,49,
logos/4.jpg,properties4.xlsx,frogs/ab5.jpg,0,0,400,l,0,2,2,3,0,33,33,4,,,['l'],0,[0.4169265068885579],2018_Jul_09_1434,59.9601927933,go-nogo,001,49,
logos/4.jpg,properties4.xlsx,frogs/ab27.jpg,0,0,400,l,0,2,2,3,0,34,34,26,,,['l'],0,[0.2837608821428148],2018_Jul_09_1434,59.9601927933,go-nogo,001,49,
logos/4.jpg,properties4.xlsx,frogs/ab46.jpg,0,0,400,l,0,2,2,3,0,35,35,45,,,['l'],0,[0.21701764296631154],2018_Jul_09_1434,59.9601927933,go-nogo,001,49,
logos/4.jpg,properties4.xlsx,frogs/ab56.jpg,0,0,400,l,0,2,2,3,0,36,36,55,,,['l'],0,[0.4001943326111359],2018_Jul_09_1434,59.9601927933,go-nogo,001,49,
logos/4.jpg,properties4.xlsx,frogs/ab73.jpg,0,0,400,l,0,2,2,3,0,37,37,71,,,['l'],0,[0.250372195872842],2018_Jul_09_1434,59.9601927933,go-nogo,001,49,
logos/4.jpg,properties4.xlsx,frogs/ab71.jpg,0,0,400,l,0,2,2,3,0,38,38,69,,,['l'],0,[0.6502138170726539],2018_Jul_09_1434,59.9601927933,go-nogo,001,49,
logos/4.jpg,properties4.xlsx,logos/4.jpg,0,0,400,a,0,2,2,3,0,39,39,89,,,['a'],0,[0.26715443241664616],2018_Jul_09_1434,59.9601927933,go-nogo,001,49,
logos/4.jpg,properties4.xlsx,frogs/ab61.jpg,0,0,400,l,0,2,2,3,0,40,40,59,,,['l'],0,[0.250411449240346],2018_Jul_09_1434,59.9601927933,go-nogo,001,49,
logos/4.jpg,properties4.xlsx,frogs/ab4.jpg,0,0,400,l,0,2,2,3,0,41,41,3,,,['l'],0,[0.2503892625536537],2018_Jul_09_1434,59.9601927933,go-nogo,001,49,
logos/4.jpg,properties4.xlsx,frogs/ab79.jpg,0,0,400,l,0,2,2,3,0,42,42,77,,,['l'],0,[0.26713110795208195],2018_Jul_09_1434,59.9601927933,go-nogo,001,49,
logos/4.jpg,properties4.xlsx,frogs/ab36.jpg,0,0,400,l,0,2,2,3,0,43,43,35,,,['l'],0,[0.3836726474000898],2018_Jul_09_1434,59.9601927933,go-nogo,001,49,
logos/4.jpg,properties4.xlsx,frogs/ab54.jpg,0,0,400,l,0,2,2,3,0,44,44,53,,,['l'],0,[0.2501673956976447],2018_Jul_09_1434,59.9601927933,go-nogo,001,49,
logos/4.jpg,properties4.xlsx,frogs/ab6.jpg,0,0,400,l,0,2,2,3,0,45,45,5,,,['l'],0,[0.36690406420348154],2018_Jul_09_1434,59.9601927933,go-nogo,001,49,
logos/4.jpg,properties4.xlsx,frogs/ab48.jpg,0,0,400,l,0,2,2,3,0,46,46,47,,,['l'],0,[0.26688705440938065],2018_Jul_09_1434,59.9601927933,go-nogo,001,49,
logos/4.jpg,properties4.xlsx,frogs/ab30.jpg,0,0,400,l,0,2,2,3,0,47,47,29,,,['l'],0,[0.31713250173015695],2018_Jul_09_1434,59.9601927933,go-nogo,001,49,
logos/4.jpg,properties4.xlsx,frogs/ab70.jpg,0,0,400,l,0,2,2,3,0,48,48,68,,,['l'],0,[0.2669189122152602],2018_Jul_09_1434,59.9601927933,go-nogo,001,49,
logos/4.jpg,properties4.xlsx,frogs/ab14.jpg,0,0,400,l,0,2,2,3,0,49,49,13,,,['l'],0,[0.2836266242502461],2018_Jul_09_1434,59.9601927933,go-nogo,001,49,
logos/4.jpg,properties4.xlsx,frogs/ab66.jpg,0,0,400,l,0,2,2,3,0,50,50,64,,,['l'],0,[0.3002518473258533],2018_Jul_09_1434,59.9601927933,go-nogo,001,49,
logos/4.jpg,properties4.xlsx,frogs/ab62.jpg,0,0,400,l,0,2,2,3,0,51,51,60,,,['l'],0,[0.3837113318786578],2018_Jul_09_1434,59.9601927933,go-nogo,001,49,
logos/4.jpg,properties4.xlsx,frogs/ab12.jpg,0,0,400,l,0,2,2,3,0,52,52,11,,,['l'],0,[0.26709071680488705],2018_Jul_09_1434,59.9601927933,go-nogo,001,49,
logos/4.jpg,properties4.xlsx,frogs/ab2.jpg,0,0,400,l,0,2,2,3,0,53,53,1,,,['l'],0,[0.4004565906125208],2018_Jul_09_1434,59.9601927933,go-nogo,001,49,
logos/4.jpg,properties4.xlsx,frogs/ab43.jpg,0,0,400,l,0,2,2,3,0,54,54,42,,,['l'],0,[0.3335273246084398],2018_Jul_09_1434,59.9601927933,go-nogo,001,49,
logos/4.jpg,properties4.xlsx,frogs/ab37.jpg,0,0,400,l,0,2,2,3,0,55,55,36,,,['l'],0,[0.33384021376514283],2018_Jul_09_1434,59.9601927933,go-nogo,001,49,
logos/4.jpg,properties4.xlsx,frogs/ab29.jpg,0,0,400,l,0,2,2,3,0,56,56,28,,,['l'],0,[0.2671367968450795],2018_Jul_09_1434,59.9601927933,go-nogo,001,49,
logos/4.jpg,properties4.xlsx,frogs/ab32.jpg,0,0,400,l,0,2,2,3,0,57,57,31,,,['l'],0,[0.2504347737030912],2018_Jul_09_1434,59.9601927933,go-nogo,001,49,
logos/4.jpg,properties4.xlsx,frogs/ab11.jpg,0,0,400,l,0,2,2,3,0,58,58,10,,,['l'],0,[0.28355153085249185],2018_Jul_09_1434,59.9601927933,go-nogo,001,49,
logos/4.jpg,properties4.xlsx,logos/4.jpg,0,0,400,a,0,2,2,3,0,59,59,84,,,['a'],0,[0.35042902792156383],2018_Jul_09_1434,59.9601927933,go-nogo,001,49,
logos/4.jpg,properties4.xlsx,frogs/ab33.jpg,0,0,400,l,0,2,2,3,0,60,60,32,,,['l'],0,[0.23382434175073286],2018_Jul_09_1434,59.9601927933,go-nogo,001,49,
logos/4.jpg,properties4.xlsx,logos/4.jpg,0,0,400,a,0,2,2,3,0,61,61,85,,,['a'],0,[0.2503494402990327],2018_Jul_09_1434,59.9601927933,go-nogo,001,49,
logos/4.jpg,properties4.xlsx,frogs/ab13.jpg,0,0,400,l,0,2,2,3,0,62,62,12,,,['l'],0,[0.23369292830648192],2018_Jul_09_1434,59.9601927933,go-nogo,001,49,
logos/4.jpg,properties4.xlsx,frogs/ab10.jpg,0,0,400,l,0,2,2,3,0,63,63,9,,,['l'],0,[0.25032668472340447],2018_Jul_09_1434,59.9601927933,go-nogo,001,49,
logos/4.jpg,properties4.xlsx,frogs/ab45.jpg,0,0,400,l,0,2,2,3,0,64,64,44,,,['l'],0,[0.2668671432820702],2018_Jul_09_1434,59.9601927933,go-nogo,001,49,
logos/4.jpg,properties4.xlsx,frogs/ab20.jpg,0,0,400,l,0,2,2,3,0,65,65,19,,,['l'],0,[0.2833854151540436],2018_Jul_09_1434,59.9601927933,go-nogo,001,49,
logos/4.jpg,properties4.xlsx,frogs/ab50.jpg,0,0,400,l,0,2,2,3,0,66,66,49,,,['l'],0,[0.21704494965524646],2018_Jul_09_1434,59.9601927933,go-nogo,001,49,
logos/4.jpg,properties4.xlsx,frogs/ab47.jpg,0,0,400,l,0,2,2,3,0,67,67,46,,,['l'],0,[0.3170625283382833],2018_Jul_09_1434,59.9601927933,go-nogo,001,49,
logos/4.jpg,properties4.xlsx,frogs/ab68.jpg,0,0,400,l,0,2,2,3,0,68,68,66,,,['l'],0,[0.2670270011967659],2018_Jul_09_1434,59.9601927933,go-nogo,001,49,
logos/4.jpg,properties4.xlsx,frogs/ab25.jpg,0,0,400,l,0,2,2,3,0,69,69,24,,,['l'],0,[0.23376403947804647],2018_Jul_09_1434,59.9601927933,go-nogo,001,49,
logos/4.jpg,properties4.xlsx,frogs/ab65.jpg,0,0,400,l,0,2,2,3,0,70,70,63,,,['l'],0,[0.3168287148055242],2018_Jul_09_1434,59.9601927933,go-nogo,001,49,
logos/4.jpg,properties4.xlsx,logos/4.jpg,0,0,400,a,0,2,2,3,0,71,71,80,,,['a'],0,[0.23374071501348226],2018_Jul_09_1434,59.9601927933,go-nogo,001,49,
logos/4.jpg,properties4.xlsx,frogs/ab74.jpg,0,0,400,l,0,2,2,3,0,72,72,72,,,['l'],0,[0.21709671859025548],2018_Jul_09_1434,59.9601927933,go-nogo,001,49,
logos/4.jpg,properties4.xlsx,frogs/ab38.jpg,0,0,400,l,0,2,2,3,0,73,73,37,,,['l'],0,[0.28372390433287364],2018_Jul_09_1434,59.9601927933,go-nogo,001,49,
logos/4.jpg,properties4.xlsx,frogs/ab26.jpg,0,0,400,l,0,2,2,3,0,74,74,25,,,['l'],0,[0.25042510258390394],2018_Jul_09_1434,59.9601927933,go-nogo,001,49,
logos/4.jpg,properties4.xlsx,frogs/ab53.jpg,0,0,400,l,0,2,2,3,0,75,75,52,,,['l'],0,[0.2503107558204647],2018_Jul_09_1434,59.9601927933,go-nogo,001,49,
logos/4.jpg,properties4.xlsx,frogs/ab55.jpg,0,0,400,l,0,2,2,3,0,76,76,54,,,['l'],0,[0.4000651947208098],2018_Jul_09_1434,59.9601927933,go-nogo,001,49,
logos/4.jpg,properties4.xlsx,frogs/ab63.jpg,0,0,400,l,0,2,2,3,0,77,77,61,,,['l'],0,[0.4336666456183593],2018_Jul_09_1434,59.9601927933,go-nogo,001,49,
logos/4.jpg,properties4.xlsx,frogs/ab40.jpg,0,0,400,l,0,2,2,3,0,78,78,39,,,['l'],0,[0.333564302418381],2018_Jul_09_1434,59.9601927933,go-nogo,001,49,
logos/4.jpg,properties4.xlsx,logos/4.jpg,0,0,400,a,0,2,2,3,0,79,79,86,,,['a'],0,[0.2335967860017263],2018_Jul_09_1434,59.9601927933,go-nogo,001,49,
logos/4.jpg,properties4.xlsx,frogs/ab15.jpg,0,0,400,l,0,2,2,3,0,80,80,14,,,['l'],0,[0.2503613869739638],2018_Jul_09_1434,59.9601927933,go-nogo,001,49,
logos/4.jpg,properties4.xlsx,frogs/ab44.jpg,0,0,400,l,0,2,2,3,0,81,81,43,,,['l'],0,[0.250372195872842],2018_Jul_09_1434,59.9601927933,go-nogo,001,49,
logos/4.jpg,properties4.xlsx,frogs/ab39.jpg,0,0,400,l,0,2,2,3,0,82,82,38,,,['l'],0,[0.2500837689603941],2018_Jul_09_1434,59.9601927933,go-nogo,001,49,
logos/4.jpg,properties4.xlsx,frogs/ab18.jpg,0,0,400,l,0,2,2,3,0,83,83,17,,,['l'],0,[0.2671732057660847],2018_Jul_09_1434,59.9601927933,go-nogo,001,49,
logos/4.jpg,properties4.xlsx,frogs/ab16.jpg,0,0,400,l,0,2,2,3,0,84,84,15,,,['l'],0,[0.2503278225012764],2018_Jul_09_1434,59.9601927933,go-nogo,001,49,
logos/4.jpg,properties4.xlsx,frogs/ab28.jpg,0,0,400,l,0,2,2,3,0,85,85,27,,,['l'],0,[0.9666124515097181],2018_Jul_09_1434,59.9601927933,go-nogo,001,49,
logos/4.jpg,properties4.xlsx,frogs/ab72.jpg,0,0,400,l,0,2,2,3,0,86,86,70,,,['l'],0,[0.2503915381112165],2018_Jul_09_1434,59.9601927933,go-nogo,001,49,
logos/4.jpg,properties4.xlsx,frogs/ab52.jpg,0,0,400,l,0,2,2,3,0,87,87,51,,,['l'],0,[0.35033459228543506],2018_Jul_09_1434,59.9601927933,go-nogo,001,49,
logos/4.jpg,properties4.xlsx,frogs/ab58.jpg,0,0,400,l,0,2,2,3,0,88,88,57,,,['l'],0,[0.4172820627463807],2018_Jul_09_1434,59.9601927933,go-nogo,001,49,
logos/4.jpg,properties4.xlsx,frogs/ab24.jpg,0,0,400,l,0,2,2,3,0,89,89,23,,,['l'],0,[0.2503915381112165],2018_Jul_09_1434,59.9601927933,go-nogo,001,49,
logos/4.jpg,properties4.xlsx,,,,,,0,2,2,3,,,,,,,,,,2018_Jul_09_1434,59.9601927933,go-nogo,001,49,
logos/2.jpg,properties2.xlsx,frogs/ab47.jpg,0,0,400,l,0,3,3,1,0,0,0,46,space,2.64633285376,['l'],0,[0.13396889654177357],2018_Jul_09_1434,59.9601927933,go-nogo,001,49,
logos/2.jpg,properties2.xlsx,frogs/ab40.jpg,0,0,400,l,0,3,3,1,0,1,1,39,,,['l'],0,[0.25040007145253185],2018_Jul_09_1434,59.9601927933,go-nogo,001,49,
logos/2.jpg,properties2.xlsx,frogs/ab58.jpg,0,0,400,l,0,3,3,1,0,2,2,57,,,['l'],0,[0.2836215042461845],2018_Jul_09_1434,59.9601927933,go-nogo,001,49,
logos/2.jpg,properties2.xlsx,frogs/ab11.jpg,0,0,400,l,0,3,3,1,0,3,3,10,,,['l'],0,[0.2670850279118895],2018_Jul_09_1434,59.9601927933,go-nogo,001,49,
logos/2.jpg,properties2.xlsx,frogs/ab1.jpg,0,0,400,l,0,3,3,1,0,4,4,0,,,['l'],0,[0.25042225813740515],2018_Jul_09_1434,59.9601927933,go-nogo,001,49,
logos/2.jpg,properties2.xlsx,logos/2.jpg,0,0,400,a,0,3,3,1,0,5,5,86,,,['a'],0,[0.2170352785360592],2018_Jul_09_1434,59.9601927933,go-nogo,001,49,
logos/2.jpg,properties2.xlsx,frogs/ab5.jpg,0,0,400,l,0,3,3,1,0,6,6,4,,,['l'],0,[1.3831117224781337],2018_Jul_09_1434,59.9601927933,go-nogo,001,49,
logos/2.jpg,properties2.xlsx,frogs/ab77.jpg,0,0,400,l,0,3,3,1,0,7,7,75,,,['l'],0,[0.4170784003508743],2018_Jul_09_1434,59.9601927933,go-nogo,001,49,
logos/2.jpg,properties2.xlsx,frogs/ab27.jpg,0,0,400,l,0,3,3,1,0,8,8,26,,,['l'],0,[0.2833461617883586],2018_Jul_09_1434,59.9601927933,go-nogo,001,49,
logos/2.jpg,properties2.xlsx,frogs/ab79.jpg,0,0,400,l,0,3,3,1,0,9,9,77,,,['l'],0,[0.2505536715834751],2018_Jul_09_1434,59.9601927933,go-nogo,001,49,
logos/2.jpg,properties2.xlsx,frogs/ab45.jpg,0,0,400,l,0,3,3,1,0,10,10,44,,,['l'],0,[0.35042106347100344],2018_Jul_09_1434,59.9601927933,go-nogo,001,49,
logos/2.jpg,properties2.xlsx,frogs/ab64.jpg,0,0,400,l,0,3,3,1,0,11,11,62,,,['l'],0,[0.1504371061510028],2018_Jul_09_1434,59.9601927933,go-nogo,001,49,
logos/2.jpg,properties2.xlsx,logos/2.jpg,0,0,400,a,0,3,3,1,0,12,12,82,,,['a'],0,[0.46690286953526083],2018_Jul_09_1434,59.9601927933,go-nogo,001,49,
logos/2.jpg,properties2.xlsx,frogs/ab22.jpg,0,0,400,l,0,3,3,1,0,13,13,21,,,['l'],0,[0.3336712536220148],2018_Jul_09_1434,59.9601927933,go-nogo,001,49,
logos/2.jpg,properties2.xlsx,logos/2.jpg,0,0,400,a,0,3,3,1,0,14,14,85,,,['a'],0,[1.0998810452329053],2018_Jul_09_1434,59.9601927933,go-nogo,001,49,
logos/2.jpg,properties2.xlsx,frogs/ab15.jpg,0,0,400,l,0,3,3,1,0,15,15,14,,,['l'],0,[0.25039722700603306],2018_Jul_09_1434,59.9601927933,go-nogo,001,49,
logos/2.jpg,properties2.xlsx,frogs/ab23.jpg,0,0,400,l,0,3,3,1,0,16,16,22,,,['l'],0,[0.28355039307461993],2018_Jul_09_1434,59.9601927933,go-nogo,001,49,
logos/2.jpg,properties2.xlsx,frogs/ab56.jpg,0,0,400,l,0,3,3,1,0,17,17,55,,,['l'],0,[0.7331015678028052],2018_Jul_09_1434,59.9601927933,go-nogo,001,49,
logos/2.jpg,properties2.xlsx,frogs/ab73.jpg,0,0,400,l,0,3,3,1,0,18,18,71,,,['l'],0,[0.7335305103897554],2018_Jul_09_1434,59.9601927933,go-nogo,001,49,
logos/2.jpg,properties2.xlsx,frogs/ab2.jpg,0,0,400,l,0,3,3,1,0,19,19,1,,,['l'],0,[0.4168889601896808],2018_Jul_09_1434,59.9601927933,go-nogo,001,49,
logos/2.jpg,properties2.xlsx,frogs/ab71.jpg,0,0,400,l,0,3,3,1,0,20,20,69,,,['l'],0,[0.2503886936647177],2018_Jul_09_1434,59.9601927933,go-nogo,001,49,
logos/2.jpg,properties2.xlsx,frogs/ab75.jpg,0,0,400,l,0,3,3,1,0,21,21,73,,,['l'],0,[0.2836345887026255],2018_Jul_09_1434,59.9601927933,go-nogo,001,49,
logos/2.jpg,properties2.xlsx,frogs/ab38.jpg,0,0,400,l,0,3,3,1,0,22,22,37,,,['l'],0,[0.3000106382314698],2018_Jul_09_1434,59.9601927933,go-nogo,001,49,
logos/2.jpg,properties2.xlsx,frogs/ab54.jpg,0,0,400,l,0,3,3,1,0,23,23,53,,,['l'],0,[0.31694306156896346],2018_Jul_09_1434,59.9601927933,go-nogo,001,49,
logos/2.jpg,properties2.xlsx,frogs/ab81.jpg,0,0,400,l,0,3,3,1,0,24,24,79,,,['l'],0,[0.2670713745683315],2018_Jul_09_1434,59.9601927933,go-nogo,001,49,
logos/2.jpg,properties2.xlsx,frogs/ab4.jpg,0,0,400,l,0,3,3,1,0,25,25,3,,,['l'],0,[0.33370652476332907],2018_Jul_09_1434,59.9601927933,go-nogo,001,49,
logos/2.jpg,properties2.xlsx,frogs/ab53.jpg,0,0,400,l,0,3,3,1,0,26,26,52,,,['l'],0,[0.3169567149143404],2018_Jul_09_1434,59.9601927933,go-nogo,001,49,
logos/2.jpg,properties2.xlsx,frogs/ab80.jpg,0,0,400,l,0,3,3,1,0,27,27,78,,,['l'],0,[0.250189013493582],2018_Jul_09_1434,59.9601927933,go-nogo,001,49,
logos/2.jpg,properties2.xlsx,frogs/ab12.jpg,0,0,400,l,0,3,3,1,0,28,28,11,,,['l'],0,[0.23379931061936077],2018_Jul_09_1434,59.9601927933,go-nogo,001,49,
logos/2.jpg,properties2.xlsx,frogs/ab14.jpg,0,0,400,l,0,3,3,1,0,29,29,13,,,['l'],0,[0.31706195944752835],2018_Jul_09_1434,59.9601927933,go-nogo,001,49,
logos/2.jpg,properties2.xlsx,logos/2.jpg,0,0,400,a,0,3,3,1,0,30,30,87,,,['a'],0,[0.250398364783905],2018_Jul_09_1434,59.9601927933,go-nogo,001,49,
logos/2.jpg,properties2.xlsx,frogs/ab16.jpg,0,0,400,l,0,3,3,1,0,31,31,15,,,['l'],0,[0.11713261550903553],2018_Jul_09_1434,59.9601927933,go-nogo,001,49,
logos/2.jpg,properties2.xlsx,frogs/ab9.jpg,0,0,400,l,0,3,3,1,0,32,32,8,,,['l'],0,[0.30029792736604577],2018_Jul_09_1434,59.9601927933,go-nogo,001,49,
logos/2.jpg,properties2.xlsx,frogs/ab17.jpg,0,0,400,l,0,3,3,1,0,33,33,16,,,['l'],0,[0.16705379588529468],2018_Jul_09_1434,59.9601927933,go-nogo,001,49,
logos/2.jpg,properties2.xlsx,frogs/ab41.jpg,0,0,400,l,0,3,3,1,0,34,34,40,,,['l'],0,[0.3003326296166051],2018_Jul_09_1434,59.9601927933,go-nogo,001,49,
logos/2.jpg,properties2.xlsx,frogs/ab28.jpg,0,0,400,l,0,3,3,1,0,35,35,27,,,['l'],0,[0.48347689256661397],2018_Jul_09_1434,59.9601927933,go-nogo,001,49,
logos/2.jpg,properties2.xlsx,frogs/ab63.jpg,0,0,400,l,0,3,3,1,0,36,36,61,,,['l'],0,[0.43353978328741505],2018_Jul_09_1434,59.9601927933,go-nogo,001,49,
logos/2.jpg,properties2.xlsx,frogs/ab50.jpg,0,0,400,l,0,3,3,1,0,37,37,49,,,['l'],0,[0.28369489097531186],2018_Jul_09_1434,59.9601927933,go-nogo,001,49,
logos/2.jpg,properties2.xlsx,frogs/ab26.jpg,0,0,400,l,0,3,3,1,0,38,38,25,,,['l'],0,[0.2669137922111986],2018_Jul_09_1434,59.9601927933,go-nogo,001,49,
logos/2.jpg,properties2.xlsx,frogs/ab62.jpg,0,0,400,l,0,3,3,1,0,39,39,60,,,['l'],0,[0.30057213204418076],2018_Jul_09_1434,59.9601927933,go-nogo,001,49,
logos/2.jpg,properties2.xlsx,frogs/ab51.jpg,0,0,400,l,0,3,3,1,0,40,40,50,,,['l'],0,[0.2833905351599242],2018_Jul_09_1434,59.9601927933,go-nogo,001,49,
logos/2.jpg,properties2.xlsx,frogs/ab24.jpg,0,0,400,l,0,3,3,1,0,41,41,23,,,['l'],0,[0.25032440916584164],2018_Jul_09_1434,59.9601927933,go-nogo,001,49,
logos/2.jpg,properties2.xlsx,frogs/ab65.jpg,0,0,400,l,0,3,3,1,0,42,42,63,,,['l'],0,[0.3003252340549807],2018_Jul_09_1434,59.9601927933,go-nogo,001,49,
logos/2.jpg,properties2.xlsx,frogs/ab39.jpg,0,0,400,l,0,3,3,1,0,43,43,38,,,['l'],0,[0.28380468662362546],2018_Jul_09_1434,59.9601927933,go-nogo,001,49,
logos/2.jpg,properties2.xlsx,logos/2.jpg,0,0,400,a,0,3,3,1,0,44,44,81,,,['a'],0,[0.13379822973001865],2018_Jul_09_1434,59.9601927933,go-nogo,001,49,
logos/2.jpg,properties2.xlsx,frogs/ab78.jpg,0,0,400,l,0,3,3,1,0,45,45,76,,,['l'],0,[0.05040758079121588],2018_Jul_09_1434,59.9601927933,go-nogo,001,49,
logos/2.jpg,properties2.xlsx,frogs/ab74.jpg,0,0,400,l,0,3,3,1,0,46,46,72,,,['l'],0,[0.2500342755847669],2018_Jul_09_1434,59.9601927933,go-nogo,001,49,
logos/2.jpg,properties2.xlsx,frogs/ab72.jpg,0,0,400,l,0,3,3,1,0,47,47,70,,,['l'],0,[0.30038041632542445],2018_Jul_09_1434,59.9601927933,go-nogo,001,49,
logos/2.jpg,properties2.xlsx,frogs/ab32.jpg,0,0,400,l,0,3,3,1,0,48,48,31,,,['l'],0,[0.35015311657480197],2018_Jul_09_1434,59.9601927933,go-nogo,001,49,
logos/2.jpg,properties2.xlsx,frogs/ab7.jpg,0,0,400,l,0,3,3,1,0,49,49,6,,,['l'],0,[0.7834522596567695],2018_Jul_09_1434,59.9601927933,go-nogo,001,49,
logos/2.jpg,properties2.xlsx,frogs/ab52.jpg,0,0,400,l,0,3,3,1,0,50,50,51,,,['l'],0,[0.2833592462447996],2018_Jul_09_1434,59.9601927933,go-nogo,001,49,
logos/2.jpg,properties2.xlsx,frogs/ab76.jpg,0,0,400,l,0,3,3,1,0,51,51,74,,,['l'],0,[0.21710468304081587],2018_Jul_09_1434,59.9601927933,go-nogo,001,49,
logos/2.jpg,properties2.xlsx,frogs/ab18.jpg,0,0,400,l,0,3,3,1,0,52,52,17,,,['l'],0,[0.2005050599855167],2018_Jul_09_1434,59.9601927933,go-nogo,001,49,
logos/2.jpg,properties2.xlsx,frogs/ab21.jpg,0,0,400,l,0,3,3,1,0,53,53,20,,,['l'],0,[0.25043136036947544],2018_Jul_09_1434,59.9601927933,go-nogo,001,49,
logos/2.jpg,properties2.xlsx,frogs/ab68.jpg,0,0,400,l,0,3,3,1,0,54,54,66,,,['l'],0,[0.20044077548664063],2018_Jul_09_1434,59.9601927933,go-nogo,001,49,
logos/2.jpg,properties2.xlsx,frogs/ab44.jpg,0,0,400,l,0,3,3,1,0,55,55,43,,,['l'],0,[0.2504518403857219],2018_Jul_09_1434,59.9601927933,go-nogo,001,49,
logos/2.jpg,properties2.xlsx,frogs/ab67.jpg,0,0,400,l,0,3,3,1,0,56,56,65,,,['l'],0,[0.26674084984006186],2018_Jul_09_1434,59.9601927933,go-nogo,001,49,
logos/2.jpg,properties2.xlsx,frogs/ab66.jpg,0,0,400,l,0,3,3,1,0,57,57,64,,,['l'],0,[0.683233294135789],2018_Jul_09_1434,59.9601927933,go-nogo,001,49,
logos/2.jpg,properties2.xlsx,logos/2.jpg,0,0,400,a,0,3,3,1,0,58,58,88,,,['a'],0,[0.23381353285549267],2018_Jul_09_1434,59.9601927933,go-nogo,001,49,
logos/2.jpg,properties2.xlsx,frogs/ab29.jpg,0,0,400,l,0,3,3,1,0,59,59,28,,,['l'],0,[0.18369381008596974],2018_Jul_09_1434,59.9601927933,go-nogo,001,49,
logos/2.jpg,properties2.xlsx,frogs/ab55.jpg,0,0,400,l,0,3,3,1,0,60,60,54,,,['l'],0,[0.23361043934710324],2018_Jul_09_1434,59.9601927933,go-nogo,001,49,
logos/2.jpg,properties2.xlsx,frogs/ab42.jpg,0,0,400,l,0,3,3,1,0,61,61,41,,,['l'],0,[0.2670611345583893],2018_Jul_09_1434,59.9601927933,go-nogo,001,49,
logos/2.jpg,properties2.xlsx,frogs/ab31.jpg,0,0,400,l,0,3,3,1,0,62,62,30,,,['l'],0,[0.3169800393789046],2018_Jul_09_1434,59.9601927933,go-nogo,001,49,
logos/2.jpg,properties2.xlsx,frogs/ab46.jpg,0,0,400,l,0,3,3,1,0,63,63,45,,,['l'],0,[0.40033883051182784],2018_Jul_09_1434,59.9601927933,go-nogo,001,49,
logos/2.jpg,properties2.xlsx,frogs/ab70.jpg,0,0,400,l,0,3,3,1,0,64,64,68,,,['l'],0,[0.23379305283742724],2018_Jul_09_1434,59.9601927933,go-nogo,001,49,
logos/2.jpg,properties2.xlsx,frogs/ab43.jpg,0,0,400,l,0,3,3,1,0,65,65,42,,,['l'],0,[0.21717806976994325],2018_Jul_09_1434,59.9601927933,go-nogo,001,49,
logos/2.jpg,properties2.xlsx,frogs/ab57.jpg,0,0,400,l,0,3,3,1,0,66,66,56,,,['l'],0,[0.2671294012834551],2018_Jul_09_1434,59.9601927933,go-nogo,001,49,
logos/2.jpg,properties2.xlsx,frogs/ab37.jpg,0,0,400,l,0,3,3,1,0,67,67,36,,,['l'],0,[0.41712049816487706],2018_Jul_09_1434,59.9601927933,go-nogo,001,49,
logos/2.jpg,properties2.xlsx,frogs/ab36.jpg,0,0,400,l,0,3,3,1,0,68,68,35,,,['l'],0,[0.23369634164373565],2018_Jul_09_1434,59.9601927933,go-nogo,001,49,
logos/2.jpg,properties2.xlsx,frogs/ab49.jpg,0,0,400,l,0,3,3,1,0,69,69,48,,,['l'],0,[0.3004173941335466],2018_Jul_09_1434,59.9601927933,go-nogo,001,49,
logos/2.jpg,properties2.xlsx,frogs/ab6.jpg,0,0,400,l,0,3,3,1,0,70,70,5,,,['l'],0,[0.23380898173854803],2018_Jul_09_1434,59.9601927933,go-nogo,001,49,
logos/2.jpg,properties2.xlsx,frogs/ab10.jpg,0,0,400,l,0,3,3,1,0,71,71,9,,,['l'],0,[0.4168155734605534],2018_Jul_09_1434,59.9601927933,go-nogo,001,49,
logos/2.jpg,properties2.xlsx,frogs/ab25.jpg,0,0,400,l,0,3,3,1,0,72,72,24,,,['l'],0,[0.26706341011595214],2018_Jul_09_1434,59.9601927933,go-nogo,001,49,
logos/2.jpg,properties2.xlsx,frogs/ab19.jpg,0,0,400,l,0,3,3,1,0,73,73,18,,,['l'],0,[0.3002791540166072],2018_Jul_09_1434,59.9601927933,go-nogo,001,49,
logos/2.jpg,properties2.xlsx,logos/2.jpg,0,0,400,a,0,3,3,1,0,74,74,80,,,['a'],0,[0.18385139244128368],2018_Jul_09_1434,59.9601927933,go-nogo,001,49,
logos/2.jpg,properties2.xlsx,frogs/ab35.jpg,0,0,400,l,0,3,3,1,0,75,75,34,,,['l'],0,[0.10049658353636914],2018_Jul_09_1434,59.9601927933,go-nogo,001,49,
logos/2.jpg,properties2.xlsx,frogs/ab69.jpg,0,0,400,l,0,3,3,1,0,76,76,67,,,['l'],0,[1.0334859663507814],2018_Jul_09_1434,59.9601927933,go-nogo,001,49,
logos/2.jpg,properties2.xlsx,frogs/ab20.jpg,0,0,400,l,0,3,3,1,0,77,77,19,,,['l'],0,[0.2504199825816613],2018_Jul_09_1434,59.9601927933,go-nogo,001,49,
logos/2.jpg,properties2.xlsx,frogs/ab48.jpg,0,0,400,l,0,3,3,1,0,78,78,47,,,['l'],0,[0.30041966969110945],2018_Jul_09_1434,59.9601927933,go-nogo,001,49,
logos/2.jpg,properties2.xlsx,frogs/ab8.jpg,0,0,400,l,0,3,3,1,0,79,79,7,,,['l'],0,[0.267012778960634],2018_Jul_09_1434,59.9601927933,go-nogo,001,49,
logos/2.jpg,properties2.xlsx,frogs/ab3.jpg,0,0,400,l,0,3,3,1,0,80,80,2,,,['l'],0,[0.5002568535528553],2018_Jul_09_1434,59.9601927933,go-nogo,001,49,
logos/2.jpg,properties2.xlsx,logos/2.jpg,0,0,400,a,0,3,3,1,0,81,81,89,,,['a'],0,[0.21667005155904917],2018_Jul_09_1434,59.9601927933,go-nogo,001,49,
logos/2.jpg,properties2.xlsx,frogs/ab61.jpg,0,0,400,l,0,3,3,1,0,82,82,59,,,['l'],0,[0.03374651768535841],2018_Jul_09_1434,59.9601927933,go-nogo,001,49,
logos/2.jpg,properties2.xlsx,frogs/ab30.jpg,0,0,400,l,0,3,3,1,0,83,83,29,,,['l'],0,[0.2669530455768836],2018_Jul_09_1434,59.9601927933,go-nogo,001,49,
logos/2.jpg,properties2.xlsx,frogs/ab60.jpg,0,0,400,l,0,3,3,1,0,84,84,58,,,['l'],0,[0.3503527967441187],2018_Jul_09_1434,59.9601927933,go-nogo,001,49,
logos/2.jpg,properties2.xlsx,frogs/ab33.jpg,0,0,400,l,0,3,3,1,0,85,85,32,,,['l'],0,[0.3169476126840891],2018_Jul_09_1434,59.9601927933,go-nogo,001,49,
logos/2.jpg,properties2.xlsx,logos/2.jpg,0,0,400,a,0,3,3,1,0,86,86,83,,,['a'],0,[0.06720460846008791],2018_Jul_09_1434,59.9601927933,go-nogo,001,49,
logos/2.jpg,properties2.xlsx,frogs/ab34.jpg,0,0,400,l,0,3,3,1,0,87,87,33,,,['l'],0,[0.11719121111491404],2018_Jul_09_1434,59.9601927933,go-nogo,001,49,
logos/2.jpg,properties2.xlsx,logos/2.jpg,0,0,400,a,0,3,3,1,0,88,88,84,,,['a'],0,[0.2336878083024203],2018_Jul_09_1434,59.9601927933,go-nogo,001,49,
logos/2.jpg,properties2.xlsx,frogs/ab13.jpg,0,0,400,l,0,3,3,1,0,89,89,12,,,['l'],0,[0.7167949227768986],2018_Jul_09_1434,59.9601927933,go-nogo,001,49,
logos/2.jpg,properties2.xlsx,,,,,,0,3,3,1,,,,,,,,,,2018_Jul_09_1434,59.9601927933,go-nogo,001,49,
