pix,source,image1,x,y,size,answer,trials_2.thisRepN,trials_2.thisTrialN,trials_2.thisN,trials_2.thisIndex,trials.thisRepN,trials.thisTrialN,trials.thisN,trials.thisIndex,key_resp_3.keys,key_resp_3.rt,key_resp_2.keys,key_resp_2.corr,key_resp_2.rt,date,frameRate,expName,session,participant,
logos/2.jpg,properties2.xlsx,frogs/ab77.jpg,0,0,400,l,0,0,0,1,0,0,0,75,space,24.4318672485,['l'],0,[0.4170857959134082],2018_Jul_09_1107,60.0940480668,go-nogo,001,4,
logos/2.jpg,properties2.xlsx,frogs/ab52.jpg,0,0,400,l,0,0,0,1,0,1,1,51,,,['l'],0,[0.08385884489280215],2018_Jul_09_1107,60.0940480668,go-nogo,001,4,
logos/2.jpg,properties2.xlsx,frogs/ab75.jpg,0,0,400,l,0,0,0,1,0,2,2,73,,,['l'],0,[2.016067711488631],2018_Jul_09_1107,60.0940480668,go-nogo,001,4,
logos/2.jpg,properties2.xlsx,frogs/ab16.jpg,0,0,400,l,0,0,0,1,0,3,3,15,,,['l'],0,[0.11700518428870055],2018_Jul_09_1107,60.0940480668,go-nogo,001,4,
logos/2.jpg,properties2.xlsx,frogs/ab24.jpg,0,0,400,l,0,0,0,1,0,4,4,23,,,['l'],0,[0.03398943344882355],2018_Jul_09_1107,60.0940480668,go-nogo,001,4,
logos/2.jpg,properties2.xlsx,frogs/ab5.jpg,0,0,400,l,0,0,0,1,0,5,5,4,,,['a'],0,[0.2835771308746189],2018_Jul_09_1107,60.0940480668,go-nogo,001,4,
logos/2.jpg,properties2.xlsx,frogs/ab3.jpg,0,0,400,l,0,0,0,1,0,6,6,2,,,['l'],0,[0.26693427222835453],2018_Jul_09_1107,60.0940480668,go-nogo,001,4,
logos/2.jpg,properties2.xlsx,frogs/ab48.jpg,0,0,400,l,0,0,0,1,0,7,7,47,,,['l'],0,[0.8333677511404858],2018_Jul_09_1107,60.0940480668,go-nogo,001,4,
logos/2.jpg,properties2.xlsx,logos/2.jpg,0,0,400,a,0,0,0,1,0,8,8,89,,,['a'],0,[0.01718501022014607],2018_Jul_09_1107,60.0940480668,go-nogo,001,4,
logos/2.jpg,properties2.xlsx,frogs/ab45.jpg,0,0,400,l,0,0,0,1,0,9,9,44,,,['l'],0,[0.03384664221584899],2018_Jul_09_1107,60.0940480668,go-nogo,001,4,
logos/2.jpg,properties2.xlsx,frogs/ab22.jpg,0,0,400,l,0,0,0,1,0,10,10,21,,,['l'],0,[0.10033388117381037],2018_Jul_09_1107,60.0940480668,go-nogo,001,4,
logos/2.jpg,properties2.xlsx,frogs/ab56.jpg,0,0,400,l,0,0,0,1,0,11,11,55,,,['l'],0,[0.10052616578195739],2018_Jul_09_1107,60.0940480668,go-nogo,001,4,
logos/2.jpg,properties2.xlsx,frogs/ab28.jpg,0,0,400,l,0,0,0,1,0,12,12,27,,,['l'],0,[0.2999395270594505],2018_Jul_09_1107,60.0940480668,go-nogo,001,4,
logos/2.jpg,properties2.xlsx,frogs/ab55.jpg,0,0,400,l,0,0,0,1,0,13,13,54,,,['l'],0,[1.1166661262213893],2018_Jul_09_1107,60.0940480668,go-nogo,001,4,
logos/2.jpg,properties2.xlsx,frogs/ab25.jpg,0,0,400,l,0,0,0,1,0,14,14,24,,,['l'],0,[1.582881777392231],2018_Jul_09_1107,60.0940480668,go-nogo,001,4,
logos/2.jpg,properties2.xlsx,frogs/ab2.jpg,0,0,400,l,0,0,0,1,0,15,15,1,,,['l'],0,[0.13401725213907412],2018_Jul_09_1107,60.0940480668,go-nogo,001,4,
logos/2.jpg,properties2.xlsx,frogs/ab30.jpg,0,0,400,l,0,0,0,1,0,16,16,29,,,['l'],0,[0.1337811630487522],2018_Jul_09_1107,60.0940480668,go-nogo,001,4,
logos/2.jpg,properties2.xlsx,frogs/ab15.jpg,0,0,400,l,0,0,0,1,0,17,17,14,,,['l'],0,[0.050621483196664485],2018_Jul_09_1107,60.0940480668,go-nogo,001,4,
logos/2.jpg,properties2.xlsx,frogs/ab21.jpg,0,0,400,l,0,0,0,1,0,18,18,20,,,['l'],0,[1.1665389510017121],2018_Jul_09_1107,60.0940480668,go-nogo,001,4,
logos/2.jpg,properties2.xlsx,frogs/ab4.jpg,0,0,400,l,0,0,0,1,0,19,19,3,,,['l'],0,[0.18360677001146541],2018_Jul_09_1107,60.0940480668,go-nogo,001,4,
logos/2.jpg,properties2.xlsx,frogs/ab34.jpg,0,0,400,l,0,0,0,1,0,20,20,33,,,['l'],0,[0.06726035961764865],2018_Jul_09_1107,60.0940480668,go-nogo,001,4,
logos/2.jpg,properties2.xlsx,frogs/ab36.jpg,0,0,400,l,0,0,0,1,0,21,21,35,,,['l'],0,[0.7333990969450497],2018_Jul_09_1107,60.0940480668,go-nogo,001,4,
logos/2.jpg,properties2.xlsx,frogs/ab1.jpg,0,0,400,l,0,0,0,1,0,22,22,0,,,['l'],0,[0.13379310972595704],2018_Jul_09_1107,60.0940480668,go-nogo,001,4,
logos/2.jpg,properties2.xlsx,frogs/ab40.jpg,0,0,400,l,0,0,0,1,0,23,23,39,,,['a'],0,[0.05055890536550578],2018_Jul_09_1107,60.0940480668,go-nogo,001,4,
logos/2.jpg,properties2.xlsx,logos/2.jpg,0,0,400,a,0,0,0,1,0,24,24,88,,,['a'],0,[0.20046353106226888],2018_Jul_09_1107,60.0940480668,go-nogo,001,4,
logos/2.jpg,properties2.xlsx,frogs/ab66.jpg,0,0,400,l,0,0,0,1,0,25,25,64,,,['l'],0,[0.0005609249233202718],2018_Jul_09_1107,60.0940480668,go-nogo,001,4,
logos/2.jpg,properties2.xlsx,frogs/ab64.jpg,0,0,400,l,0,0,0,1,0,26,26,62,,,['l'],0,[1.24986588433012],2018_Jul_09_1107,60.0940480668,go-nogo,001,4,
logos/2.jpg,properties2.xlsx,frogs/ab50.jpg,0,0,400,l,0,0,0,1,0,27,27,49,,,['l'],0,[0.0005660449273818813],2018_Jul_09_1107,60.0940480668,go-nogo,001,4,
logos/2.jpg,properties2.xlsx,frogs/ab20.jpg,0,0,400,l,0,0,0,1,0,28,28,19,,,['l'],0,[1.1001245298839422],2018_Jul_09_1107,60.0940480668,go-nogo,001,4,
logos/2.jpg,properties2.xlsx,frogs/ab42.jpg,0,0,400,l,0,0,0,1,0,29,29,41,,,['l'],0,[0.7667616143035048],2018_Jul_09_1107,60.0940480668,go-nogo,001,4,
logos/2.jpg,properties2.xlsx,frogs/ab8.jpg,0,0,400,l,0,0,0,1,0,30,30,7,,,['l'],0,[0.5502536962167142],2018_Jul_09_1107,60.0940480668,go-nogo,001,4,
logos/2.jpg,properties2.xlsx,frogs/ab47.jpg,0,0,400,l,0,0,0,1,0,31,31,46,,,['l'],0,[0.35020147217164777],2018_Jul_09_1107,60.0940480668,go-nogo,001,4,
logos/2.jpg,properties2.xlsx,frogs/ab74.jpg,0,0,400,l,0,0,0,1,0,32,32,72,,,['a'],0,[0.20038274877106232],2018_Jul_09_1107,60.0940480668,go-nogo,001,4,
logos/2.jpg,properties2.xlsx,frogs/ab53.jpg,0,0,400,l,0,0,0,1,0,33,33,52,,,['l'],0,[1.3997147588675034],2018_Jul_09_1107,60.0940480668,go-nogo,001,4,
logos/2.jpg,properties2.xlsx,frogs/ab65.jpg,0,0,400,l,0,0,0,1,0,34,34,63,,,['l'],0,[0.7330571944307849],2018_Jul_09_1107,60.0940480668,go-nogo,001,4,
logos/2.jpg,properties2.xlsx,frogs/ab31.jpg,0,0,400,l,0,0,0,1,0,35,35,30,,,['l'],0,[0.45025033976935447],2018_Jul_09_1107,60.0940480668,go-nogo,001,4,
logos/2.jpg,properties2.xlsx,frogs/ab80.jpg,0,0,400,l,0,0,0,1,0,36,36,78,,,['a'],0,[0.4336484411578567],2018_Jul_09_1107,60.0940480668,go-nogo,001,4,
logos/2.jpg,properties2.xlsx,frogs/ab6.jpg,0,0,400,l,0,0,0,1,0,37,37,5,,,['a'],0,[0.13387446090609956],2018_Jul_09_1107,60.0940480668,go-nogo,001,4,
logos/2.jpg,properties2.xlsx,frogs/ab26.jpg,0,0,400,l,0,0,0,1,0,38,38,25,,,['a'],0,[0.16712945817289437],2018_Jul_09_1107,60.0940480668,go-nogo,001,4,
logos/2.jpg,properties2.xlsx,frogs/ab38.jpg,0,0,400,l,0,0,0,1,0,39,39,37,,,['l'],0,[0.03394733563527552],2018_Jul_09_1107,60.0940480668,go-nogo,001,4,
logos/2.jpg,properties2.xlsx,frogs/ab70.jpg,0,0,400,l,0,0,0,1,0,40,40,68,,,['l'],0,[0.05041099412846961],2018_Jul_09_1107,60.0940480668,go-nogo,001,4,
logos/2.jpg,properties2.xlsx,frogs/ab14.jpg,0,0,400,l,0,0,0,1,0,41,41,13,,,['l'],0,[0.08383495153930198],2018_Jul_09_1107,60.0940480668,go-nogo,001,4,
logos/2.jpg,properties2.xlsx,frogs/ab76.jpg,0,0,400,l,0,0,0,1,0,42,42,74,,,['l'],0,[0.16689450686089913],2018_Jul_09_1107,60.0940480668,go-nogo,001,4,
logos/2.jpg,properties2.xlsx,logos/2.jpg,0,0,400,a,0,0,0,1,0,43,43,86,,,['l'],0,[0.6841162104456089],2018_Jul_09_1107,60.0940480668,go-nogo,001,4,
logos/2.jpg,properties2.xlsx,frogs/ab49.jpg,0,0,400,l,0,0,0,1,0,44,44,48,,,['l'],0,[0.8337676803707836],2018_Jul_09_1107,60.0940480668,go-nogo,001,4,
logos/2.jpg,properties2.xlsx,logos/2.jpg,0,0,400,a,0,0,0,1,0,45,45,82,,,['a'],0,[0.10040840568171916],2018_Jul_09_1107,60.0940480668,go-nogo,001,4,
logos/2.jpg,properties2.xlsx,frogs/ab69.jpg,0,0,400,l,0,0,0,1,0,46,46,67,,,['l'],0,[0.4502224641896646],2018_Jul_09_1107,60.0940480668,go-nogo,001,4,
logos/2.jpg,properties2.xlsx,frogs/ab11.jpg,0,0,400,l,0,0,0,1,0,47,47,10,,,['l'],0,[0.0005666138167725876],2018_Jul_09_1107,60.0940480668,go-nogo,001,4,
logos/2.jpg,properties2.xlsx,frogs/ab13.jpg,0,0,400,l,0,0,0,1,0,48,48,12,,,['l'],0,[0.45006545072237714],2018_Jul_09_1107,60.0940480668,go-nogo,001,4,
logos/2.jpg,properties2.xlsx,frogs/ab51.jpg,0,0,400,l,0,0,0,1,0,49,49,50,,,['l'],0,[0.3003201140509191],2018_Jul_09_1107,60.0940480668,go-nogo,001,4,
logos/2.jpg,properties2.xlsx,frogs/ab67.jpg,0,0,400,l,0,0,0,1,0,50,50,65,,,['a'],0,[0.3666520462097651],2018_Jul_09_1107,60.0940480668,go-nogo,001,4,
logos/2.jpg,properties2.xlsx,frogs/ab81.jpg,0,0,400,l,0,0,0,1,0,51,51,79,,,['l'],0,[0.7167892338825368],2018_Jul_09_1107,60.0940480668,go-nogo,001,4,
logos/2.jpg,properties2.xlsx,frogs/ab32.jpg,0,0,400,l,0,0,0,1,0,52,52,31,,,['l'],0,[0.03361624201897939],2018_Jul_09_1107,60.0940480668,go-nogo,001,4,
logos/2.jpg,properties2.xlsx,logos/2.jpg,0,0,400,a,0,0,0,1,0,53,53,83,,,['a'],0,[0.03419537140234752],2018_Jul_09_1107,60.0940480668,go-nogo,001,4,
logos/2.jpg,properties2.xlsx,frogs/ab57.jpg,0,0,400,l,0,0,0,1,0,54,54,56,,,['l'],0,[0.16699178694398142],2018_Jul_09_1107,60.0940480668,go-nogo,001,4,
logos/2.jpg,properties2.xlsx,frogs/ab62.jpg,0,0,400,l,0,0,0,1,0,55,55,60,,,['a'],0,[0.3337759292667215],2018_Jul_09_1107,60.0940480668,go-nogo,001,4,
logos/2.jpg,properties2.xlsx,frogs/ab41.jpg,0,0,400,l,0,0,0,1,0,56,56,40,,,['l'],0,[0.017099676813813858],2018_Jul_09_1107,60.0940480668,go-nogo,001,4,
logos/2.jpg,properties2.xlsx,logos/2.jpg,0,0,400,a,0,0,0,1,0,57,57,85,,,['a'],0,[0.2675202282839564],2018_Jul_09_1107,60.0940480668,go-nogo,001,4,
logos/2.jpg,properties2.xlsx,frogs/ab19.jpg,0,0,400,l,0,0,0,1,0,58,58,18,,,['a'],0,[0.1171070154869085],2018_Jul_09_1107,60.0940480668,go-nogo,001,4,
logos/2.jpg,properties2.xlsx,frogs/ab17.jpg,0,0,400,l,0,0,0,1,0,59,59,16,,,['l'],0,[0.3336507736044041],2018_Jul_09_1107,60.0940480668,go-nogo,001,4,
logos/2.jpg,properties2.xlsx,frogs/ab10.jpg,0,0,400,l,0,0,0,1,0,60,60,9,,,['l'],0,[1.016481294064306],2018_Jul_09_1107,60.0940480668,go-nogo,001,4,
logos/2.jpg,properties2.xlsx,frogs/ab12.jpg,0,0,400,l,0,0,0,1,0,61,61,11,,,['a'],0,[0.08389809825939665],2018_Jul_09_1107,60.0940480668,go-nogo,001,4,
logos/2.jpg,properties2.xlsx,frogs/ab58.jpg,0,0,400,l,0,0,0,1,0,62,62,57,,,['l'],0,[0.4833932658289086],2018_Jul_09_1107,60.0940480668,go-nogo,001,4,
logos/2.jpg,properties2.xlsx,frogs/ab71.jpg,0,0,400,l,0,0,0,1,0,63,63,69,,,['l'],0,[0.966669340446515],2018_Jul_09_1107,60.0940480668,go-nogo,001,4,
logos/2.jpg,properties2.xlsx,frogs/ab37.jpg,0,0,400,l,0,0,0,1,0,64,64,36,,,['l'],0,[0.7001139485414569],2018_Jul_09_1107,60.0940480668,go-nogo,001,4,
logos/2.jpg,properties2.xlsx,frogs/ab9.jpg,0,0,400,l,0,0,0,1,0,65,65,8,,,['l'],0,[0.11714740663273915],2018_Jul_09_1107,60.0940480668,go-nogo,001,4,
logos/2.jpg,properties2.xlsx,frogs/ab78.jpg,0,0,400,l,0,0,0,1,0,66,66,76,,,['a'],0,[0.05041099412846961],2018_Jul_09_1107,60.0940480668,go-nogo,001,4,
logos/2.jpg,properties2.xlsx,frogs/ab35.jpg,0,0,400,l,0,0,0,1,0,67,67,34,,,['l'],0,[0.033893291144522664],2018_Jul_09_1107,60.0940480668,go-nogo,001,4,
logos/2.jpg,properties2.xlsx,frogs/ab68.jpg,0,0,400,l,0,0,0,1,0,68,68,66,,,['l'],0,[0.017027427863467892],2018_Jul_09_1107,60.0940480668,go-nogo,001,4,
logos/2.jpg,properties2.xlsx,logos/2.jpg,0,0,400,a,0,0,0,1,0,69,69,87,,,['a'],0,[0.03382900664519184],2018_Jul_09_1107,60.0940480668,go-nogo,001,4,
logos/2.jpg,properties2.xlsx,frogs/ab44.jpg,0,0,400,l,0,0,0,1,0,70,70,43,,,['l'],0,[0.0005734404894610634],2018_Jul_09_1107,60.0940480668,go-nogo,001,4,
logos/2.jpg,properties2.xlsx,frogs/ab60.jpg,0,0,400,l,0,0,0,1,0,71,71,58,,,['l'],0,[0.18370461898348367],2018_Jul_09_1107,60.0940480668,go-nogo,001,4,
logos/2.jpg,properties2.xlsx,frogs/ab7.jpg,0,0,400,l,0,0,0,1,0,72,72,6,,,['l'],0,[0.033642410930497135],2018_Jul_09_1107,60.0940480668,go-nogo,001,4,
logos/2.jpg,properties2.xlsx,frogs/ab29.jpg,0,0,400,l,0,0,0,1,0,73,73,28,,,['l'],0,[0.01717704576867618],2018_Jul_09_1107,60.0940480668,go-nogo,001,4,
logos/2.jpg,properties2.xlsx,logos/2.jpg,0,0,400,a,0,0,0,1,0,74,74,81,,,['l'],0,[1.666040888354928],2018_Jul_09_1107,60.0940480668,go-nogo,001,4,
logos/2.jpg,properties2.xlsx,frogs/ab27.jpg,0,0,400,l,0,0,0,1,0,75,75,26,,,['l'],0,[0.01723279692714641],2018_Jul_09_1107,60.0940480668,go-nogo,001,4,
logos/2.jpg,properties2.xlsx,frogs/ab63.jpg,0,0,400,l,0,0,0,1,0,76,76,61,,,['l'],0,[0.10047496573861281],2018_Jul_09_1107,60.0940480668,go-nogo,001,4,
logos/2.jpg,properties2.xlsx,frogs/ab33.jpg,0,0,400,l,0,0,0,1,0,77,77,32,,,['l'],0,[0.6001225387713021],2018_Jul_09_1107,60.0940480668,go-nogo,001,4,
logos/2.jpg,properties2.xlsx,logos/2.jpg,0,0,400,a,0,0,0,1,0,78,78,80,,,['l'],0,[0.03386826001178633],2018_Jul_09_1107,60.0940480668,go-nogo,001,4,
logos/2.jpg,properties2.xlsx,frogs/ab61.jpg,0,0,400,l,0,0,0,1,0,79,79,59,,,['l'],0,[3.1151853071805817],2018_Jul_09_1107,60.0940480668,go-nogo,001,4,
logos/2.jpg,properties2.xlsx,logos/2.jpg,0,0,400,a,0,0,0,1,0,80,80,84,,,['a'],0,[0.06728140852465003],2018_Jul_09_1107,60.0940480668,go-nogo,001,4,
logos/2.jpg,properties2.xlsx,frogs/ab79.jpg,0,0,400,l,0,0,0,1,0,81,81,77,,,['l'],0,[0.9665754737002317],2018_Jul_09_1107,60.0940480668,go-nogo,001,4,
logos/2.jpg,properties2.xlsx,frogs/ab23.jpg,0,0,400,l,0,0,0,1,0,82,82,22,,,['l'],0,[0.5835854935485258],2018_Jul_09_1107,60.0940480668,go-nogo,001,4,
logos/2.jpg,properties2.xlsx,frogs/ab72.jpg,0,0,400,l,0,0,0,1,0,83,83,70,,,['l'],0,[0.4169879469409352],2018_Jul_09_1107,60.0940480668,go-nogo,001,4,
logos/2.jpg,properties2.xlsx,frogs/ab39.jpg,0,0,400,l,0,0,0,1,0,84,84,38,,,['l'],0,[0.5168780944027276],2018_Jul_09_1107,60.0940480668,go-nogo,001,4,
logos/2.jpg,properties2.xlsx,frogs/ab54.jpg,0,0,400,l,0,0,0,1,0,85,85,53,,,['a'],0,[0.5333332195555158],2018_Jul_09_1107,60.0940480668,go-nogo,001,4,
logos/2.jpg,properties2.xlsx,frogs/ab18.jpg,0,0,400,l,0,0,0,1,0,86,86,17,,,['l'],0,[1.1667454578450815],2018_Jul_09_1107,60.0940480668,go-nogo,001,4,
logos/2.jpg,properties2.xlsx,frogs/ab73.jpg,0,0,400,l,0,0,0,1,0,87,87,71,,,['l'],0,[0.5002818846851369],2018_Jul_09_1107,60.0940480668,go-nogo,001,4,
logos/2.jpg,properties2.xlsx,frogs/ab43.jpg,0,0,400,l,0,0,0,1,0,88,88,42,,,['l'],0,[0.45052226888992664],2018_Jul_09_1107,60.0940480668,go-nogo,001,4,
logos/2.jpg,properties2.xlsx,frogs/ab46.jpg,0,0,400,l,0,0,0,1,0,89,89,45,,,['l'],0,[0.4336091877908075],2018_Jul_09_1107,60.0940480668,go-nogo,001,4,
logos/2.jpg,properties2.xlsx,,,,,,0,0,0,1,,,,,,,,,,2018_Jul_09_1107,60.0940480668,go-nogo,001,4,
logos/3.jpg,properties3.xlsx,frogs/ab11.jpg,0,0,400,l,0,1,1,2,0,0,0,10,space,7.67223040475,['l'],0,[2.331843980951362],2018_Jul_09_1107,60.0940480668,go-nogo,001,4,
logos/3.jpg,properties3.xlsx,frogs/ab63.jpg,0,0,400,l,0,1,1,2,0,1,1,61,,,['l'],0,[0.28410904243992263],2018_Jul_09_1107,60.0940480668,go-nogo,001,4,
logos/3.jpg,properties3.xlsx,frogs/ab30.jpg,0,0,400,l,0,1,1,2,0,2,2,29,,,['l'],0,[0.36700134428565434],2018_Jul_09_1107,60.0940480668,go-nogo,001,4,
logos/3.jpg,properties3.xlsx,frogs/ab14.jpg,0,0,400,l,0,1,1,2,0,3,3,13,,,['l'],0,[0.3336513424937948],2018_Jul_09_1107,60.0940480668,go-nogo,001,4,
logos/3.jpg,properties3.xlsx,frogs/ab81.jpg,0,0,400,l,0,1,1,2,0,4,4,79,,,['l'],0,[0.5669369460083544],2018_Jul_09_1107,60.0940480668,go-nogo,001,4,
logos/3.jpg,properties3.xlsx,frogs/ab44.jpg,0,0,400,l,0,1,1,2,0,5,5,43,,,['l'],0,[1.4498424460880415],2018_Jul_09_1107,60.0940480668,go-nogo,001,4,
logos/3.jpg,properties3.xlsx,frogs/ab70.jpg,0,0,400,l,0,1,1,2,0,6,6,68,,,['l'],0,[0.1674195917535144],2018_Jul_09_1107,60.0940480668,go-nogo,001,4,
logos/3.jpg,properties3.xlsx,frogs/ab35.jpg,0,0,400,l,0,1,1,2,0,7,7,34,,,['l'],0,[0.5834080000636277],2018_Jul_09_1107,60.0940480668,go-nogo,001,4,
logos/3.jpg,properties3.xlsx,frogs/ab28.jpg,0,0,400,l,0,1,1,2,0,8,8,27,,,['l'],0,[0.4836401638171992],2018_Jul_09_1107,60.0940480668,go-nogo,001,4,
logos/3.jpg,properties3.xlsx,frogs/ab25.jpg,0,0,400,l,0,1,1,2,0,9,9,24,,,['a'],0,[0.06734284857702733],2018_Jul_09_1107,60.0940480668,go-nogo,001,4,
logos/3.jpg,properties3.xlsx,frogs/ab64.jpg,0,0,400,l,0,1,1,2,0,10,10,62,,,['l'],0,[0.0503347629523887],2018_Jul_09_1107,60.0940480668,go-nogo,001,4,
logos/3.jpg,properties3.xlsx,frogs/ab73.jpg,0,0,400,l,0,1,1,2,0,11,11,71,,,['l'],0,[0.48370558609531145],2018_Jul_09_1107,60.0940480668,go-nogo,001,4,
logos/3.jpg,properties3.xlsx,logos/3.jpg,0,0,400,a,0,1,1,2,0,12,12,84,,,['a'],0,[0.20059096228214912],2018_Jul_09_1107,60.0940480668,go-nogo,001,4,
logos/3.jpg,properties3.xlsx,frogs/ab2.jpg,0,0,400,l,0,1,1,2,0,13,13,1,,,['l'],0,[0.6000992143067378],2018_Jul_09_1107,60.0940480668,go-nogo,001,4,
logos/3.jpg,properties3.xlsx,frogs/ab56.jpg,0,0,400,l,0,1,1,2,0,14,14,55,,,['a'],0,[0.6001344854480521],2018_Jul_09_1107,60.0940480668,go-nogo,001,4,
logos/3.jpg,properties3.xlsx,frogs/ab29.jpg,0,0,400,l,0,1,1,2,0,15,15,28,,,['l'],0,[0.45022815308357167],2018_Jul_09_1107,60.0940480668,go-nogo,001,4,
logos/3.jpg,properties3.xlsx,frogs/ab68.jpg,0,0,400,l,0,1,1,2,0,16,16,66,,,['l'],0,[0.5668999681993228],2018_Jul_09_1107,60.0940480668,go-nogo,001,4,
logos/3.jpg,properties3.xlsx,frogs/ab57.jpg,0,0,400,l,0,1,1,2,0,17,17,56,,,['l'],0,[1.3831913669896494],2018_Jul_09_1107,60.0940480668,go-nogo,001,4,
logos/3.jpg,properties3.xlsx,logos/3.jpg,0,0,400,a,0,1,1,2,0,18,18,88,,,['a'],0,[0.05117671922653244],2018_Jul_09_1107,60.0940480668,go-nogo,001,4,
logos/3.jpg,properties3.xlsx,frogs/ab22.jpg,0,0,400,l,0,1,1,2,0,19,19,21,,,['l'],0,[0.3837653763689559],2018_Jul_09_1107,60.0940480668,go-nogo,001,4,
logos/3.jpg,properties3.xlsx,frogs/ab1.jpg,0,0,400,l,0,1,1,2,0,20,20,0,,,['l'],0,[2.7823008275631764],2018_Jul_09_1107,60.0940480668,go-nogo,001,4,
logos/3.jpg,properties3.xlsx,frogs/ab34.jpg,0,0,400,l,0,1,1,2,0,21,21,33,,,['l'],0,[0.6668771557351647],2018_Jul_09_1107,60.0940480668,go-nogo,001,4,
logos/3.jpg,properties3.xlsx,frogs/ab18.jpg,0,0,400,l,0,1,1,2,0,22,22,17,,,['l'],0,[0.7834425885375822],2018_Jul_09_1107,60.0940480668,go-nogo,001,4,
logos/3.jpg,properties3.xlsx,frogs/ab78.jpg,0,0,400,l,0,1,1,2,0,23,23,76,,,['l'],0,[0.35040684123578103],2018_Jul_09_1107,60.0940480668,go-nogo,001,4,
logos/3.jpg,properties3.xlsx,frogs/ab20.jpg,0,0,400,l,0,1,1,2,0,24,24,19,,,['l'],0,[0.48366747050749836],2018_Jul_09_1107,60.0940480668,go-nogo,001,4,
logos/3.jpg,properties3.xlsx,frogs/ab40.jpg,0,0,400,l,0,1,1,2,0,25,25,39,,,['l'],0,[0.4672345320400382],2018_Jul_09_1107,60.0940480668,go-nogo,001,4,
logos/3.jpg,properties3.xlsx,frogs/ab60.jpg,0,0,400,l,0,1,1,2,0,26,26,58,,,['l'],0,[0.4668209494648181],2018_Jul_09_1107,60.0940480668,go-nogo,001,4,
logos/3.jpg,properties3.xlsx,frogs/ab31.jpg,0,0,400,l,0,1,1,2,0,27,27,30,,,['l'],0,[0.4336729034007476],2018_Jul_09_1107,60.0940480668,go-nogo,001,4,
logos/3.jpg,properties3.xlsx,frogs/ab13.jpg,0,0,400,l,0,1,1,2,0,28,28,12,,,['l'],0,[0.9831950078819318],2018_Jul_09_1107,60.0940480668,go-nogo,001,4,
logos/3.jpg,properties3.xlsx,frogs/ab53.jpg,0,0,400,l,0,1,1,2,0,29,29,52,,,['a'],0,[0.8334667378917402],2018_Jul_09_1107,60.0940480668,go-nogo,001,4,
logos/3.jpg,properties3.xlsx,frogs/ab45.jpg,0,0,400,l,0,1,1,2,0,30,30,44,,,['a'],0,[0.03380056217656602],2018_Jul_09_1107,60.0940480668,go-nogo,001,4,
logos/3.jpg,properties3.xlsx,frogs/ab66.jpg,0,0,400,l,0,1,1,2,0,31,31,64,,,['l'],0,[0.1339239542821815],2018_Jul_09_1107,60.0940480668,go-nogo,001,4,
logos/3.jpg,properties3.xlsx,frogs/ab43.jpg,0,0,400,l,0,1,1,2,0,32,32,42,,,['l'],0,[0.3003377496215762],2018_Jul_09_1107,60.0940480668,go-nogo,001,4,
logos/3.jpg,properties3.xlsx,frogs/ab71.jpg,0,0,400,l,0,1,1,2,0,33,33,69,,,['l'],0,[2.282668045654191],2018_Jul_09_1107,60.0940480668,go-nogo,001,4,
logos/3.jpg,properties3.xlsx,frogs/ab12.jpg,0,0,400,l,0,1,1,2,0,34,34,11,,,['l'],0,[0.550128540553942],2018_Jul_09_1107,60.0940480668,go-nogo,001,4,
logos/3.jpg,properties3.xlsx,frogs/ab65.jpg,0,0,400,l,0,1,1,2,0,35,35,63,,,['l'],0,[0.3171353461775652],2018_Jul_09_1107,60.0940480668,go-nogo,001,4,
logos/3.jpg,properties3.xlsx,logos/3.jpg,0,0,400,a,0,1,1,2,0,36,36,83,,,['a'],0,[0.10043059236750196],2018_Jul_09_1107,60.0940480668,go-nogo,001,4,
logos/3.jpg,properties3.xlsx,frogs/ab32.jpg,0,0,400,l,0,1,1,2,0,37,37,31,,,['l'],0,[0.23393356851238423],2018_Jul_09_1107,60.0940480668,go-nogo,001,4,
logos/3.jpg,properties3.xlsx,frogs/ab27.jpg,0,0,400,l,0,1,1,2,0,38,38,26,,,['l'],0,[0.4502418064284939],2018_Jul_09_1107,60.0940480668,go-nogo,001,4,
logos/3.jpg,properties3.xlsx,frogs/ab19.jpg,0,0,400,l,0,1,1,2,0,39,39,18,,,['l'],0,[0.48354459040228903],2018_Jul_09_1107,60.0940480668,go-nogo,001,4,
logos/3.jpg,properties3.xlsx,frogs/ab79.jpg,0,0,400,l,0,1,1,2,0,40,40,77,,,['l'],0,[0.13386365200813088],2018_Jul_09_1107,60.0940480668,go-nogo,001,4,
logos/3.jpg,properties3.xlsx,frogs/ab5.jpg,0,0,400,l,0,1,1,2,0,41,41,4,,,['a'],0,[0.05058052316235262],2018_Jul_09_1107,60.0940480668,go-nogo,001,4,
logos/3.jpg,properties3.xlsx,frogs/ab4.jpg,0,0,400,l,0,1,1,2,0,42,42,3,,,['l'],0,[0.2503943825586248],2018_Jul_09_1107,60.0940480668,go-nogo,001,4,
logos/3.jpg,properties3.xlsx,frogs/ab77.jpg,0,0,400,l,0,1,1,2,0,43,43,75,,,['l'],0,[0.08376896037179904],2018_Jul_09_1107,60.0940480668,go-nogo,001,4,
logos/3.jpg,properties3.xlsx,frogs/ab21.jpg,0,0,400,l,0,1,1,2,0,44,44,20,,,['l'],0,[0.03377951326956463],2018_Jul_09_1107,60.0940480668,go-nogo,001,4,
logos/3.jpg,properties3.xlsx,frogs/ab48.jpg,0,0,400,l,0,1,1,2,0,45,45,47,,,['l'],0,[0.000575147157178435],2018_Jul_09_1107,60.0940480668,go-nogo,001,4,
logos/3.jpg,properties3.xlsx,frogs/ab15.jpg,0,0,400,l,0,1,1,2,0,46,46,14,,,['l'],0,[0.06703394164696874],2018_Jul_09_1107,60.0940480668,go-nogo,001,4,
logos/3.jpg,properties3.xlsx,frogs/ab69.jpg,0,0,400,l,0,1,1,2,0,47,47,67,,,['l'],0,[0.03387963779960046],2018_Jul_09_1107,60.0940480668,go-nogo,001,4,
logos/3.jpg,properties3.xlsx,frogs/ab9.jpg,0,0,400,l,0,1,1,2,0,48,48,8,,,['l'],0,[0.3503579167499993],2018_Jul_09_1107,60.0940480668,go-nogo,001,4,
logos/3.jpg,properties3.xlsx,frogs/ab10.jpg,0,0,400,l,0,1,1,2,0,49,49,9,,,['l'],0,[0.017122432388987363],2018_Jul_09_1107,60.0940480668,go-nogo,001,4,
logos/3.jpg,properties3.xlsx,frogs/ab24.jpg,0,0,400,l,0,1,1,2,0,50,50,23,,,['l'],0,[0.13363894070516835],2018_Jul_09_1107,60.0940480668,go-nogo,001,4,
logos/3.jpg,properties3.xlsx,frogs/ab36.jpg,0,0,400,l,0,1,1,2,0,51,51,35,,,['l'],0,[0.1836443167098878],2018_Jul_09_1107,60.0940480668,go-nogo,001,4,
logos/3.jpg,properties3.xlsx,frogs/ab33.jpg,0,0,400,l,0,1,1,2,0,52,52,32,,,['l'],0,[0.11704443765574979],2018_Jul_09_1107,60.0940480668,go-nogo,001,4,
logos/3.jpg,properties3.xlsx,frogs/ab17.jpg,0,0,400,l,0,1,1,2,0,53,53,16,,,['a'],0,[0.050448540826891985],2018_Jul_09_1107,60.0940480668,go-nogo,001,4,
logos/3.jpg,properties3.xlsx,frogs/ab41.jpg,0,0,400,l,0,1,1,2,0,54,54,40,,,['l'],0,[0.0006894939215271734],2018_Jul_09_1107,60.0940480668,go-nogo,001,4,
logos/3.jpg,properties3.xlsx,frogs/ab72.jpg,0,0,400,l,0,1,1,2,0,55,55,70,,,['a'],0,[0.0005700271531168255],2018_Jul_09_1107,60.0940480668,go-nogo,001,4,
logos/3.jpg,properties3.xlsx,frogs/ab62.jpg,0,0,400,l,0,1,1,2,0,56,56,60,,,['l'],0,[0.13378400749570574],2018_Jul_09_1107,60.0940480668,go-nogo,001,4,
logos/3.jpg,properties3.xlsx,frogs/ab74.jpg,0,0,400,l,0,1,1,2,0,57,57,72,,,['a'],0,[0.050556060919006995],2018_Jul_09_1107,60.0940480668,go-nogo,001,4,
logos/3.jpg,properties3.xlsx,frogs/ab54.jpg,0,0,400,l,0,1,1,2,0,58,58,53,,,['l'],0,[0.11708653546929781],2018_Jul_09_1107,60.0940480668,go-nogo,001,4,
logos/3.jpg,properties3.xlsx,frogs/ab7.jpg,0,0,400,l,0,1,1,2,0,59,59,6,,,['l'],0,[0.2170534829965618],2018_Jul_09_1107,60.0940480668,go-nogo,001,4,
logos/3.jpg,properties3.xlsx,frogs/ab23.jpg,0,0,400,l,0,1,1,2,0,60,60,22,,,['l'],0,[0.05056004314474194],2018_Jul_09_1107,60.0940480668,go-nogo,001,4,
logos/3.jpg,properties3.xlsx,frogs/ab39.jpg,0,0,400,l,0,1,1,2,0,61,61,38,,,['l'],0,[0.033896135591476195],2018_Jul_09_1107,60.0940480668,go-nogo,001,4,
logos/3.jpg,properties3.xlsx,logos/3.jpg,0,0,400,a,0,1,1,2,0,62,62,87,,,['a'],0,[0.7000974507500359],2018_Jul_09_1107,60.0940480668,go-nogo,001,4,
logos/3.jpg,properties3.xlsx,frogs/ab3.jpg,0,0,400,l,0,1,1,2,0,63,63,2,,,['l'],0,[0.4003302971705125],2018_Jul_09_1107,60.0940480668,go-nogo,001,4,
logos/3.jpg,properties3.xlsx,logos/3.jpg,0,0,400,a,0,1,1,2,0,64,64,81,,,['a'],0,[0.10056940137474157],2018_Jul_09_1107,60.0940480668,go-nogo,001,4,
logos/3.jpg,properties3.xlsx,logos/3.jpg,0,0,400,a,0,1,1,2,0,65,65,89,,,['a'],0,[0.08392426717091439],2018_Jul_09_1107,60.0940480668,go-nogo,001,4,
logos/3.jpg,properties3.xlsx,frogs/ab46.jpg,0,0,400,l,0,1,1,2,0,66,66,45,,,['a'],0,[0.5336506598259803],2018_Jul_09_1107,60.0940480668,go-nogo,001,4,
logos/3.jpg,properties3.xlsx,frogs/ab42.jpg,0,0,400,l,0,1,1,2,0,67,67,41,,,['l'],0,[0.01708943680523589],2018_Jul_09_1107,60.0940480668,go-nogo,001,4,
logos/3.jpg,properties3.xlsx,frogs/ab16.jpg,0,0,400,l,0,1,1,2,0,68,68,15,,,['a'],0,[0.26680228989334864],2018_Jul_09_1107,60.0940480668,go-nogo,001,4,
logos/3.jpg,properties3.xlsx,logos/3.jpg,0,0,400,a,0,1,1,2,0,69,69,86,,,['l'],0,[0.06708229724335979],2018_Jul_09_1107,60.0940480668,go-nogo,001,4,
logos/3.jpg,properties3.xlsx,frogs/ab52.jpg,0,0,400,l,0,1,1,2,0,70,70,51,,,['a'],0,[0.9335980944483708],2018_Jul_09_1107,60.0940480668,go-nogo,001,4,
logos/3.jpg,properties3.xlsx,frogs/ab26.jpg,0,0,400,l,0,1,1,2,0,71,71,25,,,['l'],0,[0.1504627061726751],2018_Jul_09_1107,60.0940480668,go-nogo,001,4,
logos/3.jpg,properties3.xlsx,frogs/ab61.jpg,0,0,400,l,0,1,1,2,0,72,72,59,,,['a'],0,[0.0005728716000703571],2018_Jul_09_1107,60.0940480668,go-nogo,001,4,
logos/3.jpg,properties3.xlsx,frogs/ab67.jpg,0,0,400,l,0,1,1,2,0,73,73,65,,,['l'],0,[0.45020767306641574],2018_Jul_09_1107,60.0940480668,go-nogo,001,4,
logos/3.jpg,properties3.xlsx,frogs/ab37.jpg,0,0,400,l,0,1,1,2,0,74,74,36,,,['l'],0,[0.06719778178648994],2018_Jul_09_1107,60.0940480668,go-nogo,001,4,
logos/3.jpg,properties3.xlsx,frogs/ab47.jpg,0,0,400,l,0,1,1,2,0,75,75,46,,,['a'],0,[0.4835992037824326],2018_Jul_09_1107,60.0940480668,go-nogo,001,4,
logos/3.jpg,properties3.xlsx,logos/3.jpg,0,0,400,a,0,1,1,2,0,76,76,85,,,['a'],0,[0.1337817319381429],2018_Jul_09_1107,60.0940480668,go-nogo,001,4,
logos/3.jpg,properties3.xlsx,frogs/ab75.jpg,0,0,400,l,0,1,1,2,0,77,77,73,,,['a'],0,[0.0837917159465178],2018_Jul_09_1107,60.0940480668,go-nogo,001,4,
logos/3.jpg,properties3.xlsx,logos/3.jpg,0,0,400,a,0,1,1,2,0,78,78,82,,,['a'],0,[0.11707572657132914],2018_Jul_09_1107,60.0940480668,go-nogo,001,4,
logos/3.jpg,properties3.xlsx,frogs/ab8.jpg,0,0,400,l,0,1,1,2,0,79,79,7,,,['l'],0,[0.10041466346501693],2018_Jul_09_1107,60.0940480668,go-nogo,001,4,
logos/3.jpg,properties3.xlsx,frogs/ab50.jpg,0,0,400,l,0,1,1,2,0,80,80,49,,,['l'],0,[0.06698387938195083],2018_Jul_09_1107,60.0940480668,go-nogo,001,4,
logos/3.jpg,properties3.xlsx,logos/3.jpg,0,0,400,a,0,1,1,2,0,81,81,80,,,['a'],0,[0.08379285372529921],2018_Jul_09_1107,60.0940480668,go-nogo,001,4,
logos/3.jpg,properties3.xlsx,frogs/ab76.jpg,0,0,400,l,0,1,1,2,0,82,82,74,,,['l'],0,[1.3997864389289134],2018_Jul_09_1107,60.0940480668,go-nogo,001,4,
logos/3.jpg,properties3.xlsx,frogs/ab38.jpg,0,0,400,l,0,1,1,2,0,83,83,37,,,['l'],0,[1.166604942169215],2018_Jul_09_1107,60.0940480668,go-nogo,001,4,
logos/3.jpg,properties3.xlsx,frogs/ab49.jpg,0,0,400,l,0,1,1,2,0,84,84,48,,,['l'],0,[0.5002841602426997],2018_Jul_09_1107,60.0940480668,go-nogo,001,4,
logos/3.jpg,properties3.xlsx,frogs/ab58.jpg,0,0,400,l,0,1,1,2,0,85,85,57,,,['l'],0,[0.8833230648801873],2018_Jul_09_1107,60.0940480668,go-nogo,001,4,
logos/3.jpg,properties3.xlsx,frogs/ab6.jpg,0,0,400,l,0,1,1,2,0,86,86,5,,,['a'],0,[0.35031581893645125],2018_Jul_09_1107,60.0940480668,go-nogo,001,4,
logos/3.jpg,properties3.xlsx,frogs/ab80.jpg,0,0,400,l,0,1,1,2,0,87,87,78,,,['a'],0,[0.0670828661327505],2018_Jul_09_1107,60.0940480668,go-nogo,001,4,
logos/3.jpg,properties3.xlsx,frogs/ab55.jpg,0,0,400,l,0,1,1,2,0,88,88,54,,,['a'],0,[0.3836589940556223],2018_Jul_09_1107,60.0940480668,go-nogo,001,4,
logos/3.jpg,properties3.xlsx,frogs/ab51.jpg,0,0,400,l,0,1,1,2,0,89,89,50,,,['l'],0,[0.5834671645584422],2018_Jul_09_1107,60.0940480668,go-nogo,001,4,
logos/3.jpg,properties3.xlsx,,,,,,0,1,1,2,,,,,,,,,,2018_Jul_09_1107,60.0940480668,go-nogo,001,4,
logos/4.jpg,properties4.xlsx,frogs/ab24.jpg,0,0,400,l,0,2,2,3,0,0,0,23,space,3.85888869736,['l'],0,[1.866036792351224],2018_Jul_09_1107,60.0940480668,go-nogo,001,4,
logos/4.jpg,properties4.xlsx,frogs/ab55.jpg,0,0,400,l,0,2,2,3,0,1,1,54,,,['l'],0,[0.46716683420481786],2018_Jul_09_1107,60.0940480668,go-nogo,001,4,
logos/4.jpg,properties4.xlsx,frogs/ab21.jpg,0,0,400,l,0,2,2,3,0,2,2,20,,,['l'],0,[0.4168883913002901],2018_Jul_09_1107,60.0940480668,go-nogo,001,4,
logos/4.jpg,properties4.xlsx,frogs/ab76.jpg,0,0,400,l,0,2,2,3,0,3,3,74,,,['l'],0,[0.3837682208154547],2018_Jul_09_1107,60.0940480668,go-nogo,001,4,
logos/4.jpg,properties4.xlsx,frogs/ab18.jpg,0,0,400,l,0,2,2,3,0,4,4,17,,,['l'],0,[0.3667413618413775],2018_Jul_09_1107,60.0940480668,go-nogo,001,4,
logos/4.jpg,properties4.xlsx,frogs/ab52.jpg,0,0,400,l,0,2,2,3,0,5,5,51,,,['a'],0,[0.25027548467960514],2018_Jul_09_1107,60.0940480668,go-nogo,001,4,
logos/4.jpg,properties4.xlsx,frogs/ab2.jpg,0,0,400,l,0,2,2,3,0,6,6,1,,,['l'],0,[0.4335716410923851],2018_Jul_09_1107,60.0940480668,go-nogo,001,4,
logos/4.jpg,properties4.xlsx,frogs/ab19.jpg,0,0,400,l,0,2,2,3,0,7,7,18,,,['l'],0,[0.43352612994249284],2018_Jul_09_1107,60.0940480668,go-nogo,001,4,
logos/4.jpg,properties4.xlsx,frogs/ab13.jpg,0,0,400,l,0,2,2,3,0,8,8,12,,,['l'],0,[0.4003871861082189],2018_Jul_09_1107,60.0940480668,go-nogo,001,4,
logos/4.jpg,properties4.xlsx,frogs/ab33.jpg,0,0,400,l,0,2,2,3,0,9,9,32,,,['l'],0,[0.43370021009104676],2018_Jul_09_1107,60.0940480668,go-nogo,001,4,
logos/4.jpg,properties4.xlsx,frogs/ab22.jpg,0,0,400,l,0,2,2,3,0,10,10,21,,,['l'],0,[0.3171131594922372],2018_Jul_09_1107,60.0940480668,go-nogo,001,4,
logos/4.jpg,properties4.xlsx,frogs/ab58.jpg,0,0,400,l,0,2,2,3,0,11,11,57,,,['l'],0,[0.30030475403782475],2018_Jul_09_1107,60.0940480668,go-nogo,001,4,
logos/4.jpg,properties4.xlsx,frogs/ab23.jpg,0,0,400,l,0,2,2,3,0,12,12,22,,,['l'],0,[0.2836618953915604],2018_Jul_09_1107,60.0940480668,go-nogo,001,4,
logos/4.jpg,properties4.xlsx,frogs/ab78.jpg,0,0,400,l,0,2,2,3,0,13,13,76,,,['a'],0,[0.40029900825493314],2018_Jul_09_1107,60.0940480668,go-nogo,001,4,
logos/4.jpg,properties4.xlsx,frogs/ab57.jpg,0,0,400,l,0,2,2,3,0,14,14,56,,,['l'],0,[0.41667562667407765],2018_Jul_09_1107,60.0940480668,go-nogo,001,4,
logos/4.jpg,properties4.xlsx,frogs/ab8.jpg,0,0,400,l,0,2,2,3,0,15,15,7,,,['l'],0,[0.35051606799606816],2018_Jul_09_1107,60.0940480668,go-nogo,001,4,
logos/4.jpg,properties4.xlsx,logos/4.jpg,0,0,400,a,0,2,2,3,0,16,16,84,,,['a'],0,[0.35006550761181643],2018_Jul_09_1107,60.0940480668,go-nogo,001,4,
logos/4.jpg,properties4.xlsx,frogs/ab63.jpg,0,0,400,l,0,2,2,3,0,17,17,61,,,['l'],0,[0.4004435061560798],2018_Jul_09_1107,60.0940480668,go-nogo,001,4,
logos/4.jpg,properties4.xlsx,frogs/ab38.jpg,0,0,400,l,0,2,2,3,0,18,18,37,,,['l'],0,[0.366996224281138],2018_Jul_09_1107,60.0940480668,go-nogo,001,4,
logos/4.jpg,properties4.xlsx,frogs/ab77.jpg,0,0,400,l,0,2,2,3,0,19,19,75,,,['l'],0,[0.43358927666304226],2018_Jul_09_1107,60.0940480668,go-nogo,001,4,
logos/4.jpg,properties4.xlsx,frogs/ab10.jpg,0,0,400,l,0,2,2,3,0,20,20,9,,,['l'],0,[1.099943054173309],2018_Jul_09_1107,60.0940480668,go-nogo,001,4,
logos/4.jpg,properties4.xlsx,frogs/ab72.jpg,0,0,400,l,0,2,2,3,0,21,21,70,,,['l'],0,[0.4839388307386798],2018_Jul_09_1107,60.0940480668,go-nogo,001,4,
logos/4.jpg,properties4.xlsx,logos/4.jpg,0,0,400,a,0,2,2,3,0,22,22,87,,,['a'],0,[0.45025375310524396],2018_Jul_09_1107,60.0940480668,go-nogo,001,4,
logos/4.jpg,properties4.xlsx,frogs/ab31.jpg,0,0,400,l,0,2,2,3,0,23,23,30,,,['l'],0,[0.38366070072379443],2018_Jul_09_1107,60.0940480668,go-nogo,001,4,
logos/4.jpg,properties4.xlsx,frogs/ab60.jpg,0,0,400,l,0,2,2,3,0,24,24,58,,,['l'],0,[0.3004828164121136],2018_Jul_09_1107,60.0940480668,go-nogo,001,4,
logos/4.jpg,properties4.xlsx,logos/4.jpg,0,0,400,a,0,2,2,3,0,25,25,81,,,['a'],0,[0.2670833212441721],2018_Jul_09_1107,60.0940480668,go-nogo,001,4,
logos/4.jpg,properties4.xlsx,frogs/ab74.jpg,0,0,400,l,0,2,2,3,0,26,26,72,,,['a'],0,[1.0167048675880324],2018_Jul_09_1107,60.0940480668,go-nogo,001,4,
logos/4.jpg,properties4.xlsx,frogs/ab17.jpg,0,0,400,l,0,2,2,3,0,27,27,16,,,['a'],0,[0.5668948481948064],2018_Jul_09_1107,60.0940480668,go-nogo,001,4,
logos/4.jpg,properties4.xlsx,frogs/ab64.jpg,0,0,400,l,0,2,2,3,0,28,28,62,,,['l'],0,[0.9832513279302475],2018_Jul_09_1107,60.0940480668,go-nogo,001,4,
logos/4.jpg,properties4.xlsx,frogs/ab11.jpg,0,0,400,l,0,2,2,3,0,29,29,10,,,['l'],0,[0.5001715201465231],2018_Jul_09_1107,60.0940480668,go-nogo,001,4,
logos/4.jpg,properties4.xlsx,frogs/ab30.jpg,0,0,400,l,0,2,2,3,0,30,30,29,,,['l'],0,[1.8839915098951678],2018_Jul_09_1107,60.0940480668,go-nogo,001,4,
logos/4.jpg,properties4.xlsx,frogs/ab56.jpg,0,0,400,l,0,2,2,3,0,31,31,55,,,['a'],0,[0.6000719076168934],2018_Jul_09_1107,60.0940480668,go-nogo,001,4,
logos/4.jpg,properties4.xlsx,frogs/ab3.jpg,0,0,400,l,0,2,2,3,0,32,32,2,,,['l'],0,[0.3171148661604093],2018_Jul_09_1107,60.0940480668,go-nogo,001,4,
logos/4.jpg,properties4.xlsx,frogs/ab69.jpg,0,0,400,l,0,2,2,3,0,33,33,67,,,['l'],0,[0.4004264394748134],2018_Jul_09_1107,60.0940480668,go-nogo,001,4,
logos/4.jpg,properties4.xlsx,logos/4.jpg,0,0,400,a,0,2,2,3,0,34,34,89,,,['a'],0,[0.3500922454118154],2018_Jul_09_1107,60.0940480668,go-nogo,001,4,
logos/4.jpg,properties4.xlsx,logos/4.jpg,0,0,400,a,0,2,2,3,0,35,35,80,,,['a'],0,[0.7998175002890093],2018_Jul_09_1107,60.0940480668,go-nogo,001,4,
logos/4.jpg,properties4.xlsx,frogs/ab16.jpg,0,0,400,l,0,2,2,3,0,36,36,15,,,['a'],0,[0.3835935717775101],2018_Jul_09_1107,60.0940480668,go-nogo,001,4,
logos/4.jpg,properties4.xlsx,frogs/ab37.jpg,0,0,400,l,0,2,2,3,0,37,37,36,,,['l'],0,[0.2504296536999391],2018_Jul_09_1107,60.0940480668,go-nogo,001,4,
logos/4.jpg,properties4.xlsx,frogs/ab45.jpg,0,0,400,l,0,2,2,3,0,38,38,44,,,['a'],0,[0.4834894081332095],2018_Jul_09_1107,60.0940480668,go-nogo,001,4,
logos/4.jpg,properties4.xlsx,frogs/ab39.jpg,0,0,400,l,0,2,2,3,0,39,39,38,,,['l'],0,[0.3666321350819999],2018_Jul_09_1107,60.0940480668,go-nogo,001,4,
logos/4.jpg,properties4.xlsx,frogs/ab20.jpg,0,0,400,l,0,2,2,3,0,40,40,19,,,['l'],0,[0.3171154350498],2018_Jul_09_1107,60.0940480668,go-nogo,001,4,
logos/4.jpg,properties4.xlsx,frogs/ab36.jpg,0,0,400,l,0,2,2,3,0,41,41,35,,,['l'],0,[0.28367156651074765],2018_Jul_09_1107,60.0940480668,go-nogo,001,4,
logos/4.jpg,properties4.xlsx,frogs/ab6.jpg,0,0,400,l,0,2,2,3,0,42,42,5,,,['a'],0,[0.25157141467434485],2018_Jul_09_1107,60.0940480668,go-nogo,001,4,
logos/4.jpg,properties4.xlsx,frogs/ab75.jpg,0,0,400,l,0,2,2,3,0,43,43,73,,,['a'],0,[0.3503095611531535],2018_Jul_09_1107,60.0940480668,go-nogo,001,4,
logos/4.jpg,properties4.xlsx,frogs/ab54.jpg,0,0,400,l,0,2,2,3,0,44,44,53,,,['l'],0,[1.6662900619007814],2018_Jul_09_1107,60.0940480668,go-nogo,001,4,
logos/4.jpg,properties4.xlsx,frogs/ab1.jpg,0,0,400,l,0,2,2,3,0,45,45,0,,,['l'],0,[0.3504506457175012],2018_Jul_09_1107,60.0940480668,go-nogo,001,4,
logos/4.jpg,properties4.xlsx,frogs/ab66.jpg,0,0,400,l,0,2,2,3,0,46,46,64,,,['l'],0,[0.4003393994007638],2018_Jul_09_1107,60.0940480668,go-nogo,001,4,
logos/4.jpg,properties4.xlsx,logos/4.jpg,0,0,400,a,0,2,2,3,0,47,47,86,,,['a'],0,[0.3672778245218069],2018_Jul_09_1107,60.0940480668,go-nogo,001,4,
logos/4.jpg,properties4.xlsx,frogs/ab9.jpg,0,0,400,l,0,2,2,3,0,48,48,8,,,['l'],0,[0.3836407895960292],2018_Jul_09_1107,60.0940480668,go-nogo,001,4,
logos/4.jpg,properties4.xlsx,frogs/ab81.jpg,0,0,400,l,0,2,2,3,0,49,49,79,,,['a'],0,[0.35036758786918654],2018_Jul_09_1107,60.0940480668,go-nogo,001,4,
logos/4.jpg,properties4.xlsx,frogs/ab14.jpg,0,0,400,l,0,2,2,3,0,50,50,13,,,['l'],0,[0.5002631113356983],2018_Jul_09_1107,60.0940480668,go-nogo,001,4,
logos/4.jpg,properties4.xlsx,frogs/ab25.jpg,0,0,400,l,0,2,2,3,0,51,51,24,,,['l'],0,[0.3671168288287845],2018_Jul_09_1107,60.0940480668,go-nogo,001,4,
logos/4.jpg,properties4.xlsx,logos/4.jpg,0,0,400,a,0,2,2,3,0,52,52,88,,,['a'],0,[0.4002921815826994],2018_Jul_09_1107,60.0940480668,go-nogo,001,4,
logos/4.jpg,properties4.xlsx,frogs/ab4.jpg,0,0,400,l,0,2,2,3,0,53,53,3,,,['l'],0,[0.4502861797996047],2018_Jul_09_1107,60.0940480668,go-nogo,001,4,
logos/4.jpg,properties4.xlsx,frogs/ab27.jpg,0,0,400,l,0,2,2,3,0,54,54,26,,,['l'],0,[0.40033541717502885],2018_Jul_09_1107,60.0940480668,go-nogo,001,4,
logos/4.jpg,properties4.xlsx,frogs/ab46.jpg,0,0,400,l,0,2,2,3,0,55,55,45,,,['a'],0,[0.4835508481855868],2018_Jul_09_1107,60.0940480668,go-nogo,001,4,
logos/4.jpg,properties4.xlsx,frogs/ab49.jpg,0,0,400,l,0,2,2,3,0,56,56,48,,,['a'],0,[0.3504153745766416],2018_Jul_09_1107,60.0940480668,go-nogo,001,4,
logos/4.jpg,properties4.xlsx,frogs/ab67.jpg,0,0,400,l,0,2,2,3,0,57,57,65,,,['l'],0,[0.30026322511366743],2018_Jul_09_1107,60.0940480668,go-nogo,001,4,
logos/4.jpg,properties4.xlsx,frogs/ab35.jpg,0,0,400,l,0,2,2,3,0,58,58,34,,,['l'],0,[0.44995281062665526],2018_Jul_09_1107,60.0940480668,go-nogo,001,4,
logos/4.jpg,properties4.xlsx,frogs/ab32.jpg,0,0,400,l,0,2,2,3,0,59,59,31,,,['l'],0,[0.4669307451140412],2018_Jul_09_1107,60.0940480668,go-nogo,001,4,
logos/4.jpg,properties4.xlsx,frogs/ab15.jpg,0,0,400,l,0,2,2,3,0,60,60,14,,,['l'],0,[0.4835451592921345],2018_Jul_09_1107,60.0940480668,go-nogo,001,4,
logos/4.jpg,properties4.xlsx,frogs/ab7.jpg,0,0,400,l,0,2,2,3,0,61,61,6,,,['l'],0,[0.3502907878037149],2018_Jul_09_1107,60.0940480668,go-nogo,001,4,
logos/4.jpg,properties4.xlsx,frogs/ab47.jpg,0,0,400,l,0,2,2,3,0,62,62,46,,,['a'],0,[0.46663662930768623],2018_Jul_09_1107,60.0940480668,go-nogo,001,4,
logos/4.jpg,properties4.xlsx,frogs/ab62.jpg,0,0,400,l,0,2,2,3,0,63,63,60,,,['l'],0,[0.5335186774914291],2018_Jul_09_1107,60.0940480668,go-nogo,001,4,
logos/4.jpg,properties4.xlsx,logos/4.jpg,0,0,400,a,0,2,2,3,0,64,64,83,,,['a'],0,[0.2504370492615635],2018_Jul_09_1107,60.0940480668,go-nogo,001,4,
logos/4.jpg,properties4.xlsx,frogs/ab40.jpg,0,0,400,l,0,2,2,3,0,65,65,39,,,['l'],0,[0.4002967326973703],2018_Jul_09_1107,60.0940480668,go-nogo,001,4,
logos/4.jpg,properties4.xlsx,frogs/ab42.jpg,0,0,400,l,0,2,2,3,0,66,66,41,,,['l'],0,[0.7000792462899881],2018_Jul_09_1107,60.0940480668,go-nogo,001,4,
logos/4.jpg,properties4.xlsx,frogs/ab41.jpg,0,0,400,l,0,2,2,3,0,67,67,40,,,['l'],0,[0.5667731058688332],2018_Jul_09_1107,60.0940480668,go-nogo,001,4,
logos/4.jpg,properties4.xlsx,frogs/ab51.jpg,0,0,400,l,0,2,2,3,0,68,68,50,,,['l'],0,[0.41686392905694447],2018_Jul_09_1107,60.0940480668,go-nogo,001,4,
logos/4.jpg,properties4.xlsx,frogs/ab44.jpg,0,0,400,l,0,2,2,3,0,69,69,43,,,['a'],0,[0.7329530876759236],2018_Jul_09_1107,60.0940480668,go-nogo,001,4,
logos/4.jpg,properties4.xlsx,frogs/ab48.jpg,0,0,400,l,0,2,2,3,0,70,70,47,,,['l'],0,[0.0005614938122562307],2018_Jul_09_1107,60.0940480668,go-nogo,001,4,
logos/4.jpg,properties4.xlsx,frogs/ab71.jpg,0,0,400,l,0,2,2,3,0,71,71,69,,,['l'],0,[0.5669318260038381],2018_Jul_09_1107,60.0940480668,go-nogo,001,4,
logos/4.jpg,properties4.xlsx,logos/4.jpg,0,0,400,a,0,2,2,3,0,72,72,82,,,['a'],0,[0.15056965737494465],2018_Jul_09_1107,60.0940480668,go-nogo,001,4,
logos/4.jpg,properties4.xlsx,frogs/ab26.jpg,0,0,400,l,0,2,2,3,0,73,73,25,,,['a'],0,[0.566779363652131],2018_Jul_09_1107,60.0940480668,go-nogo,001,4,
logos/4.jpg,properties4.xlsx,frogs/ab43.jpg,0,0,400,l,0,2,2,3,0,74,74,42,,,['l'],0,[0.6335999717830418],2018_Jul_09_1107,60.0940480668,go-nogo,001,4,
logos/4.jpg,properties4.xlsx,frogs/ab79.jpg,0,0,400,l,0,2,2,3,0,75,75,77,,,['l'],0,[0.36696721092312146],2018_Jul_09_1107,60.0940480668,go-nogo,001,4,
logos/4.jpg,properties4.xlsx,frogs/ab80.jpg,0,0,400,l,0,2,2,3,0,76,76,78,,,['a'],0,[0.40008510585039403],2018_Jul_09_1107,60.0940480668,go-nogo,001,4,
logos/4.jpg,properties4.xlsx,frogs/ab68.jpg,0,0,400,l,0,2,2,3,0,77,77,66,,,['l'],0,[0.5336387131496849],2018_Jul_09_1107,60.0940480668,go-nogo,001,4,
logos/4.jpg,properties4.xlsx,frogs/ab65.jpg,0,0,400,l,0,2,2,3,0,78,78,63,,,['l'],0,[0.3837568430280953],2018_Jul_09_1107,60.0940480668,go-nogo,001,4,
logos/4.jpg,properties4.xlsx,frogs/ab50.jpg,0,0,400,l,0,2,2,3,0,79,79,49,,,['l'],0,[0.35013377433642745],2018_Jul_09_1107,60.0940480668,go-nogo,001,4,
logos/4.jpg,properties4.xlsx,frogs/ab12.jpg,0,0,400,l,0,2,2,3,0,80,80,11,,,['l'],0,[0.5002915558043242],2018_Jul_09_1107,60.0940480668,go-nogo,001,4,
logos/4.jpg,properties4.xlsx,frogs/ab5.jpg,0,0,400,l,0,2,2,3,0,81,81,4,,,['a'],0,[0.21695847847104233],2018_Jul_09_1107,60.0940480668,go-nogo,001,4,
logos/4.jpg,properties4.xlsx,frogs/ab28.jpg,0,0,400,l,0,2,2,3,0,82,82,27,,,['a'],0,[0.11708425991218974],2018_Jul_09_1107,60.0940480668,go-nogo,001,4,
logos/4.jpg,properties4.xlsx,frogs/ab73.jpg,0,0,400,l,0,2,2,3,0,83,83,71,,,['l'],0,[0.6169292375575424],2018_Jul_09_1107,60.0940480668,go-nogo,001,4,
logos/4.jpg,properties4.xlsx,frogs/ab34.jpg,0,0,400,l,0,2,2,3,0,84,84,33,,,['l'],0,[0.13375158080134497],2018_Jul_09_1107,60.0940480668,go-nogo,001,4,
logos/4.jpg,properties4.xlsx,logos/4.jpg,0,0,400,a,0,2,2,3,0,85,85,85,,,['a'],0,[0.15048091063272295],2018_Jul_09_1107,60.0940480668,go-nogo,001,4,
logos/4.jpg,properties4.xlsx,frogs/ab29.jpg,0,0,400,l,0,2,2,3,0,86,86,28,,,['l'],0,[0.9168113067903505],2018_Jul_09_1107,60.0940480668,go-nogo,001,4,
logos/4.jpg,properties4.xlsx,frogs/ab61.jpg,0,0,400,l,0,2,2,3,0,87,87,59,,,['l'],0,[0.366970055370075],2018_Jul_09_1107,60.0940480668,go-nogo,001,4,
logos/4.jpg,properties4.xlsx,frogs/ab70.jpg,0,0,400,l,0,2,2,3,0,88,88,68,,,['l'],0,[0.3170426172096086],2018_Jul_09_1107,60.0940480668,go-nogo,001,4,
logos/4.jpg,properties4.xlsx,frogs/ab53.jpg,0,0,400,l,0,2,2,3,0,89,89,52,,,['a'],0,[0.300340594068075],2018_Jul_09_1107,60.0940480668,go-nogo,001,4,
logos/4.jpg,properties4.xlsx,,,,,,0,2,2,3,,,,,,,,,,2018_Jul_09_1107,60.0940480668,go-nogo,001,4,
logos/1.jpg,properties1.xlsx,frogs/ab9.jpg,0,0,400,l,0,3,3,0,0,0,0,8,space,2.64202920564,['l'],0,[1.7828765436102003],2018_Jul_09_1107,60.0940480668,go-nogo,001,4,
logos/1.jpg,properties1.xlsx,frogs/ab51.jpg,0,0,400,l,0,3,3,0,0,1,1,50,,,['l'],0,[0.33392952939721],2018_Jul_09_1107,60.0940480668,go-nogo,001,4,
logos/1.jpg,properties1.xlsx,frogs/ab61.jpg,0,0,400,l,0,3,3,0,0,2,2,59,,,['l'],0,[0.3667692374206126],2018_Jul_09_1107,60.0940480668,go-nogo,001,4,
logos/1.jpg,properties1.xlsx,frogs/ab15.jpg,0,0,400,l,0,3,3,0,0,3,3,14,,,['l'],0,[0.3501900943842884],2018_Jul_09_1107,60.0940480668,go-nogo,001,4,
logos/1.jpg,properties1.xlsx,frogs/ab26.jpg,0,0,400,l,0,3,3,0,0,4,4,25,,,['a'],0,[0.39998043020523255],2018_Jul_09_1107,60.0940480668,go-nogo,001,4,
logos/1.jpg,properties1.xlsx,frogs/ab30.jpg,0,0,400,l,0,3,3,0,0,5,5,29,,,['a'],0,[0.38371474521409255],2018_Jul_09_1107,60.0940480668,go-nogo,001,4,
logos/1.jpg,properties1.xlsx,frogs/ab56.jpg,0,0,400,l,0,3,3,0,0,6,6,55,,,['a'],0,[0.4331529385126487],2018_Jul_09_1107,60.0940480668,go-nogo,001,4,
logos/1.jpg,properties1.xlsx,logos/1.jpg,0,0,400,a,0,3,3,0,0,7,7,81,,,['a'],0,[0.36667764623189214],2018_Jul_09_1107,60.0940480668,go-nogo,001,4,
logos/1.jpg,properties1.xlsx,frogs/ab7.jpg,0,0,400,l,0,3,3,0,0,8,8,6,,,['l'],0,[0.26723350803922585],2018_Jul_09_1107,60.0940480668,go-nogo,001,4,
logos/1.jpg,properties1.xlsx,frogs/ab43.jpg,0,0,400,l,0,3,3,0,0,9,9,42,,,['l'],0,[0.3171620839780189],2018_Jul_09_1107,60.0940480668,go-nogo,001,4,
logos/1.jpg,properties1.xlsx,frogs/ab35.jpg,0,0,400,l,0,3,3,0,0,10,10,34,,,['l'],0,[0.4003024215912774],2018_Jul_09_1107,60.0940480668,go-nogo,001,4,
logos/1.jpg,properties1.xlsx,frogs/ab80.jpg,0,0,400,l,0,3,3,0,0,11,11,78,,,['a'],0,[0.13385056755214464],2018_Jul_09_1107,60.0940480668,go-nogo,001,4,
logos/1.jpg,properties1.xlsx,frogs/ab39.jpg,0,0,400,l,0,3,3,0,0,12,12,38,,,['l'],0,[1.2331775145339634],2018_Jul_09_1107,60.0940480668,go-nogo,001,4,
logos/1.jpg,properties1.xlsx,frogs/ab36.jpg,0,0,400,l,0,3,3,0,0,13,13,35,,,['l'],0,[0.43362056557816686],2018_Jul_09_1107,60.0940480668,go-nogo,001,4,
logos/1.jpg,properties1.xlsx,frogs/ab27.jpg,0,0,400,l,0,3,3,0,0,14,14,26,,,['l'],0,[0.31671436804072073],2018_Jul_09_1107,60.0940480668,go-nogo,001,4,
logos/1.jpg,properties1.xlsx,frogs/ab4.jpg,0,0,400,l,0,3,3,0,0,15,15,3,,,['l'],0,[0.5669853016052002],2018_Jul_09_1107,60.0940480668,go-nogo,001,4,
logos/1.jpg,properties1.xlsx,logos/1.jpg,0,0,400,a,0,3,3,0,0,16,16,86,,,['a'],0,[0.18395891253385344],2018_Jul_09_1107,60.0940480668,go-nogo,001,4,
logos/1.jpg,properties1.xlsx,frogs/ab48.jpg,0,0,400,l,0,3,3,0,0,17,17,47,,,['l'],0,[0.21655854924074447],2018_Jul_09_1107,60.0940480668,go-nogo,001,4,
logos/1.jpg,properties1.xlsx,frogs/ab22.jpg,0,0,400,l,0,3,3,0,0,18,18,21,,,['l'],0,[0.783506873036913],2018_Jul_09_1107,60.0940480668,go-nogo,001,4,
logos/1.jpg,properties1.xlsx,frogs/ab3.jpg,0,0,400,l,0,3,3,0,0,19,19,2,,,['l'],0,[0.23371511499226472],2018_Jul_09_1107,60.0940480668,go-nogo,001,4,
logos/1.jpg,properties1.xlsx,frogs/ab69.jpg,0,0,400,l,0,3,3,0,0,20,20,67,,,['l'],0,[0.41719559156217656],2018_Jul_09_1107,60.0940480668,go-nogo,001,4,
logos/1.jpg,properties1.xlsx,frogs/ab52.jpg,0,0,400,l,0,3,3,0,0,21,21,51,,,['a'],0,[0.36713503328883235],2018_Jul_09_1107,60.0940480668,go-nogo,001,4,
logos/1.jpg,properties1.xlsx,frogs/ab21.jpg,0,0,400,l,0,3,3,0,0,22,22,20,,,['l'],0,[0.5002847291316357],2018_Jul_09_1107,60.0940480668,go-nogo,001,4,
logos/1.jpg,properties1.xlsx,frogs/ab37.jpg,0,0,400,l,0,3,3,0,0,23,23,36,,,['l'],0,[0.683549596629291],2018_Jul_09_1107,60.0940480668,go-nogo,001,4,
logos/1.jpg,properties1.xlsx,frogs/ab81.jpg,0,0,400,l,0,3,3,0,0,24,24,79,,,['a'],0,[0.16738659617021767],2018_Jul_09_1107,60.0940480668,go-nogo,001,4,
logos/1.jpg,properties1.xlsx,frogs/ab54.jpg,0,0,400,l,0,3,3,0,0,25,25,53,,,['l'],0,[0.13372939411556217],2018_Jul_09_1107,60.0940480668,go-nogo,001,4,
logos/1.jpg,properties1.xlsx,frogs/ab17.jpg,0,0,400,l,0,3,3,0,0,26,26,16,,,['l'],0,[2.5992652224845187],2018_Jul_09_1107,60.0940480668,go-nogo,001,4,
logos/1.jpg,properties1.xlsx,frogs/ab31.jpg,0,0,400,l,0,3,3,0,0,27,27,30,,,['l'],0,[0.7001475130145991],2018_Jul_09_1107,60.0940480668,go-nogo,001,4,
logos/1.jpg,properties1.xlsx,frogs/ab70.jpg,0,0,400,l,0,3,3,0,0,28,28,68,,,['l'],0,[0.41689635575130524],2018_Jul_09_1107,60.0940480668,go-nogo,001,4,
logos/1.jpg,properties1.xlsx,frogs/ab64.jpg,0,0,400,l,0,3,3,0,0,29,29,62,,,['a'],0,[0.40036898164817103],2018_Jul_09_1107,60.0940480668,go-nogo,001,4,
logos/1.jpg,properties1.xlsx,frogs/ab46.jpg,0,0,400,l,0,3,3,0,0,30,30,45,,,['a'],0,[0.36699224205540304],2018_Jul_09_1107,60.0940480668,go-nogo,001,4,
logos/1.jpg,properties1.xlsx,frogs/ab40.jpg,0,0,400,l,0,3,3,0,0,31,31,39,,,['a'],0,[0.35033231672787224],2018_Jul_09_1107,60.0940480668,go-nogo,001,4,
logos/1.jpg,properties1.xlsx,frogs/ab11.jpg,0,0,400,l,0,3,3,0,0,32,32,10,,,['l'],0,[0.1341048611025144],2018_Jul_09_1107,60.0940480668,go-nogo,001,4,
logos/1.jpg,properties1.xlsx,frogs/ab53.jpg,0,0,400,l,0,3,3,0,0,33,33,52,,,['a'],0,[0.41694016023348013],2018_Jul_09_1107,60.0940480668,go-nogo,001,4,
logos/1.jpg,properties1.xlsx,frogs/ab32.jpg,0,0,400,l,0,3,3,0,0,34,34,31,,,['l'],0,[0.350286236689044],2018_Jul_09_1107,60.0940480668,go-nogo,001,4,
logos/1.jpg,properties1.xlsx,frogs/ab38.jpg,0,0,400,l,0,3,3,0,0,35,35,37,,,['l'],0,[0.3502139877382433],2018_Jul_09_1107,60.0940480668,go-nogo,001,4,
logos/1.jpg,properties1.xlsx,frogs/ab67.jpg,0,0,400,l,0,3,3,0,0,36,36,65,,,['l'],0,[0.4502839042420419],2018_Jul_09_1107,60.0940480668,go-nogo,001,4,
logos/1.jpg,properties1.xlsx,logos/1.jpg,0,0,400,a,0,3,3,0,0,37,37,85,,,['a'],0,[0.5666906169094545],2018_Jul_09_1107,60.0940480668,go-nogo,001,4,
logos/1.jpg,properties1.xlsx,frogs/ab42.jpg,0,0,400,l,0,3,3,0,0,38,38,41,,,['l'],0,[0.5169457922384026],2018_Jul_09_1107,60.0940480668,go-nogo,001,4,
logos/1.jpg,properties1.xlsx,frogs/ab6.jpg,0,0,400,l,0,3,3,0,0,39,39,5,,,['a'],0,[0.2668182187958337],2018_Jul_09_1107,60.0940480668,go-nogo,001,4,
logos/1.jpg,properties1.xlsx,frogs/ab13.jpg,0,0,400,l,0,3,3,0,0,40,40,12,,,['l'],0,[0.20046296217287818],2018_Jul_09_1107,60.0940480668,go-nogo,001,4,
logos/1.jpg,properties1.xlsx,logos/1.jpg,0,0,400,a,0,3,3,0,0,41,41,83,,,['a'],0,[0.350534272456116],2018_Jul_09_1107,60.0940480668,go-nogo,001,4,
logos/1.jpg,properties1.xlsx,frogs/ab16.jpg,0,0,400,l,0,3,3,0,0,42,42,15,,,['a'],0,[0.30040487856740583],2018_Jul_09_1107,60.0940480668,go-nogo,001,4,
logos/1.jpg,properties1.xlsx,frogs/ab14.jpg,0,0,400,l,0,3,3,0,0,43,43,13,,,['l'],0,[0.283500899698538],2018_Jul_09_1107,60.0940480668,go-nogo,001,4,
logos/1.jpg,properties1.xlsx,frogs/ab63.jpg,0,0,400,l,0,3,3,0,0,44,44,61,,,['a'],0,[0.4503823221039056],2018_Jul_09_1107,60.0940480668,go-nogo,001,4,
logos/1.jpg,properties1.xlsx,frogs/ab55.jpg,0,0,400,l,0,3,3,0,0,45,45,54,,,['l'],0,[0.9501925974977894],2018_Jul_09_1107,60.0940480668,go-nogo,001,4,
logos/1.jpg,properties1.xlsx,frogs/ab78.jpg,0,0,400,l,0,3,3,0,0,46,46,76,,,['a'],0,[0.3670809887980795],2018_Jul_09_1107,60.0940480668,go-nogo,001,4,
logos/1.jpg,properties1.xlsx,frogs/ab19.jpg,0,0,400,l,0,3,3,0,0,47,47,18,,,['l'],0,[0.333661582501918],2018_Jul_09_1107,60.0940480668,go-nogo,001,4,
logos/1.jpg,properties1.xlsx,frogs/ab29.jpg,0,0,400,l,0,3,3,0,0,48,48,28,,,['l'],0,[0.5668408037040535],2018_Jul_09_1107,60.0940480668,go-nogo,001,4,
logos/1.jpg,properties1.xlsx,frogs/ab50.jpg,0,0,400,l,0,3,3,0,0,49,49,49,,,['l'],0,[0.36700248206443575],2018_Jul_09_1107,60.0940480668,go-nogo,001,4,
logos/1.jpg,properties1.xlsx,frogs/ab5.jpg,0,0,400,l,0,3,3,0,0,50,50,4,,,['a'],0,[0.267023018971031],2018_Jul_09_1107,60.0940480668,go-nogo,001,4,
logos/1.jpg,properties1.xlsx,frogs/ab49.jpg,0,0,400,l,0,3,3,0,0,51,51,48,,,['a'],0,[0.2337367327886568],2018_Jul_09_1107,60.0940480668,go-nogo,001,4,
logos/1.jpg,properties1.xlsx,frogs/ab34.jpg,0,0,400,l,0,3,3,0,0,52,52,33,,,['l'],0,[0.3835218917165548],2018_Jul_09_1107,60.0940480668,go-nogo,001,4,
logos/1.jpg,properties1.xlsx,logos/1.jpg,0,0,400,a,0,3,3,0,0,53,53,88,,,['a'],0,[0.28374210879337625],2018_Jul_09_1107,60.0940480668,go-nogo,001,4,
logos/1.jpg,properties1.xlsx,logos/1.jpg,0,0,400,a,0,3,3,0,0,54,54,84,,,['a'],0,[0.3004208074703456],2018_Jul_09_1107,60.0940480668,go-nogo,001,4,
logos/1.jpg,properties1.xlsx,frogs/ab65.jpg,0,0,400,l,0,3,3,0,0,55,55,63,,,['l'],0,[0.2508904540927688],2018_Jul_09_1107,60.0940480668,go-nogo,001,4,
logos/1.jpg,properties1.xlsx,frogs/ab60.jpg,0,0,400,l,0,3,3,0,0,56,56,58,,,['l'],0,[0.4503351042858412],2018_Jul_09_1107,60.0940480668,go-nogo,001,4,
logos/1.jpg,properties1.xlsx,frogs/ab1.jpg,0,0,400,l,0,3,3,0,0,57,57,0,,,['l'],0,[0.33352106682696103],2018_Jul_09_1107,60.0940480668,go-nogo,001,4,
logos/1.jpg,properties1.xlsx,frogs/ab12.jpg,0,0,400,l,0,3,3,0,0,58,58,11,,,['l'],0,[0.23370203053718797],2018_Jul_09_1107,60.0940480668,go-nogo,001,4,
logos/1.jpg,properties1.xlsx,frogs/ab8.jpg,0,0,400,l,0,3,3,0,0,59,59,7,,,['l'],0,[0.3503664500904051],2018_Jul_09_1107,60.0940480668,go-nogo,001,4,
logos/1.jpg,properties1.xlsx,frogs/ab75.jpg,0,0,400,l,0,3,3,0,0,60,60,73,,,['l'],0,[0.4334840321289448],2018_Jul_09_1107,60.0940480668,go-nogo,001,4,
logos/1.jpg,properties1.xlsx,frogs/ab68.jpg,0,0,400,l,0,3,3,0,0,61,61,66,,,['l'],0,[2.082759181732399],2018_Jul_09_1107,60.0940480668,go-nogo,001,4,
logos/1.jpg,properties1.xlsx,logos/1.jpg,0,0,400,a,0,3,3,0,0,62,62,89,,,['a'],0,[0.4001289103321142],2018_Jul_09_1107,60.0940480668,go-nogo,001,4,
logos/1.jpg,properties1.xlsx,frogs/ab33.jpg,0,0,400,l,0,3,3,0,0,63,63,32,,,['l'],0,[0.5002767646806205],2018_Jul_09_1107,60.0940480668,go-nogo,001,4,
logos/1.jpg,properties1.xlsx,frogs/ab10.jpg,0,0,400,l,0,3,3,0,0,64,64,9,,,['l'],0,[0.4504045087896884],2018_Jul_09_1107,60.0940480668,go-nogo,001,4,
logos/1.jpg,properties1.xlsx,frogs/ab73.jpg,0,0,400,l,0,3,3,0,0,65,65,71,,,['l'],0,[0.6009690461601167],2018_Jul_09_1107,60.0940480668,go-nogo,001,4,
logos/1.jpg,properties1.xlsx,frogs/ab45.jpg,0,0,400,l,0,3,3,0,0,66,66,44,,,['a'],0,[0.35064236143671224],2018_Jul_09_1107,60.0940480668,go-nogo,001,4,
logos/1.jpg,properties1.xlsx,frogs/ab24.jpg,0,0,400,l,0,3,3,0,0,67,67,23,,,['l'],0,[0.6499430257294989],2018_Jul_09_1107,60.0940480668,go-nogo,001,4,
logos/1.jpg,properties1.xlsx,frogs/ab47.jpg,0,0,400,l,0,3,3,0,0,68,68,46,,,['a'],0,[0.5335761353185262],2018_Jul_09_1107,60.0940480668,go-nogo,001,4,
logos/1.jpg,properties1.xlsx,frogs/ab72.jpg,0,0,400,l,0,3,3,0,0,69,69,70,,,['l'],0,[0.41712675594817483],2018_Jul_09_1107,60.0940480668,go-nogo,001,4,
logos/1.jpg,properties1.xlsx,logos/1.jpg,0,0,400,a,0,3,3,0,0,70,70,80,,,['a'],0,[0.28372049099698415],2018_Jul_09_1107,60.0940480668,go-nogo,001,4,
logos/1.jpg,properties1.xlsx,frogs/ab66.jpg,0,0,400,l,0,3,3,0,0,71,71,64,,,['l'],0,[0.6166840462369692],2018_Jul_09_1107,60.0940480668,go-nogo,001,4,
logos/1.jpg,properties1.xlsx,frogs/ab79.jpg,0,0,400,l,0,3,3,0,0,72,72,77,,,['l'],0,[2.499232283789297],2018_Jul_09_1107,60.0940480668,go-nogo,001,4,
logos/1.jpg,properties1.xlsx,logos/1.jpg,0,0,400,a,0,3,3,0,0,73,73,87,,,['a'],0,[0.5334339129749424],2018_Jul_09_1107,60.0940480668,go-nogo,001,4,
logos/1.jpg,properties1.xlsx,frogs/ab57.jpg,0,0,400,l,0,3,3,0,0,74,74,56,,,['a'],0,[0.46684541170816374],2018_Jul_09_1107,60.0940480668,go-nogo,001,4,
logos/1.jpg,properties1.xlsx,frogs/ab44.jpg,0,0,400,l,0,3,3,0,0,75,75,43,,,['l'],0,[0.4834200036298171],2018_Jul_09_1107,60.0940480668,go-nogo,001,4,
logos/1.jpg,properties1.xlsx,frogs/ab58.jpg,0,0,400,l,0,3,3,0,0,76,76,57,,,['l'],0,[0.13365828294354287],2018_Jul_09_1107,60.0940480668,go-nogo,001,4,
logos/1.jpg,properties1.xlsx,frogs/ab62.jpg,0,0,400,l,0,3,3,0,0,77,77,60,,,['l'],0,[0.26704861899270327],2018_Jul_09_1107,60.0940480668,go-nogo,001,4,
logos/1.jpg,properties1.xlsx,frogs/ab18.jpg,0,0,400,l,0,3,3,0,0,78,78,17,,,['l'],0,[0.4836742971797321],2018_Jul_09_1107,60.0940480668,go-nogo,001,4,
logos/1.jpg,properties1.xlsx,frogs/ab25.jpg,0,0,400,l,0,3,3,0,0,79,79,24,,,['l'],0,[0.08372003588556254],2018_Jul_09_1107,60.0940480668,go-nogo,001,4,
logos/1.jpg,properties1.xlsx,frogs/ab2.jpg,0,0,400,l,0,3,3,0,0,80,80,1,,,['l'],0,[0.11707458879254773],2018_Jul_09_1107,60.0940480668,go-nogo,001,4,
logos/1.jpg,properties1.xlsx,logos/1.jpg,0,0,400,a,0,3,3,0,0,81,81,82,,,['a'],0,[0.16712035594264307],2018_Jul_09_1107,60.0940480668,go-nogo,001,4,
logos/1.jpg,properties1.xlsx,frogs/ab41.jpg,0,0,400,l,0,3,3,0,0,82,82,40,,,['l'],0,[0.6835450455141654],2018_Jul_09_1107,60.0940480668,go-nogo,001,4,
logos/1.jpg,properties1.xlsx,frogs/ab77.jpg,0,0,400,l,0,3,3,0,0,83,83,75,,,['l'],0,[0.3500330809170009],2018_Jul_09_1107,60.0940480668,go-nogo,001,4,
logos/1.jpg,properties1.xlsx,frogs/ab76.jpg,0,0,400,l,0,3,3,0,0,84,84,74,,,['l'],0,[0.033877362242037634],2018_Jul_09_1107,60.0940480668,go-nogo,001,4,
logos/1.jpg,properties1.xlsx,frogs/ab20.jpg,0,0,400,l,0,3,3,0,0,85,85,19,,,['l'],0,[0.15059923962280664],2018_Jul_09_1107,60.0940480668,go-nogo,001,4,
logos/1.jpg,properties1.xlsx,frogs/ab23.jpg,0,0,400,l,0,3,3,0,0,86,86,22,,,['l'],0,[0.5669483237961686],2018_Jul_09_1107,60.0940480668,go-nogo,001,4,
logos/1.jpg,properties1.xlsx,frogs/ab71.jpg,0,0,400,l,0,3,3,0,0,87,87,69,,,['l'],0,[0.8832912070752172],2018_Jul_09_1107,60.0940480668,go-nogo,001,4,
logos/1.jpg,properties1.xlsx,frogs/ab74.jpg,0,0,400,l,0,3,3,0,0,88,88,72,,,['a'],0,[0.7668401210371485],2018_Jul_09_1107,60.0940480668,go-nogo,001,4,
logos/1.jpg,properties1.xlsx,frogs/ab28.jpg,0,0,400,l,0,3,3,0,0,89,89,27,,,['a'],0,[0.3336433780423249],2018_Jul_09_1107,60.0940480668,go-nogo,001,4,
logos/1.jpg,properties1.xlsx,,,,,,0,3,3,0,,,,,,,,,,2018_Jul_09_1107,60.0940480668,go-nogo,001,4,
