pix,source,image1,x,y,size,answer,trials_2.thisRepN,trials_2.thisTrialN,trials_2.thisN,trials_2.thisIndex,trials.thisRepN,trials.thisTrialN,trials.thisN,trials.thisIndex,key_resp_3.keys,key_resp_3.rt,key_resp_2.keys,key_resp_2.corr,key_resp_2.rt,date,frameRate,expName,session,participant,
logos/2.jpg,properties2.xlsx,frogs/ab38.jpg,0,0,400,l,0,0,0,1,0,0,0,37,space,12.4427474614,['l'],0,[1.8342571416505962],2018_Jul_09_0712,60.1659533794,go-nogo,001,vova,
logos/2.jpg,properties2.xlsx,frogs/ab11.jpg,0,0,400,l,0,0,0,1,0,1,1,10,,,['l'],0,[0.3345625985894003],2018_Jul_09_0712,60.1659533794,go-nogo,001,vova,
logos/2.jpg,properties2.xlsx,frogs/ab33.jpg,0,0,400,l,0,0,0,1,0,2,2,32,,,['l'],0,[0.21800120933767175],2018_Jul_09_0712,60.1659533794,go-nogo,001,vova,
logos/2.jpg,properties2.xlsx,frogs/ab37.jpg,0,0,400,l,0,0,0,1,0,3,3,36,,,['l'],0,[0.05164118960965425],2018_Jul_09_0712,60.1659533794,go-nogo,001,vova,
logos/2.jpg,properties2.xlsx,logos/2.jpg,0,0,400,a,0,0,0,1,0,4,4,83,,,['a'],0,[0.06778957608912606],2018_Jul_09_0712,60.1659533794,go-nogo,001,vova,
logos/2.jpg,properties2.xlsx,logos/2.jpg,0,0,400,a,0,0,0,1,0,5,5,82,,,['a'],0,[0.30120063099457184],2018_Jul_09_0712,60.1659533794,go-nogo,001,vova,
logos/2.jpg,properties2.xlsx,frogs/ab71.jpg,0,0,400,l,0,0,0,1,0,6,6,69,,,['l'],0,[3.3836632967431797],2018_Jul_09_0712,60.1659533794,go-nogo,001,vova,
logos/2.jpg,properties2.xlsx,frogs/ab6.jpg,0,0,400,l,0,0,0,1,0,7,7,5,,,['l'],0,[0.5353319306232152],2018_Jul_09_0712,60.1659533794,go-nogo,001,vova,
logos/2.jpg,properties2.xlsx,frogs/ab22.jpg,0,0,400,l,0,0,0,1,0,8,8,21,,,['l'],0,[0.25135871444945224],2018_Jul_09_0712,60.1659533794,go-nogo,001,vova,
logos/2.jpg,properties2.xlsx,frogs/ab19.jpg,0,0,400,l,0,0,0,1,0,9,9,18,,,['l'],0,[0.1182990800589323],2018_Jul_09_0712,60.1659533794,go-nogo,001,vova,
logos/2.jpg,properties2.xlsx,frogs/ab56.jpg,0,0,400,l,0,0,0,1,0,10,10,55,,,['l'],0,[0.26041353827895364],2018_Jul_09_0712,60.1659533794,go-nogo,001,vova,
logos/2.jpg,properties2.xlsx,frogs/ab7.jpg,0,0,400,l,0,0,0,1,0,11,11,6,,,['l'],0,[0.5013046068415861],2018_Jul_09_0712,60.1659533794,go-nogo,001,vova,
logos/2.jpg,properties2.xlsx,frogs/ab67.jpg,0,0,400,l,0,0,0,1,0,12,12,65,,,['l'],0,[0.43460253781086067],2018_Jul_09_0712,60.1659533794,go-nogo,001,vova,
logos/2.jpg,properties2.xlsx,frogs/ab55.jpg,0,0,400,l,0,0,0,1,0,13,13,54,,,['l'],0,[0.034376289942883886],2018_Jul_09_0712,60.1659533794,go-nogo,001,vova,
logos/2.jpg,properties2.xlsx,frogs/ab43.jpg,0,0,400,l,0,0,0,1,0,14,14,42,,,['l'],0,[0.16780631039728178],2018_Jul_09_0712,60.1659533794,go-nogo,001,vova,
logos/2.jpg,properties2.xlsx,frogs/ab16.jpg,0,0,400,l,0,0,0,1,0,15,15,15,,,['l'],0,[0.10124079334491398],2018_Jul_09_0712,60.1659533794,go-nogo,001,vova,
logos/2.jpg,properties2.xlsx,frogs/ab14.jpg,0,0,400,l,0,0,0,1,0,16,16,13,,,['l'],0,[0.06784401837649057],2018_Jul_09_0712,60.1659533794,go-nogo,001,vova,
logos/2.jpg,properties2.xlsx,frogs/ab32.jpg,0,0,400,l,0,0,0,1,0,17,17,31,,,['l'],0,[0.1345358237012988],2018_Jul_09_0712,60.1659533794,go-nogo,001,vova,
logos/2.jpg,properties2.xlsx,frogs/ab58.jpg,0,0,400,l,0,0,0,1,0,18,18,57,,,['l'],0,[0.28466445476806257],2018_Jul_09_0712,60.1659533794,go-nogo,001,vova,
logos/2.jpg,properties2.xlsx,frogs/ab63.jpg,0,0,400,l,0,0,0,1,0,19,19,61,,,['l'],0,[0.0678623145504389],2018_Jul_09_0712,60.1659533794,go-nogo,001,vova,
logos/2.jpg,properties2.xlsx,frogs/ab40.jpg,0,0,400,l,0,0,0,1,0,20,20,39,,,['l'],0,[0.13458624974737177],2018_Jul_09_0712,60.1659533794,go-nogo,001,vova,
logos/2.jpg,properties2.xlsx,logos/2.jpg,0,0,400,a,0,0,0,1,0,21,21,88,,,['a'],0,[0.017724981647916138],2018_Jul_09_0712,60.1659533794,go-nogo,001,vova,
logos/2.jpg,properties2.xlsx,frogs/ab72.jpg,0,0,400,l,0,0,0,1,0,22,22,70,,,['l'],0,[0.4337390473956475],2018_Jul_09_0712,60.1659533794,go-nogo,001,vova,
logos/2.jpg,properties2.xlsx,frogs/ab65.jpg,0,0,400,l,0,0,0,1,0,23,23,63,,,['l'],0,[0.18472983013634803],2018_Jul_09_0712,60.1659533794,go-nogo,001,vova,
logos/2.jpg,properties2.xlsx,frogs/ab61.jpg,0,0,400,l,0,0,0,1,0,24,24,59,,,['l'],0,[0.11789834910450736],2018_Jul_09_0712,60.1659533794,go-nogo,001,vova,
logos/2.jpg,properties2.xlsx,logos/2.jpg,0,0,400,a,0,0,0,1,0,25,25,85,,,['a'],0,[0.03429998147475999],2018_Jul_09_0712,60.1659533794,go-nogo,001,vova,
logos/2.jpg,properties2.xlsx,logos/2.jpg,0,0,400,a,0,0,0,1,0,26,26,80,,,['a'],0,[0.31792289275472285],2018_Jul_09_0712,60.1659533794,go-nogo,001,vova,
logos/2.jpg,properties2.xlsx,frogs/ab23.jpg,0,0,400,l,0,0,0,1,0,27,27,22,,,['l'],0,[0.5678080953948665],2018_Jul_09_0712,60.1659533794,go-nogo,001,vova,
logos/2.jpg,properties2.xlsx,frogs/ab68.jpg,0,0,400,l,0,0,0,1,0,28,28,66,,,['l'],0,[0.10118322730704676],2018_Jul_09_0712,60.1659533794,go-nogo,001,vova,
logos/2.jpg,properties2.xlsx,frogs/ab79.jpg,0,0,400,l,0,0,0,1,0,29,29,77,,,['l'],0,[0.11822455659421394],2018_Jul_09_0712,60.1659533794,go-nogo,001,vova,
logos/2.jpg,properties2.xlsx,frogs/ab57.jpg,0,0,400,l,0,0,0,1,0,30,30,56,,,['l'],0,[0.18466557038482279],2018_Jul_09_0712,60.1659533794,go-nogo,001,vova,
logos/2.jpg,properties2.xlsx,frogs/ab42.jpg,0,0,400,l,0,0,0,1,0,31,31,41,,,['l'],0,[0.2846068887374713],2018_Jul_09_0712,60.1659533794,go-nogo,001,vova,
logos/2.jpg,properties2.xlsx,frogs/ab28.jpg,0,0,400,l,0,0,0,1,0,32,32,27,,,['l'],0,[0.21797131069615716],2018_Jul_09_0712,60.1659533794,go-nogo,001,vova,
logos/2.jpg,properties2.xlsx,frogs/ab45.jpg,0,0,400,l,0,0,0,1,0,33,33,44,,,['l'],0,[0.1346487245100434],2018_Jul_09_0712,60.1659533794,go-nogo,001,vova,
logos/2.jpg,properties2.xlsx,frogs/ab73.jpg,0,0,400,l,0,0,0,1,0,34,34,71,,,['l'],0,[0.11803802481881576],2018_Jul_09_0712,60.1659533794,go-nogo,001,vova,
logos/2.jpg,properties2.xlsx,frogs/ab51.jpg,0,0,400,l,0,0,0,1,0,35,35,50,,,['l'],0,[0.11800723367923638],2018_Jul_09_0712,60.1659533794,go-nogo,001,vova,
logos/2.jpg,properties2.xlsx,frogs/ab29.jpg,0,0,400,l,0,0,0,1,0,36,36,28,,,['l'],0,[0.0512235012211022],2018_Jul_09_0712,60.1659533794,go-nogo,001,vova,
logos/2.jpg,properties2.xlsx,frogs/ab31.jpg,0,0,400,l,0,0,0,1,0,37,37,30,,,['l'],0,[0.01774283158010803],2018_Jul_09_0712,60.1659533794,go-nogo,001,vova,
logos/2.jpg,properties2.xlsx,frogs/ab69.jpg,0,0,400,l,0,0,0,1,0,38,38,67,,,['l'],0,[0.2350371836364502],2018_Jul_09_0712,60.1659533794,go-nogo,001,vova,
logos/2.jpg,properties2.xlsx,frogs/ab39.jpg,0,0,400,l,0,0,0,1,0,39,39,38,,,['l'],0,[0.8677293325672508],2018_Jul_09_0712,60.1659533794,go-nogo,001,vova,
logos/2.jpg,properties2.xlsx,frogs/ab24.jpg,0,0,400,l,0,0,0,1,0,40,40,23,,,['l'],0,[0.05118378512270283],2018_Jul_09_0712,60.1659533794,go-nogo,001,vova,
logos/2.jpg,properties2.xlsx,frogs/ab44.jpg,0,0,400,l,0,0,0,1,0,41,41,43,,,['l'],0,[0.18392747572943335],2018_Jul_09_0712,60.1659533794,go-nogo,001,vova,
logos/2.jpg,properties2.xlsx,logos/2.jpg,0,0,400,a,0,0,0,1,0,42,42,89,,,['a'],0,[0.41792891711520497],2018_Jul_09_0712,60.1659533794,go-nogo,001,vova,
logos/2.jpg,properties2.xlsx,frogs/ab5.jpg,0,0,400,l,0,0,0,1,0,43,43,4,,,['l'],0,[0.23461503276485018],2018_Jul_09_0712,60.1659533794,go-nogo,001,vova,
logos/2.jpg,properties2.xlsx,frogs/ab12.jpg,0,0,400,l,0,0,0,1,0,44,44,11,,,['l'],0,[0.26782750718848547],2018_Jul_09_0712,60.1659533794,go-nogo,001,vova,
logos/2.jpg,properties2.xlsx,frogs/ab48.jpg,0,0,400,l,0,0,0,1,0,45,45,47,,,['l'],0,[6.965742858352314],2018_Jul_09_0712,60.1659533794,go-nogo,001,vova,
logos/2.jpg,properties2.xlsx,frogs/ab3.jpg,0,0,400,l,0,0,0,1,0,46,46,2,,,['l'],0,[0.7676777908927761],2018_Jul_09_0712,60.1659533794,go-nogo,001,vova,
logos/2.jpg,properties2.xlsx,frogs/ab34.jpg,0,0,400,l,0,0,0,1,0,47,47,33,,,['l'],0,[1.783972100558458],2018_Jul_09_0712,60.1659533794,go-nogo,001,vova,
logos/2.jpg,properties2.xlsx,frogs/ab9.jpg,0,0,400,l,0,0,0,1,0,48,48,8,,,['l'],0,[3.2659461244475096],2018_Jul_09_0712,60.1659533794,go-nogo,001,vova,
logos/2.jpg,properties2.xlsx,logos/2.jpg,0,0,400,a,0,0,0,1,0,49,49,87,,,['a'],0,[0.08366664360801224],2018_Jul_09_0712,60.1659533794,go-nogo,001,vova,
logos/2.jpg,properties2.xlsx,frogs/ab36.jpg,0,0,400,l,0,0,0,1,0,50,50,35,,,['l'],0,[0.06818584456050303],2018_Jul_09_0712,60.1659533794,go-nogo,001,vova,
logos/2.jpg,properties2.xlsx,frogs/ab53.jpg,0,0,400,l,0,0,0,1,0,51,51,52,,,['a'],0,[0.40098263871186646],2018_Jul_09_0712,60.1659533794,go-nogo,001,vova,
logos/2.jpg,properties2.xlsx,frogs/ab81.jpg,0,0,400,l,0,0,0,1,0,52,52,79,,,['l'],0,[0.5683110171958106],2018_Jul_09_0712,60.1659533794,go-nogo,001,vova,
logos/2.jpg,properties2.xlsx,frogs/ab4.jpg,0,0,400,l,0,0,0,1,0,53,53,3,,,['l'],0,[0.2669720492340275],2018_Jul_09_0712,60.1659533794,go-nogo,001,vova,
logos/2.jpg,properties2.xlsx,frogs/ab17.jpg,0,0,400,l,0,0,0,1,0,54,54,16,,,['l'],0,[0.16729267862683628],2018_Jul_09_0712,60.1659533794,go-nogo,001,vova,
logos/2.jpg,properties2.xlsx,frogs/ab76.jpg,0,0,400,l,0,0,0,1,0,55,55,74,,,['l'],0,[0.18381546741147758],2018_Jul_09_0712,60.1659533794,go-nogo,001,vova,
logos/2.jpg,properties2.xlsx,frogs/ab21.jpg,0,0,400,l,0,0,0,1,0,56,56,20,,,['l'],0,[0.2346667975652963],2018_Jul_09_0712,60.1659533794,go-nogo,001,vova,
logos/2.jpg,properties2.xlsx,frogs/ab47.jpg,0,0,400,l,0,0,0,1,0,57,57,46,,,['l'],0,[0.7995457192519098],2018_Jul_09_0712,60.1659533794,go-nogo,001,vova,
logos/2.jpg,properties2.xlsx,frogs/ab54.jpg,0,0,400,l,0,0,0,1,0,58,58,53,,,['l'],0,[0.3179099515618873],2018_Jul_09_0712,60.1659533794,go-nogo,001,vova,
logos/2.jpg,properties2.xlsx,frogs/ab26.jpg,0,0,400,l,0,0,0,1,0,59,59,25,,,['l'],0,[0.401130346894206],2018_Jul_09_0712,60.1659533794,go-nogo,001,vova,
logos/2.jpg,properties2.xlsx,frogs/ab30.jpg,0,0,400,l,0,0,0,1,0,60,60,29,,,['l'],0,[0.9675202652506414],2018_Jul_09_0712,60.1659533794,go-nogo,001,vova,
logos/2.jpg,properties2.xlsx,frogs/ab80.jpg,0,0,400,l,0,0,0,1,0,61,61,78,,,['l'],0,[0.167735803166579],2018_Jul_09_0712,60.1659533794,go-nogo,001,vova,
logos/2.jpg,properties2.xlsx,frogs/ab8.jpg,0,0,400,l,0,0,0,1,0,62,62,7,,,['l'],0,[0.2845636026468128],2018_Jul_09_0712,60.1659533794,go-nogo,001,vova,
logos/2.jpg,properties2.xlsx,frogs/ab70.jpg,0,0,400,l,0,0,0,1,0,63,63,68,,,['l'],0,[0.2845055903744651],2018_Jul_09_0712,60.1659533794,go-nogo,001,vova,
logos/2.jpg,properties2.xlsx,logos/2.jpg,0,0,400,a,0,0,0,1,0,64,64,86,,,['a'],0,[0.06769586394511862],2018_Jul_09_0712,60.1659533794,go-nogo,001,vova,
logos/2.jpg,properties2.xlsx,frogs/ab15.jpg,0,0,400,l,0,0,0,1,0,65,65,14,,,['l'],0,[0.6011062494872021],2018_Jul_09_0712,60.1659533794,go-nogo,001,vova,
logos/2.jpg,properties2.xlsx,frogs/ab66.jpg,0,0,400,l,0,0,0,1,0,66,66,64,,,['l'],0,[0.20100985985482112],2018_Jul_09_0712,60.1659533794,go-nogo,001,vova,
logos/2.jpg,properties2.xlsx,frogs/ab78.jpg,0,0,400,l,0,0,0,1,0,67,67,76,,,['l'],0,[0.13447245644056238],2018_Jul_09_0712,60.1659533794,go-nogo,001,vova,
logos/2.jpg,properties2.xlsx,frogs/ab52.jpg,0,0,400,l,0,0,0,1,0,68,68,51,,,['l'],0,[0.16912631280138157],2018_Jul_09_0712,60.1659533794,go-nogo,001,vova,
logos/2.jpg,properties2.xlsx,frogs/ab77.jpg,0,0,400,l,0,0,0,1,0,69,69,75,,,['l'],0,[0.15129467781662242],2018_Jul_09_0712,60.1659533794,go-nogo,001,vova,
logos/2.jpg,properties2.xlsx,frogs/ab74.jpg,0,0,400,l,0,0,0,1,0,70,70,72,,,['l'],0,[0.2022174076992087],2018_Jul_09_0712,60.1659533794,go-nogo,001,vova,
logos/2.jpg,properties2.xlsx,frogs/ab18.jpg,0,0,400,l,0,0,0,1,0,71,71,17,,,['l'],0,[0.13583306744112633],2018_Jul_09_0712,60.1659533794,go-nogo,001,vova,
logos/2.jpg,properties2.xlsx,frogs/ab41.jpg,0,0,400,l,0,0,0,1,0,72,72,40,,,['l'],0,[0.15116124958149157],2018_Jul_09_0712,60.1659533794,go-nogo,001,vova,
logos/2.jpg,properties2.xlsx,frogs/ab20.jpg,0,0,400,l,0,0,0,1,0,73,73,19,,,['l'],0,[0.11926743882213486],2018_Jul_09_0712,60.1659533794,go-nogo,001,vova,
logos/2.jpg,properties2.xlsx,frogs/ab1.jpg,0,0,400,l,0,0,0,1,0,74,74,0,,,['l'],0,[0.051447517857013736],2018_Jul_09_0712,60.1659533794,go-nogo,001,vova,
logos/2.jpg,properties2.xlsx,frogs/ab50.jpg,0,0,400,l,0,0,0,1,0,75,75,49,,,['l'],0,[0.06679533491842449],2018_Jul_09_0712,60.1659533794,go-nogo,001,vova,
logos/2.jpg,properties2.xlsx,frogs/ab75.jpg,0,0,400,l,0,0,0,1,0,76,76,73,,,['l'],0,[0.01793739583081333],2018_Jul_09_0712,60.1659533794,go-nogo,001,vova,
logos/2.jpg,properties2.xlsx,frogs/ab10.jpg,0,0,400,l,0,0,0,1,0,77,77,9,,,['l'],0,[0.017780762682377826],2018_Jul_09_0712,60.1659533794,go-nogo,001,vova,
logos/2.jpg,properties2.xlsx,frogs/ab25.jpg,0,0,400,l,0,0,0,1,0,78,78,24,,,['l'],0,[0.08458011384209385],2018_Jul_09_0712,60.1659533794,go-nogo,001,vova,
logos/2.jpg,properties2.xlsx,frogs/ab27.jpg,0,0,400,l,0,0,0,1,0,79,79,26,,,['l'],0,[0.448746377020143],2018_Jul_09_0712,60.1659533794,go-nogo,001,vova,
logos/2.jpg,properties2.xlsx,frogs/ab64.jpg,0,0,400,l,0,0,0,1,0,80,80,62,,,['l'],0,[0.5512674566780333],2018_Jul_09_0712,60.1659533794,go-nogo,001,vova,
logos/2.jpg,properties2.xlsx,frogs/ab46.jpg,0,0,400,l,0,0,0,1,0,81,81,45,,,['l'],0,[0.10114797369897133],2018_Jul_09_0712,60.1659533794,go-nogo,001,vova,
logos/2.jpg,properties2.xlsx,logos/2.jpg,0,0,400,a,0,0,0,1,0,82,82,81,,,['a'],0,[0.16726545747951604],2018_Jul_09_0712,60.1659533794,go-nogo,001,vova,
logos/2.jpg,properties2.xlsx,logos/2.jpg,0,0,400,a,0,0,0,1,0,83,83,84,,,['l'],0,[0.43446464709268184],2018_Jul_09_0712,60.1659533794,go-nogo,001,vova,
logos/2.jpg,properties2.xlsx,frogs/ab35.jpg,0,0,400,l,0,0,0,1,0,84,84,34,,,['l'],0,[0.2011446268297732],2018_Jul_09_0712,60.1659533794,go-nogo,001,vova,
logos/2.jpg,properties2.xlsx,frogs/ab49.jpg,0,0,400,l,0,0,0,1,0,85,85,48,,,['l'],0,[0.2512859759735875],2018_Jul_09_0712,60.1659533794,go-nogo,001,vova,
logos/2.jpg,properties2.xlsx,frogs/ab13.jpg,0,0,400,l,0,0,0,1,0,86,86,12,,,['l'],0,[0.2844511480871006],2018_Jul_09_0712,60.1659533794,go-nogo,001,vova,
logos/2.jpg,properties2.xlsx,frogs/ab2.jpg,0,0,400,l,0,0,0,1,0,87,87,1,,,['l'],0,[0.9912280975768226],2018_Jul_09_0712,60.1659533794,go-nogo,001,vova,
logos/2.jpg,properties2.xlsx,frogs/ab60.jpg,0,0,400,l,0,0,0,1,0,88,88,58,,,['l'],0,[0.28394153255067067],2018_Jul_09_0712,60.1659533794,go-nogo,001,vova,
logos/2.jpg,properties2.xlsx,frogs/ab62.jpg,0,0,400,l,0,0,0,1,0,89,89,60,,,['l'],0,[0.2679805703519378],2018_Jul_09_0712,60.1659533794,go-nogo,001,vova,
logos/2.jpg,properties2.xlsx,,,,,,0,0,0,1,,,,,,,,,,2018_Jul_09_0712,60.1659533794,go-nogo,001,vova,
logos/1.jpg,properties1.xlsx,frogs/ab60.jpg,0,0,400,l,0,1,1,0,0,0,0,58,space,7.32940932347,['l'],0,[0.9849824066623114],2018_Jul_09_0712,60.1659533794,go-nogo,001,vova,
logos/1.jpg,properties1.xlsx,logos/1.jpg,0,0,400,a,0,1,1,0,0,1,1,88,,,['a'],0,[0.43423349048680393],2018_Jul_09_0712,60.1659533794,go-nogo,001,vova,
logos/1.jpg,properties1.xlsx,frogs/ab79.jpg,0,0,400,l,0,1,1,0,0,2,2,77,,,['l'],0,[2.733414848022221],2018_Jul_09_0712,60.1659533794,go-nogo,001,vova,
logos/1.jpg,properties1.xlsx,frogs/ab6.jpg,0,0,400,l,0,1,1,0,0,3,3,5,,,['l'],0,[0.23476006346027134],2018_Jul_09_0712,60.1659533794,go-nogo,001,vova,
logos/1.jpg,properties1.xlsx,frogs/ab35.jpg,0,0,400,l,0,1,1,0,0,4,4,34,,,['l'],0,[0.10109665514755761],2018_Jul_09_0712,60.1659533794,go-nogo,001,vova,
logos/1.jpg,properties1.xlsx,logos/1.jpg,0,0,400,a,0,1,1,0,0,5,5,85,,,['a'],0,[0.16784513399761636],2018_Jul_09_0712,60.1659533794,go-nogo,001,vova,
logos/1.jpg,properties1.xlsx,frogs/ab19.jpg,0,0,400,l,0,1,1,0,0,6,6,18,,,['l'],0,[0.6844105394920916],2018_Jul_09_0712,60.1659533794,go-nogo,001,vova,
logos/1.jpg,properties1.xlsx,frogs/ab39.jpg,0,0,400,l,0,1,1,0,0,7,7,38,,,['l'],0,[0.06777886612690054],2018_Jul_09_0712,60.1659533794,go-nogo,001,vova,
logos/1.jpg,properties1.xlsx,frogs/ab66.jpg,0,0,400,l,0,1,1,0,0,8,8,64,,,['l'],0,[0.06802207144210115],2018_Jul_09_0712,60.1659533794,go-nogo,001,vova,
logos/1.jpg,properties1.xlsx,frogs/ab22.jpg,0,0,400,l,0,1,1,0,0,9,9,21,,,['l'],0,[0.10124436332262121],2018_Jul_09_0712,60.1659533794,go-nogo,001,vova,
logos/1.jpg,properties1.xlsx,frogs/ab27.jpg,0,0,400,l,0,1,1,0,0,10,10,26,,,['l'],0,[0.1846267467844882],2018_Jul_09_0712,60.1659533794,go-nogo,001,vova,
logos/1.jpg,properties1.xlsx,frogs/ab3.jpg,0,0,400,l,0,1,1,0,0,11,11,2,,,['l'],0,[0.8012044241040712],2018_Jul_09_0712,60.1659533794,go-nogo,001,vova,
logos/1.jpg,properties1.xlsx,frogs/ab25.jpg,0,0,400,l,0,1,1,0,0,12,12,24,,,['l'],0,[0.26791988058539573],2018_Jul_09_0712,60.1659533794,go-nogo,001,vova,
logos/1.jpg,properties1.xlsx,frogs/ab34.jpg,0,0,400,l,0,1,1,0,0,13,13,33,,,['l'],0,[0.16802898828609614],2018_Jul_09_0712,60.1659533794,go-nogo,001,vova,
logos/1.jpg,properties1.xlsx,frogs/ab45.jpg,0,0,400,l,0,1,1,0,0,14,14,44,,,['l'],0,[0.46777663488319376],2018_Jul_09_0712,60.1659533794,go-nogo,001,vova,
logos/1.jpg,properties1.xlsx,frogs/ab31.jpg,0,0,400,l,0,1,1,0,0,15,15,30,,,['l'],0,[0.33472637171507813],2018_Jul_09_0712,60.1659533794,go-nogo,001,vova,
logos/1.jpg,properties1.xlsx,frogs/ab41.jpg,0,0,400,l,0,1,1,0,0,16,16,40,,,['l'],0,[0.13431537704309449],2018_Jul_09_0712,60.1659533794,go-nogo,001,vova,
logos/1.jpg,properties1.xlsx,frogs/ab49.jpg,0,0,400,l,0,1,1,0,0,17,17,48,,,['l'],0,[0.05112175661633955],2018_Jul_09_0712,60.1659533794,go-nogo,001,vova,
logos/1.jpg,properties1.xlsx,frogs/ab76.jpg,0,0,400,l,0,1,1,0,0,18,18,74,,,['l'],0,[0.0009893324313452467],2018_Jul_09_0712,60.1659533794,go-nogo,001,vova,
logos/1.jpg,properties1.xlsx,frogs/ab65.jpg,0,0,400,l,0,1,1,0,0,19,19,63,,,['l'],0,[0.26795513419347117],2018_Jul_09_0712,60.1659533794,go-nogo,001,vova,
logos/1.jpg,properties1.xlsx,frogs/ab14.jpg,0,0,400,l,0,1,1,0,0,20,20,13,,,['l'],0,[0.6012075478429324],2018_Jul_09_0712,60.1659533794,go-nogo,001,vova,
logos/1.jpg,properties1.xlsx,frogs/ab77.jpg,0,0,400,l,0,1,1,0,0,21,21,75,,,['l'],0,[0.05103696943842806],2018_Jul_09_0712,60.1659533794,go-nogo,001,vova,
logos/1.jpg,properties1.xlsx,frogs/ab78.jpg,0,0,400,l,0,1,1,0,0,22,22,76,,,['l'],0,[0.3509439266708796],2018_Jul_09_0712,60.1659533794,go-nogo,001,vova,
logos/1.jpg,properties1.xlsx,frogs/ab21.jpg,0,0,400,l,0,1,1,0,0,23,23,20,,,['l'],0,[0.13477545902424026],2018_Jul_09_0712,60.1659533794,go-nogo,001,vova,
logos/1.jpg,properties1.xlsx,frogs/ab62.jpg,0,0,400,l,0,1,1,0,0,24,24,60,,,['l'],0,[0.03445125964935869],2018_Jul_09_0712,60.1659533794,go-nogo,001,vova,
logos/1.jpg,properties1.xlsx,frogs/ab13.jpg,0,0,400,l,0,1,1,0,0,25,25,12,,,['l'],0,[0.01708595411037095],2018_Jul_09_0712,60.1659533794,go-nogo,001,vova,
logos/1.jpg,properties1.xlsx,frogs/ab32.jpg,0,0,400,l,0,1,1,0,0,26,26,31,,,['l'],0,[0.15076319611398503],2018_Jul_09_0712,60.1659533794,go-nogo,001,vova,
logos/1.jpg,properties1.xlsx,frogs/ab54.jpg,0,0,400,l,0,1,1,0,0,27,27,53,,,['l'],0,[0.7510929736017715],2018_Jul_09_0712,60.1659533794,go-nogo,001,vova,
logos/1.jpg,properties1.xlsx,logos/1.jpg,0,0,400,a,0,1,1,0,0,28,28,83,,,['l'],0,[0.0841798291367013],2018_Jul_09_0712,60.1659533794,go-nogo,001,vova,
logos/1.jpg,properties1.xlsx,frogs/ab63.jpg,0,0,400,l,0,1,1,0,0,29,29,61,,,['l'],0,[0.18381368242262397],2018_Jul_09_0712,60.1659533794,go-nogo,001,vova,
logos/1.jpg,properties1.xlsx,frogs/ab42.jpg,0,0,400,l,0,1,1,0,0,30,30,41,,,['l'],0,[0.4838714715660899],2018_Jul_09_0712,60.1659533794,go-nogo,001,vova,
logos/1.jpg,properties1.xlsx,frogs/ab37.jpg,0,0,400,l,0,1,1,0,0,31,31,36,,,['l'],0,[0.15128307536360808],2018_Jul_09_0712,60.1659533794,go-nogo,001,vova,
logos/1.jpg,properties1.xlsx,frogs/ab52.jpg,0,0,400,l,0,1,1,0,0,32,32,51,,,['l'],0,[0.1013813615500112],2018_Jul_09_0712,60.1659533794,go-nogo,001,vova,
logos/1.jpg,properties1.xlsx,frogs/ab47.jpg,0,0,400,l,0,1,1,0,0,33,33,46,,,['l'],0,[0.24789582780067576],2018_Jul_09_0712,60.1659533794,go-nogo,001,vova,
logos/1.jpg,properties1.xlsx,frogs/ab11.jpg,0,0,400,l,0,1,1,0,0,34,34,10,,,['l'],0,[0.9842728718940634],2018_Jul_09_0712,60.1659533794,go-nogo,001,vova,
logos/1.jpg,properties1.xlsx,frogs/ab57.jpg,0,0,400,l,0,1,1,0,0,35,35,56,,,['l'],0,[0.3842523444764083],2018_Jul_09_0712,60.1659533794,go-nogo,001,vova,
logos/1.jpg,properties1.xlsx,frogs/ab38.jpg,0,0,400,l,0,1,1,0,0,36,36,37,,,['l'],0,[0.3193611509632319],2018_Jul_09_0712,60.1659533794,go-nogo,001,vova,
logos/1.jpg,properties1.xlsx,frogs/ab4.jpg,0,0,400,l,0,1,1,0,0,37,37,3,,,['l'],0,[0.26795067171769915],2018_Jul_09_0712,60.1659533794,go-nogo,001,vova,
logos/1.jpg,properties1.xlsx,frogs/ab73.jpg,0,0,400,l,0,1,1,0,0,38,38,71,,,['l'],0,[0.11790058034239337],2018_Jul_09_0712,60.1659533794,go-nogo,001,vova,
logos/1.jpg,properties1.xlsx,frogs/ab56.jpg,0,0,400,l,0,1,1,0,0,39,39,55,,,['l'],0,[0.4415104611762217],2018_Jul_09_0712,60.1659533794,go-nogo,001,vova,
logos/1.jpg,properties1.xlsx,frogs/ab33.jpg,0,0,400,l,0,1,1,0,0,40,40,32,,,['l'],0,[0.41715155261044856],2018_Jul_09_0712,60.1659533794,go-nogo,001,vova,
logos/1.jpg,properties1.xlsx,frogs/ab30.jpg,0,0,400,l,0,1,1,0,0,41,41,29,,,['l'],0,[0.13462953583803028],2018_Jul_09_0712,60.1659533794,go-nogo,001,vova,
logos/1.jpg,properties1.xlsx,frogs/ab75.jpg,0,0,400,l,0,1,1,0,0,42,42,73,,,['l'],0,[0.11758017408283195],2018_Jul_09_0712,60.1659533794,go-nogo,001,vova,
logos/1.jpg,properties1.xlsx,frogs/ab81.jpg,0,0,400,l,0,1,1,0,0,43,43,79,,,['l'],0,[0.16720833770523313],2018_Jul_09_0712,60.1659533794,go-nogo,001,vova,
logos/1.jpg,properties1.xlsx,frogs/ab69.jpg,0,0,400,l,0,1,1,0,0,44,44,67,,,['l'],0,[0.13457866353564896],2018_Jul_09_0712,60.1659533794,go-nogo,001,vova,
logos/1.jpg,properties1.xlsx,frogs/ab1.jpg,0,0,400,l,0,1,1,0,0,45,45,0,,,['l'],0,[0.21712076147377957],2018_Jul_09_0712,60.1659533794,go-nogo,001,vova,
logos/1.jpg,properties1.xlsx,logos/1.jpg,0,0,400,a,0,1,1,0,0,46,46,82,,,['a'],0,[0.28456538764294237],2018_Jul_09_0712,60.1659533794,go-nogo,001,vova,
logos/1.jpg,properties1.xlsx,logos/1.jpg,0,0,400,a,0,1,1,0,0,47,47,81,,,['l'],0,[0.15128396786167286],2018_Jul_09_0712,60.1659533794,go-nogo,001,vova,
logos/1.jpg,properties1.xlsx,logos/1.jpg,0,0,400,a,0,1,1,0,0,48,48,84,,,['l'],0,[0.5344563914986793],2018_Jul_09_0712,60.1659533794,go-nogo,001,vova,
logos/1.jpg,properties1.xlsx,frogs/ab12.jpg,0,0,400,l,0,1,1,0,0,49,49,11,,,['a'],0,[0.0010366347487433814],2018_Jul_09_0712,60.1659533794,go-nogo,001,vova,
logos/1.jpg,properties1.xlsx,frogs/ab43.jpg,0,0,400,l,0,1,1,0,0,50,50,42,,,['l'],0,[0.7836936416279059],2018_Jul_09_0712,60.1659533794,go-nogo,001,vova,
logos/1.jpg,properties1.xlsx,logos/1.jpg,0,0,400,a,0,1,1,0,0,51,51,87,,,['l'],0,[0.1679442011154606],2018_Jul_09_0712,60.1659533794,go-nogo,001,vova,
logos/1.jpg,properties1.xlsx,frogs/ab70.jpg,0,0,400,l,0,1,1,0,0,52,52,68,,,['l'],0,[1.4508415126911132],2018_Jul_09_0712,60.1659533794,go-nogo,001,vova,
logos/1.jpg,properties1.xlsx,frogs/ab18.jpg,0,0,400,l,0,1,1,0,0,53,53,17,,,['l'],0,[0.3514004386597662],2018_Jul_09_0712,60.1659533794,go-nogo,001,vova,
logos/1.jpg,properties1.xlsx,frogs/ab16.jpg,0,0,400,l,0,1,1,0,0,54,54,15,,,['l'],0,[0.21789232475566678],2018_Jul_09_0712,60.1659533794,go-nogo,001,vova,
logos/1.jpg,properties1.xlsx,frogs/ab8.jpg,0,0,400,l,0,1,1,0,0,55,55,7,,,['l'],0,[0.05105883560463553],2018_Jul_09_0712,60.1659533794,go-nogo,001,vova,
logos/1.jpg,properties1.xlsx,frogs/ab36.jpg,0,0,400,l,0,1,1,0,0,56,56,35,,,['l'],0,[0.16787414014106616],2018_Jul_09_0712,60.1659533794,go-nogo,001,vova,
logos/1.jpg,properties1.xlsx,frogs/ab46.jpg,0,0,400,l,0,1,1,0,0,57,57,45,,,['l'],0,[0.13393338851892622],2018_Jul_09_0712,60.1659533794,go-nogo,001,vova,
logos/1.jpg,properties1.xlsx,frogs/ab61.jpg,0,0,400,l,0,1,1,0,0,58,58,59,,,['l'],0,[0.13463846079685027],2018_Jul_09_0712,60.1659533794,go-nogo,001,vova,
logos/1.jpg,properties1.xlsx,logos/1.jpg,0,0,400,a,0,1,1,0,0,59,59,86,,,['a'],0,[0.3013121930707712],2018_Jul_09_0712,60.1659533794,go-nogo,001,vova,
logos/1.jpg,properties1.xlsx,frogs/ab53.jpg,0,0,400,l,0,1,1,0,0,60,60,52,,,['l'],0,[0.4011852354306029],2018_Jul_09_0712,60.1659533794,go-nogo,001,vova,
logos/1.jpg,properties1.xlsx,frogs/ab9.jpg,0,0,400,l,0,1,1,0,0,61,61,8,,,['l'],0,[0.41765447441866854],2018_Jul_09_0712,60.1659533794,go-nogo,001,vova,
logos/1.jpg,properties1.xlsx,frogs/ab80.jpg,0,0,400,l,0,1,1,0,0,62,62,78,,,['l'],0,[0.23451507314894116],2018_Jul_09_0712,60.1659533794,go-nogo,001,vova,
logos/1.jpg,properties1.xlsx,frogs/ab23.jpg,0,0,400,l,0,1,1,0,0,63,63,22,,,['l'],0,[0.21784680742712226],2018_Jul_09_0712,60.1659533794,go-nogo,001,vova,
logos/1.jpg,properties1.xlsx,frogs/ab20.jpg,0,0,400,l,0,1,1,0,0,64,64,19,,,['l'],0,[0.1511724057927495],2018_Jul_09_0712,60.1659533794,go-nogo,001,vova,
logos/1.jpg,properties1.xlsx,frogs/ab5.jpg,0,0,400,l,0,1,1,0,0,65,65,4,,,['l'],0,[0.3012724769723718],2018_Jul_09_0712,60.1659533794,go-nogo,001,vova,
logos/1.jpg,properties1.xlsx,logos/1.jpg,0,0,400,a,0,1,1,0,0,66,66,80,,,['a'],0,[0.26777886612399016],2018_Jul_09_0712,60.1659533794,go-nogo,001,vova,
logos/1.jpg,properties1.xlsx,logos/1.jpg,0,0,400,a,0,1,1,0,0,67,67,89,,,['a'],0,[0.584338916640263],2018_Jul_09_0712,60.1659533794,go-nogo,001,vova,
logos/1.jpg,properties1.xlsx,frogs/ab17.jpg,0,0,400,l,0,1,1,0,0,68,68,16,,,['l'],0,[0.3843192817221279],2018_Jul_09_0712,60.1659533794,go-nogo,001,vova,
logos/1.jpg,properties1.xlsx,frogs/ab74.jpg,0,0,400,l,0,1,1,0,0,69,69,72,,,['l'],0,[0.3003286618622951],2018_Jul_09_0712,60.1659533794,go-nogo,001,vova,
logos/1.jpg,properties1.xlsx,frogs/ab15.jpg,0,0,400,l,0,1,1,0,0,70,70,14,,,['l'],0,[0.25173445549444295],2018_Jul_09_0712,60.1659533794,go-nogo,001,vova,
logos/1.jpg,properties1.xlsx,frogs/ab28.jpg,0,0,400,l,0,1,1,0,0,71,71,27,,,['l'],0,[0.3003906903686584],2018_Jul_09_0712,60.1659533794,go-nogo,001,vova,
logos/1.jpg,properties1.xlsx,frogs/ab7.jpg,0,0,400,l,0,1,1,0,0,72,72,6,,,['l'],0,[0.6011597992765019],2018_Jul_09_0712,60.1659533794,go-nogo,001,vova,
logos/1.jpg,properties1.xlsx,frogs/ab67.jpg,0,0,400,l,0,1,1,0,0,73,73,65,,,['l'],0,[0.3346317670730059],2018_Jul_09_0712,60.1659533794,go-nogo,001,vova,
logos/1.jpg,properties1.xlsx,frogs/ab48.jpg,0,0,400,l,0,1,1,0,0,74,74,47,,,['l'],0,[0.2512819597395719],2018_Jul_09_0712,60.1659533794,go-nogo,001,vova,
logos/1.jpg,properties1.xlsx,frogs/ab44.jpg,0,0,400,l,0,1,1,0,0,75,75,43,,,['l'],0,[0.31703173494315706],2018_Jul_09_0712,60.1659533794,go-nogo,001,vova,
logos/1.jpg,properties1.xlsx,frogs/ab10.jpg,0,0,400,l,0,1,1,0,0,76,76,9,,,['l'],0,[0.5177229735345463],2018_Jul_09_0712,60.1659533794,go-nogo,001,vova,
logos/1.jpg,properties1.xlsx,frogs/ab29.jpg,0,0,400,l,0,1,1,0,0,77,77,28,,,['l'],0,[0.3512692416625214],2018_Jul_09_0712,60.1659533794,go-nogo,001,vova,
logos/1.jpg,properties1.xlsx,frogs/ab68.jpg,0,0,400,l,0,1,1,0,0,78,78,66,,,['l'],0,[0.05102670572523493],2018_Jul_09_0712,60.1659533794,go-nogo,001,vova,
logos/1.jpg,properties1.xlsx,frogs/ab26.jpg,0,0,400,l,0,1,1,0,0,79,79,25,,,['l'],0,[0.18467583409073995],2018_Jul_09_0712,60.1659533794,go-nogo,001,vova,
logos/1.jpg,properties1.xlsx,frogs/ab55.jpg,0,0,400,l,0,1,1,0,0,80,80,54,,,['l'],0,[0.05235250936675584],2018_Jul_09_0712,60.1659533794,go-nogo,001,vova,
logos/1.jpg,properties1.xlsx,frogs/ab50.jpg,0,0,400,l,0,1,1,0,0,81,81,49,,,['l'],0,[0.16809860301873414],2018_Jul_09_0712,60.1659533794,go-nogo,001,vova,
logos/1.jpg,properties1.xlsx,frogs/ab64.jpg,0,0,400,l,0,1,1,0,0,82,82,62,,,['l'],0,[0.2685290094887023],2018_Jul_09_0712,60.1659533794,go-nogo,001,vova,
logos/1.jpg,properties1.xlsx,frogs/ab24.jpg,0,0,400,l,0,1,1,0,0,83,83,23,,,['l'],0,[0.5843340079154586],2018_Jul_09_0712,60.1659533794,go-nogo,001,vova,
logos/1.jpg,properties1.xlsx,frogs/ab71.jpg,0,0,400,l,0,1,1,0,0,84,84,69,,,['l'],0,[0.26786320705286926],2018_Jul_09_0712,60.1659533794,go-nogo,001,vova,
logos/1.jpg,properties1.xlsx,frogs/ab58.jpg,0,0,400,l,0,1,1,0,0,85,85,57,,,['l'],0,[0.30100562049483415],2018_Jul_09_0712,60.1659533794,go-nogo,001,vova,
logos/1.jpg,properties1.xlsx,frogs/ab40.jpg,0,0,400,l,0,1,1,0,0,86,86,39,,,['l'],0,[0.251440377884137],2018_Jul_09_0712,60.1659533794,go-nogo,001,vova,
logos/1.jpg,properties1.xlsx,frogs/ab51.jpg,0,0,400,l,0,1,1,0,0,87,87,50,,,['l'],0,[0.25129177720373264],2018_Jul_09_0712,60.1659533794,go-nogo,001,vova,
logos/1.jpg,properties1.xlsx,frogs/ab72.jpg,0,0,400,l,0,1,1,0,0,88,88,70,,,['l'],0,[0.26789667567936704],2018_Jul_09_0712,60.1659533794,go-nogo,001,vova,
logos/1.jpg,properties1.xlsx,frogs/ab2.jpg,0,0,400,l,0,1,1,0,0,89,89,1,,,['l'],0,[1.0669595542858588],2018_Jul_09_0712,60.1659533794,go-nogo,001,vova,
logos/1.jpg,properties1.xlsx,,,,,,0,1,1,0,,,,,,,,,,2018_Jul_09_0712,60.1659533794,go-nogo,001,vova,
logos/4.jpg,properties4.xlsx,frogs/ab20.jpg,0,0,400,l,0,2,2,3,0,0,0,19,space,7.30327791673,['l'],0,[0.551079586148262],2018_Jul_09_0712,60.1659533794,go-nogo,001,vova,
logos/4.jpg,properties4.xlsx,frogs/ab35.jpg,0,0,400,l,0,2,2,3,0,1,1,34,,,['l'],0,[0.3679919496862567],2018_Jul_09_0712,60.1659533794,go-nogo,001,vova,
logos/4.jpg,properties4.xlsx,frogs/ab64.jpg,0,0,400,l,0,2,2,3,0,2,2,62,,,['l'],0,[0.38462496178544825],2018_Jul_09_0712,60.1659533794,go-nogo,001,vova,
logos/4.jpg,properties4.xlsx,frogs/ab36.jpg,0,0,400,l,0,2,2,3,0,3,3,35,,,['l'],0,[0.3180933596086106],2018_Jul_09_0712,60.1659533794,go-nogo,001,vova,
logos/4.jpg,properties4.xlsx,frogs/ab74.jpg,0,0,400,l,0,2,2,3,0,4,4,72,,,['l'],0,[0.45120832878455985],2018_Jul_09_0712,60.1659533794,go-nogo,001,vova,
logos/4.jpg,properties4.xlsx,frogs/ab38.jpg,0,0,400,l,0,2,2,3,0,5,5,37,,,['l'],0,[0.28457074262405513],2018_Jul_09_0712,60.1659533794,go-nogo,001,vova,
logos/4.jpg,properties4.xlsx,frogs/ab18.jpg,0,0,400,l,0,2,2,3,0,6,6,17,,,['l'],0,[0.28465240605873987],2018_Jul_09_0712,60.1659533794,go-nogo,001,vova,
logos/4.jpg,properties4.xlsx,frogs/ab10.jpg,0,0,400,l,0,2,2,3,0,7,7,9,,,['l'],0,[0.26795558044250356],2018_Jul_09_0712,60.1659533794,go-nogo,001,vova,
logos/4.jpg,properties4.xlsx,frogs/ab40.jpg,0,0,400,l,0,2,2,3,0,8,8,39,,,['l'],0,[0.26795691918960074],2018_Jul_09_0712,60.1659533794,go-nogo,001,vova,
logos/4.jpg,properties4.xlsx,frogs/ab79.jpg,0,0,400,l,0,2,2,3,0,9,9,77,,,['l'],0,[0.2679131868571858],2018_Jul_09_0712,60.1659533794,go-nogo,001,vova,
logos/4.jpg,properties4.xlsx,frogs/ab11.jpg,0,0,400,l,0,2,2,3,0,10,10,10,,,['l'],0,[0.2505987536351313],2018_Jul_09_0712,60.1659533794,go-nogo,001,vova,
logos/4.jpg,properties4.xlsx,frogs/ab57.jpg,0,0,400,l,0,2,2,3,0,11,11,56,,,['l'],0,[0.23458915036462713],2018_Jul_09_0712,60.1659533794,go-nogo,001,vova,
logos/4.jpg,properties4.xlsx,frogs/ab78.jpg,0,0,400,l,0,2,2,3,0,12,12,76,,,['l'],0,[0.28456851137889316],2018_Jul_09_0712,60.1659533794,go-nogo,001,vova,
logos/4.jpg,properties4.xlsx,frogs/ab1.jpg,0,0,400,l,0,2,2,3,0,13,13,0,,,['l'],0,[0.25128463723376626],2018_Jul_09_0712,60.1659533794,go-nogo,001,vova,
logos/4.jpg,properties4.xlsx,frogs/ab46.jpg,0,0,400,l,0,2,2,3,0,14,14,45,,,['l'],0,[0.3179050428298069],2018_Jul_09_0712,60.1659533794,go-nogo,001,vova,
logos/4.jpg,properties4.xlsx,frogs/ab3.jpg,0,0,400,l,0,2,2,3,0,15,15,2,,,['l'],0,[0.300466552573198],2018_Jul_09_0712,60.1659533794,go-nogo,001,vova,
logos/4.jpg,properties4.xlsx,frogs/ab41.jpg,0,0,400,l,0,2,2,3,0,16,16,40,,,['l'],0,[0.28458011383918347],2018_Jul_09_0712,60.1659533794,go-nogo,001,vova,
logos/4.jpg,properties4.xlsx,frogs/ab27.jpg,0,0,400,l,0,2,2,3,0,17,17,26,,,['l'],0,[0.26739152261870913],2018_Jul_09_0712,60.1659533794,go-nogo,001,vova,
logos/4.jpg,properties4.xlsx,logos/4.jpg,0,0,400,a,0,2,2,3,0,18,18,88,,,['a'],0,[0.13466434319707332],2018_Jul_09_0712,60.1659533794,go-nogo,001,vova,
logos/4.jpg,properties4.xlsx,frogs/ab12.jpg,0,0,400,l,0,2,2,3,0,19,19,11,,,['l'],0,[0.017873136079288088],2018_Jul_09_0712,60.1659533794,go-nogo,001,vova,
logos/4.jpg,properties4.xlsx,frogs/ab52.jpg,0,0,400,l,0,2,2,3,0,20,20,51,,,['l'],0,[0.30127738570445217],2018_Jul_09_0712,60.1659533794,go-nogo,001,vova,
logos/4.jpg,properties4.xlsx,frogs/ab39.jpg,0,0,400,l,0,2,2,3,0,21,21,38,,,['l'],0,[0.28460510374134174],2018_Jul_09_0712,60.1659533794,go-nogo,001,vova,
logos/4.jpg,properties4.xlsx,frogs/ab56.jpg,0,0,400,l,0,2,2,3,0,22,22,55,,,['l'],0,[0.04250157860224135],2018_Jul_09_0712,60.1659533794,go-nogo,001,vova,
logos/4.jpg,properties4.xlsx,frogs/ab71.jpg,0,0,400,l,0,2,2,3,0,23,23,69,,,['l'],0,[0.2180726090518874],2018_Jul_09_0712,60.1659533794,go-nogo,001,vova,
logos/4.jpg,properties4.xlsx,frogs/ab15.jpg,0,0,400,l,0,2,2,3,0,24,24,14,,,['l'],0,[0.25050905772513943],2018_Jul_09_0712,60.1659533794,go-nogo,001,vova,
logos/4.jpg,properties4.xlsx,frogs/ab2.jpg,0,0,400,l,0,2,2,3,0,25,25,1,,,['l'],0,[0.0404010879501584],2018_Jul_09_0712,60.1659533794,go-nogo,001,vova,
logos/4.jpg,properties4.xlsx,logos/4.jpg,0,0,400,a,0,2,2,3,0,26,26,82,,,['a'],0,[0.11786443423625315],2018_Jul_09_0712,60.1659533794,go-nogo,001,vova,
logos/4.jpg,properties4.xlsx,frogs/ab31.jpg,0,0,400,l,0,2,2,3,0,27,27,30,,,['l'],0,[0.06789265943370992],2018_Jul_09_0712,60.1659533794,go-nogo,001,vova,
logos/4.jpg,properties4.xlsx,frogs/ab73.jpg,0,0,400,l,0,2,2,3,0,28,28,71,,,['l'],0,[0.18463701049768133],2018_Jul_09_0712,60.1659533794,go-nogo,001,vova,
logos/4.jpg,properties4.xlsx,frogs/ab5.jpg,0,0,400,l,0,2,2,3,0,29,29,4,,,['l'],0,[0.1010448903471115],2018_Jul_09_0712,60.1659533794,go-nogo,001,vova,
logos/4.jpg,properties4.xlsx,logos/4.jpg,0,0,400,a,0,2,2,3,0,30,30,84,,,['a'],0,[0.11711473712784937],2018_Jul_09_0712,60.1659533794,go-nogo,001,vova,
logos/4.jpg,properties4.xlsx,frogs/ab70.jpg,0,0,400,l,0,2,2,3,0,31,31,68,,,['l'],0,[1.0679323755321093],2018_Jul_09_0712,60.1659533794,go-nogo,001,vova,
logos/4.jpg,properties4.xlsx,frogs/ab76.jpg,0,0,400,l,0,2,2,3,0,32,32,74,,,['l'],0,[0.3511884707259014],2018_Jul_09_0712,60.1659533794,go-nogo,001,vova,
logos/4.jpg,properties4.xlsx,logos/4.jpg,0,0,400,a,0,2,2,3,0,33,33,85,,,['a'],0,[0.13485846119874623],2018_Jul_09_0712,60.1659533794,go-nogo,001,vova,
logos/4.jpg,properties4.xlsx,frogs/ab81.jpg,0,0,400,l,0,2,2,3,0,34,34,79,,,['l'],0,[0.3179795662872493],2018_Jul_09_0712,60.1659533794,go-nogo,001,vova,
logos/4.jpg,properties4.xlsx,frogs/ab58.jpg,0,0,400,l,0,2,2,3,0,35,35,57,,,['l'],0,[0.5013706515892409],2018_Jul_09_0712,60.1659533794,go-nogo,001,vova,
logos/4.jpg,properties4.xlsx,frogs/ab67.jpg,0,0,400,l,0,2,2,3,0,36,36,65,,,['l'],0,[1.3841465836303541],2018_Jul_09_0712,60.1659533794,go-nogo,001,vova,
logos/4.jpg,properties4.xlsx,frogs/ab66.jpg,0,0,400,l,0,2,2,3,0,37,37,64,,,['l'],0,[0.06785472833144013],2018_Jul_09_0712,60.1659533794,go-nogo,001,vova,
logos/4.jpg,properties4.xlsx,frogs/ab26.jpg,0,0,400,l,0,2,2,3,0,38,38,25,,,['l'],0,[0.4845252252926002],2018_Jul_09_0712,60.1659533794,go-nogo,001,vova,
logos/4.jpg,properties4.xlsx,frogs/ab22.jpg,0,0,400,l,0,2,2,3,0,39,39,21,,,['l'],0,[0.5179429739291663],2018_Jul_09_0712,60.1659533794,go-nogo,001,vova,
logos/4.jpg,properties4.xlsx,frogs/ab37.jpg,0,0,400,l,0,2,2,3,0,40,40,36,,,['l'],0,[0.25131899835105287],2018_Jul_09_0712,60.1659533794,go-nogo,001,vova,
logos/4.jpg,properties4.xlsx,frogs/ab14.jpg,0,0,400,l,0,2,2,3,0,41,41,13,,,['l'],0,[0.13470941427658545],2018_Jul_09_0712,60.1659533794,go-nogo,001,vova,
logos/4.jpg,properties4.xlsx,frogs/ab29.jpg,0,0,400,l,0,2,2,3,0,42,42,28,,,['l'],0,[0.11779392700555036],2018_Jul_09_0712,60.1659533794,go-nogo,001,vova,
logos/4.jpg,properties4.xlsx,frogs/ab61.jpg,0,0,400,l,0,2,2,3,0,43,43,59,,,['l'],0,[0.1509220605075825],2018_Jul_09_0712,60.1659533794,go-nogo,001,vova,
logos/4.jpg,properties4.xlsx,frogs/ab48.jpg,0,0,400,l,0,2,2,3,0,44,44,47,,,['l'],0,[0.08474879568530014],2018_Jul_09_0712,60.1659533794,go-nogo,001,vova,
logos/4.jpg,properties4.xlsx,frogs/ab32.jpg,0,0,400,l,0,2,2,3,0,45,45,31,,,['l'],0,[0.11737579236796591],2018_Jul_09_0712,60.1659533794,go-nogo,001,vova,
logos/4.jpg,properties4.xlsx,frogs/ab45.jpg,0,0,400,l,0,2,2,3,0,46,46,44,,,['l'],0,[0.10151523602689849],2018_Jul_09_0712,60.1659533794,go-nogo,001,vova,
logos/4.jpg,properties4.xlsx,frogs/ab72.jpg,0,0,400,l,0,2,2,3,0,47,47,70,,,['l'],0,[0.10086192854942055],2018_Jul_09_0712,60.1659533794,go-nogo,001,vova,
logos/4.jpg,properties4.xlsx,logos/4.jpg,0,0,400,a,0,2,2,3,0,48,48,89,,,['a'],0,[0.08449711166031193],2018_Jul_09_0712,60.1659533794,go-nogo,001,vova,
logos/4.jpg,properties4.xlsx,frogs/ab47.jpg,0,0,400,l,0,2,2,3,0,49,49,46,,,['l'],0,[0.023375823606329504],2018_Jul_09_0712,60.1659533794,go-nogo,001,vova,
logos/4.jpg,properties4.xlsx,frogs/ab62.jpg,0,0,400,l,0,2,2,3,0,50,50,60,,,['l'],0,[0.15121256814018125],2018_Jul_09_0712,60.1659533794,go-nogo,001,vova,
logos/4.jpg,properties4.xlsx,frogs/ab16.jpg,0,0,400,l,0,2,2,3,0,51,51,15,,,['l'],0,[0.35142899855418364],2018_Jul_09_0712,60.1659533794,go-nogo,001,vova,
logos/4.jpg,properties4.xlsx,frogs/ab33.jpg,0,0,400,l,0,2,2,3,0,52,52,32,,,['l'],0,[0.03480513453541789],2018_Jul_09_0712,60.1659533794,go-nogo,001,vova,
logos/4.jpg,properties4.xlsx,frogs/ab69.jpg,0,0,400,l,0,2,2,3,0,53,53,67,,,['l'],0,[0.03545710327307461],2018_Jul_09_0712,60.1659533794,go-nogo,001,vova,
logos/4.jpg,properties4.xlsx,frogs/ab30.jpg,0,0,400,l,0,2,2,3,0,54,54,29,,,['l'],0,[0.13384369261621032],2018_Jul_09_0712,60.1659533794,go-nogo,001,vova,
logos/4.jpg,properties4.xlsx,frogs/ab60.jpg,0,0,400,l,0,2,2,3,0,55,55,58,,,['l'],0,[0.21813508381455904],2018_Jul_09_0712,60.1659533794,go-nogo,001,vova,
logos/4.jpg,properties4.xlsx,frogs/ab55.jpg,0,0,400,l,0,2,2,3,0,56,56,54,,,['l'],0,[0.11794966765592108],2018_Jul_09_0712,60.1659533794,go-nogo,001,vova,
logos/4.jpg,properties4.xlsx,frogs/ab49.jpg,0,0,400,l,0,2,2,3,0,57,57,48,,,['l'],0,[0.35121390688436804],2018_Jul_09_0712,60.1659533794,go-nogo,001,vova,
logos/4.jpg,properties4.xlsx,frogs/ab7.jpg,0,0,400,l,0,2,2,3,0,58,58,6,,,['l'],0,[0.08466490101272939],2018_Jul_09_0712,60.1659533794,go-nogo,001,vova,
logos/4.jpg,properties4.xlsx,frogs/ab42.jpg,0,0,400,l,0,2,2,3,0,59,59,41,,,['l'],0,[0.16809547928278334],2018_Jul_09_0712,60.1659533794,go-nogo,001,vova,
logos/4.jpg,properties4.xlsx,frogs/ab6.jpg,0,0,400,l,0,2,2,3,0,60,60,5,,,['l'],0,[0.11725352034409298],2018_Jul_09_0712,60.1659533794,go-nogo,001,vova,
logos/4.jpg,properties4.xlsx,logos/4.jpg,0,0,400,a,0,2,2,3,0,61,61,87,,,['a'],0,[0.11771672605391359],2018_Jul_09_0712,60.1659533794,go-nogo,001,vova,
logos/4.jpg,properties4.xlsx,frogs/ab53.jpg,0,0,400,l,0,2,2,3,0,62,62,52,,,['l'],0,[0.23459495159477228],2018_Jul_09_0712,60.1659533794,go-nogo,001,vova,
logos/4.jpg,properties4.xlsx,frogs/ab17.jpg,0,0,400,l,0,2,2,3,0,63,63,16,,,['l'],0,[0.16780898788420018],2018_Jul_09_0712,60.1659533794,go-nogo,001,vova,
logos/4.jpg,properties4.xlsx,frogs/ab9.jpg,0,0,400,l,0,2,2,3,0,64,64,8,,,['l'],0,[0.31764264883531723],2018_Jul_09_0712,60.1659533794,go-nogo,001,vova,
logos/4.jpg,properties4.xlsx,frogs/ab23.jpg,0,0,400,l,0,2,2,3,0,65,65,22,,,['l'],0,[0.11794475892384071],2018_Jul_09_0712,60.1659533794,go-nogo,001,vova,
logos/4.jpg,properties4.xlsx,frogs/ab51.jpg,0,0,400,l,0,2,2,3,0,66,66,50,,,['l'],0,[0.20144316693767905],2018_Jul_09_0712,60.1659533794,go-nogo,001,vova,
logos/4.jpg,properties4.xlsx,frogs/ab75.jpg,0,0,400,l,0,2,2,3,0,67,67,73,,,['l'],0,[0.3178746979465359],2018_Jul_09_0712,60.1659533794,go-nogo,001,vova,
logos/4.jpg,properties4.xlsx,frogs/ab80.jpg,0,0,400,l,0,2,2,3,0,68,68,78,,,['l'],0,[0.8843645759188803],2018_Jul_09_0712,60.1659533794,go-nogo,001,vova,
logos/4.jpg,properties4.xlsx,frogs/ab34.jpg,0,0,400,l,0,2,2,3,0,69,69,33,,,['l'],0,[0.11747485948581016],2018_Jul_09_0712,60.1659533794,go-nogo,001,vova,
logos/4.jpg,properties4.xlsx,frogs/ab43.jpg,0,0,400,l,0,2,2,3,0,70,70,42,,,['l'],0,[0.03449900821578922],2018_Jul_09_0712,60.1659533794,go-nogo,001,vova,
logos/4.jpg,properties4.xlsx,frogs/ab13.jpg,0,0,400,l,0,2,2,3,0,71,71,12,,,['l'],0,[0.05113960654853145],2018_Jul_09_0712,60.1659533794,go-nogo,001,vova,
logos/4.jpg,properties4.xlsx,logos/4.jpg,0,0,400,a,0,2,2,3,0,72,72,81,,,['a'],0,[0.11801705115067307],2018_Jul_09_0712,60.1659533794,go-nogo,001,vova,
logos/4.jpg,properties4.xlsx,frogs/ab50.jpg,0,0,400,l,0,2,2,3,0,73,73,49,,,['l'],0,[0.08502725461585214],2018_Jul_09_0712,60.1659533794,go-nogo,001,vova,
logos/4.jpg,properties4.xlsx,frogs/ab68.jpg,0,0,400,l,0,2,2,3,0,74,74,66,,,['l'],0,[0.16800221339508425],2018_Jul_09_0712,60.1659533794,go-nogo,001,vova,
logos/4.jpg,properties4.xlsx,frogs/ab24.jpg,0,0,400,l,0,2,2,3,0,75,75,23,,,['l'],0,[0.23465296386711998],2018_Jul_09_0712,60.1659533794,go-nogo,001,vova,
logos/4.jpg,properties4.xlsx,frogs/ab77.jpg,0,0,400,l,0,2,2,3,0,76,76,75,,,['l'],0,[0.13456304484134307],2018_Jul_09_0712,60.1659533794,go-nogo,001,vova,
logos/4.jpg,properties4.xlsx,frogs/ab25.jpg,0,0,400,l,0,2,2,3,0,77,77,24,,,['l'],0,[0.1672212788980687],2018_Jul_09_0712,60.1659533794,go-nogo,001,vova,
logos/4.jpg,properties4.xlsx,logos/4.jpg,0,0,400,a,0,2,2,3,0,78,78,86,,,['a'],0,[0.05148901894426672],2018_Jul_09_0712,60.1659533794,go-nogo,001,vova,
logos/4.jpg,properties4.xlsx,frogs/ab63.jpg,0,0,400,l,0,2,2,3,0,79,79,61,,,['l'],0,[0.03459941407345468],2018_Jul_09_0712,60.1659533794,go-nogo,001,vova,
logos/4.jpg,properties4.xlsx,frogs/ab65.jpg,0,0,400,l,0,2,2,3,0,80,80,63,,,['l'],0,[0.35040441250021104],2018_Jul_09_0712,60.1659533794,go-nogo,001,vova,
logos/4.jpg,properties4.xlsx,frogs/ab44.jpg,0,0,400,l,0,2,2,3,0,81,81,43,,,['l'],0,[0.5678156816065894],2018_Jul_09_0712,60.1659533794,go-nogo,001,vova,
logos/4.jpg,properties4.xlsx,frogs/ab28.jpg,0,0,400,l,0,2,2,3,0,82,82,27,,,['l'],0,[0.1345523348863935],2018_Jul_09_0712,60.1659533794,go-nogo,001,vova,
logos/4.jpg,properties4.xlsx,frogs/ab4.jpg,0,0,400,l,0,2,2,3,0,83,83,3,,,['l'],0,[0.10059908831317443],2018_Jul_09_0712,60.1659533794,go-nogo,001,vova,
logos/4.jpg,properties4.xlsx,frogs/ab21.jpg,0,0,400,l,0,2,2,3,0,84,84,20,,,['l'],0,[0.0511561177263502],2018_Jul_09_0712,60.1659533794,go-nogo,001,vova,
logos/4.jpg,properties4.xlsx,frogs/ab19.jpg,0,0,400,l,0,2,2,3,0,85,85,18,,,['l'],0,[0.13451172628992936],2018_Jul_09_0712,60.1659533794,go-nogo,001,vova,
logos/4.jpg,properties4.xlsx,frogs/ab54.jpg,0,0,400,l,0,2,2,3,0,86,86,53,,,['l'],0,[0.1511679433097015],2018_Jul_09_0712,60.1659533794,go-nogo,001,vova,
logos/4.jpg,properties4.xlsx,logos/4.jpg,0,0,400,a,0,2,2,3,0,87,87,83,,,['a'],0,[0.0678016247911728],2018_Jul_09_0712,60.1659533794,go-nogo,001,vova,
logos/4.jpg,properties4.xlsx,logos/4.jpg,0,0,400,a,0,2,2,3,0,88,88,80,,,['l'],0,[0.6012276290202863],2018_Jul_09_0712,60.1659533794,go-nogo,001,vova,
logos/4.jpg,properties4.xlsx,frogs/ab8.jpg,0,0,400,l,0,2,2,3,0,89,89,7,,,['l'],0,[0.06767132029199274],2018_Jul_09_0712,60.1659533794,go-nogo,001,vova,
logos/4.jpg,properties4.xlsx,,,,,,0,2,2,3,,,,,,,,,,2018_Jul_09_0712,60.1659533794,go-nogo,001,vova,
logos/3.jpg,properties3.xlsx,frogs/ab58.jpg,0,0,400,l,0,3,3,2,0,0,0,57,space,3.38223797974,['l'],0,[0.8012062090929248],2018_Jul_09_0712,60.1659533794,go-nogo,001,vova,
logos/3.jpg,properties3.xlsx,frogs/ab72.jpg,0,0,400,l,0,3,3,2,0,1,1,70,,,['l'],0,[0.08559175868867896],2018_Jul_09_0712,60.1659533794,go-nogo,001,vova,
logos/3.jpg,properties3.xlsx,frogs/ab61.jpg,0,0,400,l,0,3,3,2,0,2,2,59,,,['l'],0,[2.03394967658096],2018_Jul_09_0712,60.1659533794,go-nogo,001,vova,
logos/3.jpg,properties3.xlsx,frogs/ab45.jpg,0,0,400,l,0,3,3,2,0,3,3,44,,,['l'],0,[0.16780586414824938],2018_Jul_09_0712,60.1659533794,go-nogo,001,vova,
logos/3.jpg,properties3.xlsx,frogs/ab13.jpg,0,0,400,l,0,3,3,2,0,4,4,12,,,['l'],0,[0.16791564122831915],2018_Jul_09_0712,60.1659533794,go-nogo,001,vova,
logos/3.jpg,properties3.xlsx,frogs/ab19.jpg,0,0,400,l,0,3,3,2,0,5,5,18,,,['l'],0,[0.10135994163283613],2018_Jul_09_0712,60.1659533794,go-nogo,001,vova,
logos/3.jpg,properties3.xlsx,frogs/ab43.jpg,0,0,400,l,0,3,3,2,0,6,6,42,,,['l'],0,[0.33432474825531244],2018_Jul_09_0712,60.1659533794,go-nogo,001,vova,
logos/3.jpg,properties3.xlsx,frogs/ab74.jpg,0,0,400,l,0,3,3,2,0,7,7,72,,,['l'],0,[1.6172202748421114],2018_Jul_09_0712,60.1659533794,go-nogo,001,vova,
logos/3.jpg,properties3.xlsx,frogs/ab64.jpg,0,0,400,l,0,3,3,2,0,8,8,62,,,['l'],0,[0.03491669660434127],2018_Jul_09_0712,60.1659533794,go-nogo,001,vova,
logos/3.jpg,properties3.xlsx,frogs/ab26.jpg,0,0,400,l,0,3,3,2,0,9,9,25,,,['l'],0,[0.10131397806253517],2018_Jul_09_0712,60.1659533794,go-nogo,001,vova,
logos/3.jpg,properties3.xlsx,frogs/ab3.jpg,0,0,400,l,0,3,3,2,0,10,10,2,,,['l'],0,[0.03450436318962602],2018_Jul_09_0712,60.1659533794,go-nogo,001,vova,
logos/3.jpg,properties3.xlsx,frogs/ab23.jpg,0,0,400,l,0,3,3,2,0,11,11,22,,,['l'],0,[0.7189599737612298],2018_Jul_09_0712,60.1659533794,go-nogo,001,vova,
logos/3.jpg,properties3.xlsx,logos/3.jpg,0,0,400,a,0,3,3,2,0,12,12,80,,,['a'],0,[0.017940519566764124],2018_Jul_09_0712,60.1659533794,go-nogo,001,vova,
logos/3.jpg,properties3.xlsx,frogs/ab29.jpg,0,0,400,l,0,3,3,2,0,13,13,28,,,['l'],0,[0.2845203165707062],2018_Jul_09_0712,60.1659533794,go-nogo,001,vova,
logos/3.jpg,properties3.xlsx,logos/3.jpg,0,0,400,a,0,3,3,2,0,14,14,84,,,['a'],0,[0.019624660577392206],2018_Jul_09_0712,60.1659533794,go-nogo,001,vova,
logos/3.jpg,properties3.xlsx,frogs/ab11.jpg,0,0,400,l,0,3,3,2,0,15,15,10,,,['l'],0,[0.2325890655774856],2018_Jul_09_0712,60.1659533794,go-nogo,001,vova,
logos/3.jpg,properties3.xlsx,frogs/ab46.jpg,0,0,400,l,0,3,3,2,0,16,16,45,,,['l'],0,[0.301665621700522],2018_Jul_09_0712,60.1659533794,go-nogo,001,vova,
logos/3.jpg,properties3.xlsx,frogs/ab9.jpg,0,0,400,l,0,3,3,2,0,17,17,8,,,['l'],0,[0.4687427624085103],2018_Jul_09_0712,60.1659533794,go-nogo,001,vova,
logos/3.jpg,properties3.xlsx,frogs/ab22.jpg,0,0,400,l,0,3,3,2,0,18,18,21,,,['l'],0,[0.2181234813615447],2018_Jul_09_0712,60.1659533794,go-nogo,001,vova,
logos/3.jpg,properties3.xlsx,frogs/ab27.jpg,0,0,400,l,0,3,3,2,0,19,19,26,,,['l'],0,[0.017920438389410265],2018_Jul_09_0712,60.1659533794,go-nogo,001,vova,
logos/3.jpg,properties3.xlsx,frogs/ab53.jpg,0,0,400,l,0,3,3,2,0,20,20,52,,,['l'],0,[0.5678339777950896],2018_Jul_09_0712,60.1659533794,go-nogo,001,vova,
logos/3.jpg,properties3.xlsx,frogs/ab33.jpg,0,0,400,l,0,3,3,2,0,21,21,32,,,['l'],0,[0.15047893596056383],2018_Jul_09_0712,60.1659533794,go-nogo,001,vova,
logos/3.jpg,properties3.xlsx,logos/3.jpg,0,0,400,a,0,3,3,2,0,22,22,82,,,['a'],0,[0.6021031681375462],2018_Jul_09_0712,60.1659533794,go-nogo,001,vova,
logos/3.jpg,properties3.xlsx,frogs/ab60.jpg,0,0,400,l,0,3,3,2,0,23,23,58,,,['l'],0,[0.13458357226045337],2018_Jul_09_0712,60.1659533794,go-nogo,001,vova,
logos/3.jpg,properties3.xlsx,frogs/ab39.jpg,0,0,400,l,0,3,3,2,0,24,24,38,,,['l'],0,[0.06799172655155417],2018_Jul_09_0712,60.1659533794,go-nogo,001,vova,
logos/3.jpg,properties3.xlsx,frogs/ab32.jpg,0,0,400,l,0,3,3,2,0,25,25,31,,,['l'],0,[0.20109910951578058],2018_Jul_09_0712,60.1659533794,go-nogo,001,vova,
logos/3.jpg,properties3.xlsx,frogs/ab25.jpg,0,0,400,l,0,3,3,2,0,26,26,24,,,['l'],0,[0.15159321791725233],2018_Jul_09_0712,60.1659533794,go-nogo,001,vova,
logos/3.jpg,properties3.xlsx,frogs/ab71.jpg,0,0,400,l,0,3,3,2,0,27,27,69,,,['l'],0,[0.05135603695816826],2018_Jul_09_0712,60.1659533794,go-nogo,001,vova,
logos/3.jpg,properties3.xlsx,frogs/ab51.jpg,0,0,400,l,0,3,3,2,0,28,28,50,,,['l'],0,[0.08505849199718796],2018_Jul_09_0712,60.1659533794,go-nogo,001,vova,
logos/3.jpg,properties3.xlsx,frogs/ab30.jpg,0,0,400,l,0,3,3,2,0,29,29,29,,,['l'],0,[0.1183517373574432],2018_Jul_09_0712,60.1659533794,go-nogo,001,vova,
logos/3.jpg,properties3.xlsx,frogs/ab20.jpg,0,0,400,l,0,3,3,2,0,30,30,19,,,['l'],0,[0.05134755824110471],2018_Jul_09_0712,60.1659533794,go-nogo,001,vova,
logos/3.jpg,properties3.xlsx,frogs/ab54.jpg,0,0,400,l,0,3,3,2,0,31,31,53,,,['l'],0,[0.08457208137406269],2018_Jul_09_0712,60.1659533794,go-nogo,001,vova,
logos/3.jpg,properties3.xlsx,frogs/ab78.jpg,0,0,400,l,0,3,3,2,0,32,32,76,,,['l'],0,[0.11792735524068121],2018_Jul_09_0712,60.1659533794,go-nogo,001,vova,
logos/3.jpg,properties3.xlsx,frogs/ab15.jpg,0,0,400,l,0,3,3,2,0,33,33,14,,,['l'],0,[0.10127649320929777],2018_Jul_09_0712,60.1659533794,go-nogo,001,vova,
logos/3.jpg,properties3.xlsx,frogs/ab41.jpg,0,0,400,l,0,3,3,2,0,34,34,40,,,['l'],0,[0.10141259893134702],2018_Jul_09_0712,60.1659533794,go-nogo,001,vova,
logos/3.jpg,properties3.xlsx,frogs/ab35.jpg,0,0,400,l,0,3,3,2,0,35,35,34,,,['l'],0,[0.017550944816321135],2018_Jul_09_0712,60.1659533794,go-nogo,001,vova,
logos/3.jpg,properties3.xlsx,frogs/ab14.jpg,0,0,400,l,0,3,3,2,0,36,36,13,,,['l'],0,[0.08478940428176429],2018_Jul_09_0712,60.1659533794,go-nogo,001,vova,
logos/3.jpg,properties3.xlsx,frogs/ab65.jpg,0,0,400,l,0,3,3,2,0,37,37,63,,,['l'],0,[0.08326725140068447],2018_Jul_09_0712,60.1659533794,go-nogo,001,vova,
logos/3.jpg,properties3.xlsx,frogs/ab17.jpg,0,0,400,l,0,3,3,2,0,38,38,16,,,['l'],0,[0.08360015261860099],2018_Jul_09_0712,60.1659533794,go-nogo,001,vova,
logos/3.jpg,properties3.xlsx,frogs/ab4.jpg,0,0,400,l,0,3,3,2,0,39,39,3,,,['l'],0,[0.13456616858456982],2018_Jul_09_0712,60.1659533794,go-nogo,001,vova,
logos/3.jpg,properties3.xlsx,frogs/ab55.jpg,0,0,400,l,0,3,3,2,0,40,40,54,,,['l'],0,[0.08333731238235487],2018_Jul_09_0712,60.1659533794,go-nogo,001,vova,
logos/3.jpg,properties3.xlsx,frogs/ab31.jpg,0,0,400,l,0,3,3,2,0,41,41,30,,,['l'],0,[0.08459305504220538],2018_Jul_09_0712,60.1659533794,go-nogo,001,vova,
logos/3.jpg,properties3.xlsx,frogs/ab56.jpg,0,0,400,l,0,3,3,2,0,42,42,55,,,['l'],0,[0.26740491006785305],2018_Jul_09_0712,60.1659533794,go-nogo,001,vova,
logos/3.jpg,properties3.xlsx,frogs/ab16.jpg,0,0,400,l,0,3,3,2,0,43,43,15,,,['l'],0,[0.05112889657902997],2018_Jul_09_0712,60.1659533794,go-nogo,001,vova,
logos/3.jpg,properties3.xlsx,frogs/ab10.jpg,0,0,400,l,0,3,3,2,0,44,44,9,,,['l'],0,[0.03453292308404343],2018_Jul_09_0712,60.1659533794,go-nogo,001,vova,
logos/3.jpg,properties3.xlsx,frogs/ab48.jpg,0,0,400,l,0,3,3,2,0,45,45,47,,,['l'],0,[0.08460198000102537],2018_Jul_09_0712,60.1659533794,go-nogo,001,vova,
logos/3.jpg,properties3.xlsx,frogs/ab75.jpg,0,0,400,l,0,3,3,2,0,46,46,73,,,['l'],0,[0.034309352697164286],2018_Jul_09_0712,60.1659533794,go-nogo,001,vova,
logos/3.jpg,properties3.xlsx,frogs/ab62.jpg,0,0,400,l,0,3,3,2,0,47,47,60,,,['l'],0,[0.5016517880067113],2018_Jul_09_0712,60.1659533794,go-nogo,001,vova,
logos/3.jpg,properties3.xlsx,frogs/ab1.jpg,0,0,400,l,0,3,3,2,0,48,48,0,,,['l'],0,[0.06785874456545571],2018_Jul_09_0712,60.1659533794,go-nogo,001,vova,
logos/3.jpg,properties3.xlsx,frogs/ab80.jpg,0,0,400,l,0,3,3,2,0,49,49,78,,,['l'],0,[0.05116013396036578],2018_Jul_09_0712,60.1659533794,go-nogo,001,vova,
logos/3.jpg,properties3.xlsx,frogs/ab68.jpg,0,0,400,l,0,3,3,2,0,50,50,66,,,['l'],0,[0.06708673504908802],2018_Jul_09_0712,60.1659533794,go-nogo,001,vova,
logos/3.jpg,properties3.xlsx,frogs/ab67.jpg,0,0,400,l,0,3,3,2,0,51,51,65,,,['l'],0,[0.06781099599902518],2018_Jul_09_0712,60.1659533794,go-nogo,001,vova,
logos/3.jpg,properties3.xlsx,frogs/ab69.jpg,0,0,400,l,0,3,3,2,0,52,52,67,,,['l'],0,[0.0009969186576199718],2018_Jul_09_0712,60.1659533794,go-nogo,001,vova,
logos/3.jpg,properties3.xlsx,frogs/ab40.jpg,0,0,400,l,0,3,3,2,0,53,53,39,,,['l'],0,[0.06770300392236095],2018_Jul_09_0712,60.1659533794,go-nogo,001,vova,
logos/3.jpg,properties3.xlsx,logos/3.jpg,0,0,400,a,0,3,3,2,0,54,54,81,,,['a'],0,[0.06793103679228807],2018_Jul_09_0712,60.1659533794,go-nogo,001,vova,
logos/3.jpg,properties3.xlsx,logos/3.jpg,0,0,400,a,0,3,3,2,0,55,55,85,,,['l'],0,[0.03456862294115126],2018_Jul_09_0712,60.1659533794,go-nogo,001,vova,
logos/3.jpg,properties3.xlsx,frogs/ab49.jpg,0,0,400,l,0,3,3,2,0,56,56,48,,,['l'],0,[0.06811132109578466],2018_Jul_09_0712,60.1659533794,go-nogo,001,vova,
logos/3.jpg,properties3.xlsx,frogs/ab5.jpg,0,0,400,l,0,3,3,2,0,57,57,4,,,['l'],0,[0.051045894404524006],2018_Jul_09_0712,60.1659533794,go-nogo,001,vova,
logos/3.jpg,properties3.xlsx,frogs/ab12.jpg,0,0,400,l,0,3,3,2,0,58,58,11,,,['l'],0,[0.05125473859516205],2018_Jul_09_0712,60.1659533794,go-nogo,001,vova,
logos/3.jpg,properties3.xlsx,frogs/ab24.jpg,0,0,400,l,0,3,3,2,0,59,59,23,,,['l'],0,[0.08438331834622659],2018_Jul_09_0712,60.1659533794,go-nogo,001,vova,
logos/3.jpg,properties3.xlsx,logos/3.jpg,0,0,400,a,0,3,3,2,0,60,60,83,,,['a'],0,[0.08422043771861354],2018_Jul_09_0712,60.1659533794,go-nogo,001,vova,
logos/3.jpg,properties3.xlsx,frogs/ab37.jpg,0,0,400,l,0,3,3,2,0,61,61,36,,,['l'],0,[0.017351918082567863],2018_Jul_09_0712,60.1659533794,go-nogo,001,vova,
logos/3.jpg,properties3.xlsx,frogs/ab63.jpg,0,0,400,l,0,3,3,2,0,62,62,61,,,['l'],0,[0.08404684714332689],2018_Jul_09_0712,60.1659533794,go-nogo,001,vova,
logos/3.jpg,properties3.xlsx,logos/3.jpg,0,0,400,a,0,3,3,2,0,63,63,89,,,['l'],0,[0.5344282778605702],2018_Jul_09_0712,60.1659533794,go-nogo,001,vova,
logos/3.jpg,properties3.xlsx,frogs/ab44.jpg,0,0,400,l,0,3,3,2,0,64,64,43,,,['l'],0,[0.08438421083701542],2018_Jul_09_0712,60.1659533794,go-nogo,001,vova,
logos/3.jpg,properties3.xlsx,frogs/ab50.jpg,0,0,400,l,0,3,3,2,0,65,65,49,,,['l'],0,[0.034462415853340644],2018_Jul_09_0712,60.1659533794,go-nogo,001,vova,
logos/3.jpg,properties3.xlsx,logos/3.jpg,0,0,400,a,0,3,3,2,0,66,66,86,,,['l'],0,[0.8342290280052111],2018_Jul_09_0712,60.1659533794,go-nogo,001,vova,
logos/3.jpg,properties3.xlsx,frogs/ab7.jpg,0,0,400,l,0,3,3,2,0,67,67,6,,,['l'],0,[0.1348218688435736],2018_Jul_09_0712,60.1659533794,go-nogo,001,vova,
logos/3.jpg,properties3.xlsx,frogs/ab57.jpg,0,0,400,l,0,3,3,2,0,68,68,56,,,['l'],0,[0.6509352248249343],2018_Jul_09_0712,60.1659533794,go-nogo,001,vova,
logos/3.jpg,properties3.xlsx,frogs/ab18.jpg,0,0,400,l,0,3,3,2,0,69,69,17,,,['l'],0,[0.01784948491695104],2018_Jul_09_0712,60.1659533794,go-nogo,001,vova,
logos/3.jpg,properties3.xlsx,frogs/ab6.jpg,0,0,400,l,0,3,3,2,0,70,70,5,,,['l'],0,[0.4177838864197838],2018_Jul_09_0712,60.1659533794,go-nogo,001,vova,
logos/3.jpg,properties3.xlsx,frogs/ab42.jpg,0,0,400,l,0,3,3,2,0,71,71,41,,,['l'],0,[0.3342256811374682],2018_Jul_09_0712,60.1659533794,go-nogo,001,vova,
logos/3.jpg,properties3.xlsx,frogs/ab38.jpg,0,0,400,l,0,3,3,2,0,72,72,37,,,['l'],0,[0.31780419072310906],2018_Jul_09_0712,60.1659533794,go-nogo,001,vova,
logos/3.jpg,properties3.xlsx,logos/3.jpg,0,0,400,a,0,3,3,2,0,73,73,87,,,['a'],0,[0.01769999174575787],2018_Jul_09_0712,60.1659533794,go-nogo,001,vova,
logos/3.jpg,properties3.xlsx,frogs/ab21.jpg,0,0,400,l,0,3,3,2,0,74,74,20,,,['l'],0,[0.38437015402450925],2018_Jul_09_0712,60.1659533794,go-nogo,001,vova,
logos/3.jpg,properties3.xlsx,frogs/ab81.jpg,0,0,400,l,0,3,3,2,0,75,75,79,,,['l'],0,[0.11763863260421203],2018_Jul_09_0712,60.1659533794,go-nogo,001,vova,
logos/3.jpg,properties3.xlsx,frogs/ab76.jpg,0,0,400,l,0,3,3,2,0,76,76,74,,,['l'],0,[0.10106720275507541],2018_Jul_09_0712,60.1659533794,go-nogo,001,vova,
logos/3.jpg,properties3.xlsx,frogs/ab36.jpg,0,0,400,l,0,3,3,2,0,77,77,35,,,['l'],0,[0.11778946452250239],2018_Jul_09_0712,60.1659533794,go-nogo,001,vova,
logos/3.jpg,properties3.xlsx,logos/3.jpg,0,0,400,a,0,3,3,2,0,78,78,88,,,['a'],0,[0.052255673486797605],2018_Jul_09_0712,60.1659533794,go-nogo,001,vova,
logos/3.jpg,properties3.xlsx,frogs/ab77.jpg,0,0,400,l,0,3,3,2,0,79,79,75,,,['l'],0,[0.01765849065850489],2018_Jul_09_0712,60.1659533794,go-nogo,001,vova,
logos/3.jpg,properties3.xlsx,frogs/ab2.jpg,0,0,400,l,0,3,3,2,0,80,80,1,,,['l'],0,[0.08435698969697114],2018_Jul_09_0712,60.1659533794,go-nogo,001,vova,
logos/3.jpg,properties3.xlsx,frogs/ab28.jpg,0,0,400,l,0,3,3,2,0,81,81,27,,,['l'],0,[0.1505855893046828],2018_Jul_09_0712,60.1659533794,go-nogo,001,vova,
logos/3.jpg,properties3.xlsx,frogs/ab66.jpg,0,0,400,l,0,3,3,2,0,82,82,64,,,['l'],0,[0.034574424171296414],2018_Jul_09_0712,60.1659533794,go-nogo,001,vova,
logos/3.jpg,properties3.xlsx,frogs/ab52.jpg,0,0,400,l,0,3,3,2,0,83,83,51,,,['l'],0,[0.3177890182705596],2018_Jul_09_0712,60.1659533794,go-nogo,001,vova,
logos/3.jpg,properties3.xlsx,frogs/ab34.jpg,0,0,400,l,0,3,3,2,0,84,84,33,,,['l'],0,[0.14505121814727318],2018_Jul_09_0712,60.1659533794,go-nogo,001,vova,
logos/3.jpg,properties3.xlsx,frogs/ab70.jpg,0,0,400,l,0,3,3,2,0,85,85,68,,,['l'],0,[0.6844252656883327],2018_Jul_09_0712,60.1659533794,go-nogo,001,vova,
logos/3.jpg,properties3.xlsx,frogs/ab73.jpg,0,0,400,l,0,3,3,2,0,86,86,71,,,['l'],0,[0.13449387635773746],2018_Jul_09_0712,60.1659533794,go-nogo,001,vova,
logos/3.jpg,properties3.xlsx,frogs/ab8.jpg,0,0,400,l,0,3,3,2,0,87,87,7,,,['l'],0,[0.20104734470805852],2018_Jul_09_0712,60.1659533794,go-nogo,001,vova,
logos/3.jpg,properties3.xlsx,frogs/ab47.jpg,0,0,400,l,0,3,3,2,0,88,88,46,,,['l'],0,[0.20004105484258616],2018_Jul_09_0712,60.1659533794,go-nogo,001,vova,
logos/3.jpg,properties3.xlsx,frogs/ab79.jpg,0,0,400,l,0,3,3,2,0,89,89,77,,,['l'],0,[0.11782382563978899],2018_Jul_09_0712,60.1659533794,go-nogo,001,vova,
logos/3.jpg,properties3.xlsx,,,,,,0,3,3,2,,,,,,,,,,2018_Jul_09_0712,60.1659533794,go-nogo,001,vova,
