pix,source,image1,x,y,size,answer,trials_2.thisRepN,trials_2.thisTrialN,trials_2.thisN,trials_2.thisIndex,trials.thisRepN,trials.thisTrialN,trials.thisN,trials.thisIndex,key_resp_3.keys,key_resp_3.rt,key_resp_2.keys,key_resp_2.corr,key_resp_2.rt,date,frameRate,expName,session,participant,
logos/1.jpg,properties1.xlsx,frogs/ab49.jpg,0,0,400,l,0,0,0,0,0,0,0,48,space,26.120570414,['l'],0,[7.629625141724773],2018_Jul_09_1115,59.9998976001,go-nogo,001,5,
logos/1.jpg,properties1.xlsx,logos/1.jpg,0,0,400,a,0,0,0,0,0,1,1,83,,,['a'],0,[0.3503618989752795],2018_Jul_09_1115,59.9998976001,go-nogo,001,5,
logos/1.jpg,properties1.xlsx,frogs/ab44.jpg,0,0,400,l,0,0,0,0,0,2,2,43,,,['l'],0,[0.16732401833860422],2018_Jul_09_1115,59.9998976001,go-nogo,001,5,
logos/1.jpg,properties1.xlsx,frogs/ab42.jpg,0,0,400,l,0,0,0,0,0,3,3,41,,,['l'],0,[0.2171109408236589],2018_Jul_09_1115,59.9998976001,go-nogo,001,5,
logos/1.jpg,properties1.xlsx,frogs/ab3.jpg,0,0,400,l,0,0,0,0,0,4,4,2,,,['l'],0,[0.26688876107846227],2018_Jul_09_1115,59.9998976001,go-nogo,001,5,
logos/1.jpg,properties1.xlsx,frogs/ab41.jpg,0,0,400,l,0,0,0,0,0,5,5,40,,,['a'],0,[1.4161306306536972],2018_Jul_09_1115,59.9998976001,go-nogo,001,5,
logos/1.jpg,properties1.xlsx,frogs/ab23.jpg,0,0,400,l,0,0,0,0,0,6,6,22,,,['l'],0,[0.2004254154744558],2018_Jul_09_1115,59.9998976001,go-nogo,001,5,
logos/1.jpg,properties1.xlsx,frogs/ab58.jpg,0,0,400,l,0,0,0,0,0,7,7,57,,,['l'],0,[0.03386996667995845],2018_Jul_09_1115,59.9998976001,go-nogo,001,5,
logos/1.jpg,properties1.xlsx,logos/1.jpg,0,0,400,a,0,0,0,0,0,8,8,86,,,['a'],0,[0.13348932279996006],2018_Jul_09_1115,59.9998976001,go-nogo,001,5,
logos/1.jpg,properties1.xlsx,frogs/ab20.jpg,0,0,400,l,0,0,0,0,0,9,9,19,,,['l'],0,[0.05055833647656982],2018_Jul_09_1115,59.9998976001,go-nogo,001,5,
logos/1.jpg,properties1.xlsx,frogs/ab11.jpg,0,0,400,l,0,0,0,0,0,10,10,10,,,['l'],0,[0.4336455967109032],2018_Jul_09_1115,59.9998976001,go-nogo,001,5,
logos/1.jpg,properties1.xlsx,frogs/ab71.jpg,0,0,400,l,0,0,0,0,0,11,11,69,,,['l'],0,[1.1661344706567434],2018_Jul_09_1115,59.9998976001,go-nogo,001,5,
logos/1.jpg,properties1.xlsx,frogs/ab46.jpg,0,0,400,l,0,0,0,0,0,12,12,45,,,['l'],0,[0.48345641254945804],2018_Jul_09_1115,59.9998976001,go-nogo,001,5,
logos/1.jpg,properties1.xlsx,frogs/ab30.jpg,0,0,400,l,0,0,0,0,0,13,13,29,,,['l'],0,[0.5669403593446987],2018_Jul_09_1115,59.9998976001,go-nogo,001,5,
logos/1.jpg,properties1.xlsx,frogs/ab78.jpg,0,0,400,l,0,0,0,0,0,14,14,76,,,['l'],0,[1.9993059549633472],2018_Jul_09_1115,59.9998976001,go-nogo,001,5,
logos/1.jpg,properties1.xlsx,frogs/ab60.jpg,0,0,400,l,0,0,0,0,0,15,15,58,,,['l'],0,[0.2838154955225036],2018_Jul_09_1115,59.9998976001,go-nogo,001,5,
logos/1.jpg,properties1.xlsx,logos/1.jpg,0,0,400,a,0,0,0,0,0,16,16,88,,,['a'],0,[0.03400820679826211],2018_Jul_09_1115,59.9998976001,go-nogo,001,5,
logos/1.jpg,properties1.xlsx,frogs/ab16.jpg,0,0,400,l,0,0,0,0,0,17,17,15,,,['l'],0,[0.11707458879254773],2018_Jul_09_1115,59.9998976001,go-nogo,001,5,
logos/1.jpg,properties1.xlsx,frogs/ab70.jpg,0,0,400,l,0,0,0,0,0,18,18,68,,,['l'],0,[0.3341718762712844],2018_Jul_09_1115,59.9998976001,go-nogo,001,5,
logos/1.jpg,properties1.xlsx,frogs/ab73.jpg,0,0,400,l,0,0,0,0,0,19,19,71,,,['l'],0,[0.25029653358660653],2018_Jul_09_1115,59.9998976001,go-nogo,001,5,
logos/1.jpg,properties1.xlsx,frogs/ab65.jpg,0,0,400,l,0,0,0,0,0,20,20,63,,,['l'],0,[2.599119586804136],2018_Jul_09_1115,59.9998976001,go-nogo,001,5,
logos/1.jpg,properties1.xlsx,frogs/ab10.jpg,0,0,400,l,0,0,0,0,0,21,21,9,,,['l'],0,[0.31705456388635866],2018_Jul_09_1115,59.9998976001,go-nogo,001,5,
logos/1.jpg,properties1.xlsx,frogs/ab17.jpg,0,0,400,l,0,0,0,0,0,22,22,16,,,['l'],0,[0.9167316622774706],2018_Jul_09_1115,59.9998976001,go-nogo,001,5,
logos/1.jpg,properties1.xlsx,frogs/ab72.jpg,0,0,400,l,0,0,0,0,0,23,23,70,,,['l'],0,[0.4831969989945719],2018_Jul_09_1115,59.9998976001,go-nogo,001,5,
logos/1.jpg,properties1.xlsx,frogs/ab13.jpg,0,0,400,l,0,0,0,0,0,24,24,12,,,['l'],0,[0.36686936195064845],2018_Jul_09_1115,59.9998976001,go-nogo,001,5,
logos/1.jpg,properties1.xlsx,frogs/ab68.jpg,0,0,400,l,0,0,0,0,0,25,25,66,,,['l'],0,[0.6501620481380996],2018_Jul_09_1115,59.9998976001,go-nogo,001,5,
logos/1.jpg,properties1.xlsx,frogs/ab69.jpg,0,0,400,l,0,0,0,0,0,26,26,67,,,['l'],0,[0.9333130808718124],2018_Jul_09_1115,59.9998976001,go-nogo,001,5,
logos/1.jpg,properties1.xlsx,frogs/ab81.jpg,0,0,400,l,0,0,0,0,0,27,27,79,,,['l'],0,[0.3503903434439053],2018_Jul_09_1115,59.9998976001,go-nogo,001,5,
logos/1.jpg,properties1.xlsx,frogs/ab43.jpg,0,0,400,l,0,0,0,0,0,28,28,42,,,['l'],0,[0.9500293262472042],2018_Jul_09_1115,59.9998976001,go-nogo,001,5,
logos/1.jpg,properties1.xlsx,frogs/ab25.jpg,0,0,400,l,0,0,0,0,0,29,29,24,,,['l'],0,[1.4996214041216263],2018_Jul_09_1115,59.9998976001,go-nogo,001,5,
logos/1.jpg,properties1.xlsx,frogs/ab45.jpg,0,0,400,l,0,0,0,0,0,30,30,44,,,['l'],0,[1.583009777501502],2018_Jul_09_1115,59.9998976001,go-nogo,001,5,
logos/1.jpg,properties1.xlsx,frogs/ab75.jpg,0,0,400,l,0,0,0,0,0,31,31,73,,,['l'],0,[1.3666452195375314],2018_Jul_09_1115,59.9998976001,go-nogo,001,5,
logos/1.jpg,properties1.xlsx,frogs/ab4.jpg,0,0,400,l,0,0,0,0,0,32,32,3,,,['l'],0,[0.683456298771489],2018_Jul_09_1115,59.9998976001,go-nogo,001,5,
logos/1.jpg,properties1.xlsx,frogs/ab55.jpg,0,0,400,l,0,0,0,0,0,33,33,54,,,['l'],0,[0.40034622607345227],2018_Jul_09_1115,59.9998976001,go-nogo,001,5,
logos/1.jpg,properties1.xlsx,logos/1.jpg,0,0,400,a,0,0,0,0,0,34,34,81,,,['a'],0,[1.5160867692829925],2018_Jul_09_1115,59.9998976001,go-nogo,001,5,
logos/1.jpg,properties1.xlsx,frogs/ab7.jpg,0,0,400,l,0,0,0,0,0,35,35,6,,,['l'],0,[0.3502640500032612],2018_Jul_09_1115,59.9998976001,go-nogo,001,5,
logos/1.jpg,properties1.xlsx,logos/1.jpg,0,0,400,a,0,0,0,0,0,36,36,85,,,['a'],0,[0.13385739422483312],2018_Jul_09_1115,59.9998976001,go-nogo,001,5,
logos/1.jpg,properties1.xlsx,frogs/ab6.jpg,0,0,400,l,0,0,0,0,0,37,37,5,,,['l'],0,[0.4165436443395265],2018_Jul_09_1115,59.9998976001,go-nogo,001,5,
logos/1.jpg,properties1.xlsx,logos/1.jpg,0,0,400,a,0,0,0,0,0,38,38,89,,,['a'],0,[0.15043369281420382],2018_Jul_09_1115,59.9998976001,go-nogo,001,5,
logos/1.jpg,properties1.xlsx,frogs/ab29.jpg,0,0,400,l,0,0,0,0,0,39,39,28,,,['l'],0,[0.3669091842070884],2018_Jul_09_1115,59.9998976001,go-nogo,001,5,
logos/1.jpg,properties1.xlsx,frogs/ab67.jpg,0,0,400,l,0,0,0,0,0,40,40,65,,,['l'],0,[0.45036582431202987],2018_Jul_09_1115,59.9998976001,go-nogo,001,5,
logos/1.jpg,properties1.xlsx,frogs/ab24.jpg,0,0,400,l,0,0,0,0,0,41,41,23,,,['l'],0,[0.3170721994570158],2018_Jul_09_1115,59.9998976001,go-nogo,001,5,
logos/1.jpg,properties1.xlsx,frogs/ab12.jpg,0,0,400,l,0,0,0,0,0,42,42,11,,,['l'],0,[0.35038181010349945],2018_Jul_09_1115,59.9998976001,go-nogo,001,5,
logos/1.jpg,properties1.xlsx,frogs/ab54.jpg,0,0,400,l,0,0,0,0,0,43,43,53,,,['l'],0,[1.0166542364336237],2018_Jul_09_1115,59.9998976001,go-nogo,001,5,
logos/1.jpg,properties1.xlsx,frogs/ab74.jpg,0,0,400,l,0,0,0,0,0,44,44,72,,,['l'],0,[0.48362195935715135],2018_Jul_09_1115,59.9998976001,go-nogo,001,5,
logos/1.jpg,properties1.xlsx,frogs/ab37.jpg,0,0,400,l,0,0,0,0,0,45,45,36,,,['l'],0,[0.40023358597727565],2018_Jul_09_1115,59.9998976001,go-nogo,001,5,
logos/1.jpg,properties1.xlsx,frogs/ab48.jpg,0,0,400,l,0,0,0,0,0,46,46,47,,,['l'],0,[0.4503982510068454],2018_Jul_09_1115,59.9998976001,go-nogo,001,5,
logos/1.jpg,properties1.xlsx,frogs/ab50.jpg,0,0,400,l,0,0,0,0,0,47,47,49,,,['l'],0,[0.40015963035875757],2018_Jul_09_1115,59.9998976001,go-nogo,001,5,
logos/1.jpg,properties1.xlsx,frogs/ab38.jpg,0,0,400,l,0,0,0,0,0,48,48,37,,,['l'],0,[0.4502998331449817],2018_Jul_09_1115,59.9998976001,go-nogo,001,5,
logos/1.jpg,properties1.xlsx,frogs/ab39.jpg,0,0,400,l,0,0,0,0,0,49,49,38,,,['l'],0,[0.4169771380425118],2018_Jul_09_1115,59.9998976001,go-nogo,001,5,
logos/1.jpg,properties1.xlsx,frogs/ab21.jpg,0,0,400,l,0,0,0,0,0,50,50,20,,,['l'],0,[0.5003410491799514],2018_Jul_09_1115,59.9998976001,go-nogo,001,5,
logos/1.jpg,properties1.xlsx,frogs/ab2.jpg,0,0,400,l,0,0,0,0,0,51,51,1,,,['l'],0,[0.45029926425559097],2018_Jul_09_1115,59.9998976001,go-nogo,001,5,
logos/1.jpg,properties1.xlsx,frogs/ab18.jpg,0,0,400,l,0,0,0,0,0,52,52,17,,,['l'],0,[0.383597554003245],2018_Jul_09_1115,59.9998976001,go-nogo,001,5,
logos/1.jpg,properties1.xlsx,frogs/ab9.jpg,0,0,400,l,0,0,0,0,0,53,53,8,,,['l'],0,[1.2331274522684907],2018_Jul_09_1115,59.9998976001,go-nogo,001,5,
logos/1.jpg,properties1.xlsx,frogs/ab8.jpg,0,0,400,l,0,0,0,0,0,54,54,7,,,['l'],0,[0.5502969318090436],2018_Jul_09_1115,59.9998976001,go-nogo,001,5,
logos/1.jpg,properties1.xlsx,frogs/ab61.jpg,0,0,400,l,0,0,0,0,0,55,55,59,,,['l'],0,[0.4670194918562629],2018_Jul_09_1115,59.9998976001,go-nogo,001,5,
logos/1.jpg,properties1.xlsx,frogs/ab19.jpg,0,0,400,l,0,0,0,0,0,56,56,18,,,['l'],0,[1.3165363056668866],2018_Jul_09_1115,59.9998976001,go-nogo,001,5,
logos/1.jpg,properties1.xlsx,frogs/ab36.jpg,0,0,400,l,0,0,0,0,0,57,57,35,,,['l'],0,[1.1331360424983359],2018_Jul_09_1115,59.9998976001,go-nogo,001,5,
logos/1.jpg,properties1.xlsx,frogs/ab15.jpg,0,0,400,l,0,0,0,0,0,58,58,14,,,['l'],0,[0.9000461369282675],2018_Jul_09_1115,59.9998976001,go-nogo,001,5,
logos/1.jpg,properties1.xlsx,frogs/ab27.jpg,0,0,400,l,0,0,0,0,0,59,59,26,,,['l'],0,[0.43378326793981614],2018_Jul_09_1115,59.9998976001,go-nogo,001,5,
logos/1.jpg,properties1.xlsx,frogs/ab26.jpg,0,0,400,l,0,0,0,0,0,60,60,25,,,['l'],0,[1.033177059422087],2018_Jul_09_1115,59.9998976001,go-nogo,001,5,
logos/1.jpg,properties1.xlsx,frogs/ab51.jpg,0,0,400,l,0,0,0,0,0,61,61,50,,,['l'],0,[1.1000153031241098],2018_Jul_09_1115,59.9998976001,go-nogo,001,5,
logos/1.jpg,properties1.xlsx,frogs/ab62.jpg,0,0,400,l,0,0,0,0,0,62,62,60,,,['l'],0,[1.7162658556580936],2018_Jul_09_1115,59.9998976001,go-nogo,001,5,
logos/1.jpg,properties1.xlsx,frogs/ab76.jpg,0,0,400,l,0,0,0,0,0,63,63,74,,,['l'],0,[1.9495366680489497],2018_Jul_09_1115,59.9998976001,go-nogo,001,5,
logos/1.jpg,properties1.xlsx,frogs/ab40.jpg,0,0,400,l,0,0,0,0,0,64,64,39,,,['l'],0,[13.72606781957802],2018_Jul_09_1115,59.9998976001,go-nogo,001,5,
logos/1.jpg,properties1.xlsx,frogs/ab31.jpg,0,0,400,l,0,0,0,0,0,65,65,30,,,['l'],0,[0.20056536226002208],2018_Jul_09_1115,59.9998976001,go-nogo,001,5,
logos/1.jpg,properties1.xlsx,frogs/ab5.jpg,0,0,400,l,0,0,0,0,0,66,66,4,,,['l'],0,[1.2000260551335487],2018_Jul_09_1115,59.9998976001,go-nogo,001,5,
logos/1.jpg,properties1.xlsx,frogs/ab1.jpg,0,0,400,l,0,0,0,0,0,67,67,0,,,['l'],0,[0.30027858512676175],2018_Jul_09_1115,59.9998976001,go-nogo,001,5,
logos/1.jpg,properties1.xlsx,frogs/ab66.jpg,0,0,400,l,0,0,0,0,0,68,68,64,,,['l'],0,[1.0832285154660894],2018_Jul_09_1115,59.9998976001,go-nogo,001,5,
logos/1.jpg,properties1.xlsx,frogs/ab57.jpg,0,0,400,l,0,0,0,0,0,69,69,56,,,['l'],0,[0.10038906344334464],2018_Jul_09_1115,59.9998976001,go-nogo,001,5,
logos/1.jpg,properties1.xlsx,frogs/ab64.jpg,0,0,400,l,0,0,0,0,0,70,70,62,,,['l'],0,[0.41704312921001474],2018_Jul_09_1115,59.9998976001,go-nogo,001,5,
logos/1.jpg,properties1.xlsx,frogs/ab22.jpg,0,0,400,l,0,0,0,0,0,71,71,21,,,['l'],0,[0.11706548656275118],2018_Jul_09_1115,59.9998976001,go-nogo,001,5,
logos/1.jpg,properties1.xlsx,logos/1.jpg,0,0,400,a,0,0,0,0,0,72,72,80,,,['a'],0,[1.2331257456007734],2018_Jul_09_1115,59.9998976001,go-nogo,001,5,
logos/1.jpg,properties1.xlsx,frogs/ab63.jpg,0,0,400,l,0,0,0,0,0,73,73,61,,,['l'],0,[1.2332065278915252],2018_Jul_09_1115,59.9998976001,go-nogo,001,5,
logos/1.jpg,properties1.xlsx,logos/1.jpg,0,0,400,a,0,0,0,0,0,74,74,82,,,['a'],0,[1.0504974653135832],2018_Jul_09_1115,59.9998976001,go-nogo,001,5,
logos/1.jpg,properties1.xlsx,frogs/ab77.jpg,0,0,400,l,0,0,0,0,0,75,75,75,,,['l'],0,[1.9157753592394329],2018_Jul_09_1115,59.9998976001,go-nogo,001,5,
logos/1.jpg,properties1.xlsx,frogs/ab14.jpg,0,0,400,l,0,0,0,0,0,76,76,13,,,['l'],0,[0.7667985921125364],2018_Jul_09_1115,59.9998976001,go-nogo,001,5,
logos/1.jpg,properties1.xlsx,frogs/ab34.jpg,0,0,400,l,0,0,0,0,0,77,77,33,,,['l'],0,[0.650193337053679],2018_Jul_09_1115,59.9998976001,go-nogo,001,5,
logos/1.jpg,properties1.xlsx,frogs/ab28.jpg,0,0,400,l,0,0,0,0,0,78,78,27,,,['l'],0,[0.6502820837963554],2018_Jul_09_1115,59.9998976001,go-nogo,001,5,
logos/1.jpg,properties1.xlsx,frogs/ab35.jpg,0,0,400,l,0,0,0,0,0,79,79,34,,,['l'],0,[0.9668815361833367],2018_Jul_09_1115,59.9998976001,go-nogo,001,5,
logos/1.jpg,properties1.xlsx,frogs/ab32.jpg,0,0,400,l,0,0,0,0,0,80,80,31,,,['l'],0,[0.9501897530503811],2018_Jul_09_1115,59.9998976001,go-nogo,001,5,
logos/1.jpg,properties1.xlsx,logos/1.jpg,0,0,400,a,0,0,0,0,0,81,81,87,,,['a'],0,[0.7500999823078018],2018_Jul_09_1115,59.9998976001,go-nogo,001,5,
logos/1.jpg,properties1.xlsx,frogs/ab56.jpg,0,0,400,l,0,0,0,0,0,82,82,55,,,['l'],0,[0.9001678792542407],2018_Jul_09_1115,59.9998976001,go-nogo,001,5,
logos/1.jpg,properties1.xlsx,logos/1.jpg,0,0,400,a,0,0,0,0,0,83,83,84,,,['a'],0,[0.9165956977171845],2018_Jul_09_1115,59.9998976001,go-nogo,001,5,
logos/1.jpg,properties1.xlsx,frogs/ab79.jpg,0,0,400,l,0,0,0,0,0,84,84,77,,,['l'],0,[4.198162942432191],2018_Jul_09_1115,59.9998976001,go-nogo,001,5,
logos/1.jpg,properties1.xlsx,frogs/ab52.jpg,0,0,400,l,0,0,0,0,0,85,85,51,,,['l'],0,[0.6331084513635687],2018_Jul_09_1115,59.9998976001,go-nogo,001,5,
logos/1.jpg,properties1.xlsx,frogs/ab47.jpg,0,0,400,l,0,0,0,0,0,86,86,46,,,['l'],0,[0.3668938241939941],2018_Jul_09_1115,59.9998976001,go-nogo,001,5,
logos/1.jpg,properties1.xlsx,frogs/ab53.jpg,0,0,400,l,0,0,0,0,0,87,87,52,,,['l'],0,[0.43365583671948116],2018_Jul_09_1115,59.9998976001,go-nogo,001,5,
logos/1.jpg,properties1.xlsx,frogs/ab33.jpg,0,0,400,l,0,0,0,0,0,88,88,32,,,['l'],0,[0.35051891244256694],2018_Jul_09_1115,59.9998976001,go-nogo,001,5,
logos/1.jpg,properties1.xlsx,frogs/ab80.jpg,0,0,400,l,0,0,0,0,0,89,89,78,,,['l'],0,[0.30037757187801617],2018_Jul_09_1115,59.9998976001,go-nogo,001,5,
logos/1.jpg,properties1.xlsx,,,,,,0,0,0,0,,,,,,,,,,2018_Jul_09_1115,59.9998976001,go-nogo,001,5,
logos/4.jpg,properties4.xlsx,frogs/ab15.jpg,0,0,400,l,0,1,1,3,0,0,0,14,space,13.3726686202,['l'],0,[4.664627767148886],2018_Jul_09_1115,59.9998976001,go-nogo,001,5,
logos/4.jpg,properties4.xlsx,frogs/ab73.jpg,0,0,400,l,0,1,1,3,0,1,1,71,,,['l'],0,[7.596287086609664],2018_Jul_09_1115,59.9998976001,go-nogo,001,5,
logos/4.jpg,properties4.xlsx,frogs/ab64.jpg,0,0,400,l,0,1,1,3,0,2,2,62,,,['l'],0,[0.0504587808359247],2018_Jul_09_1115,59.9998976001,go-nogo,001,5,
logos/4.jpg,properties4.xlsx,frogs/ab17.jpg,0,0,400,l,0,1,1,3,0,3,3,16,,,['l'],0,[1.2497589331278505],2018_Jul_09_1115,59.9998976001,go-nogo,001,5,
logos/4.jpg,properties4.xlsx,frogs/ab19.jpg,0,0,400,l,0,1,1,3,0,4,4,18,,,['l'],0,[0.017186716888318188],2018_Jul_09_1115,59.9998976001,go-nogo,001,5,
logos/4.jpg,properties4.xlsx,frogs/ab25.jpg,0,0,400,l,0,1,1,3,0,5,5,24,,,['l'],0,[0.5501114738726756],2018_Jul_09_1115,59.9998976001,go-nogo,001,5,
logos/4.jpg,properties4.xlsx,frogs/ab38.jpg,0,0,400,l,0,1,1,3,0,6,6,37,,,['l'],0,[0.06714316840680112],2018_Jul_09_1115,59.9998976001,go-nogo,001,5,
logos/4.jpg,properties4.xlsx,frogs/ab65.jpg,0,0,400,l,0,1,1,3,0,7,7,63,,,['l'],0,[0.03443146049266943],2018_Jul_09_1115,59.9998976001,go-nogo,001,5,
logos/4.jpg,properties4.xlsx,frogs/ab32.jpg,0,0,400,l,0,1,1,3,0,8,8,31,,,['l'],0,[0.0005802671616947919],2018_Jul_09_1115,59.9998976001,go-nogo,001,5,
logos/4.jpg,properties4.xlsx,frogs/ab27.jpg,0,0,400,l,0,1,1,3,0,9,9,26,,,['l'],0,[0.017324957006167097],2018_Jul_09_1115,59.9998976001,go-nogo,001,5,
logos/4.jpg,properties4.xlsx,frogs/ab18.jpg,0,0,400,l,0,1,1,3,0,10,10,17,,,['l'],0,[0.4515280653040463],2018_Jul_09_1115,59.9998976001,go-nogo,001,5,
logos/4.jpg,properties4.xlsx,frogs/ab29.jpg,0,0,400,l,0,1,1,3,0,11,11,28,,,['l'],0,[0.7668219165771006],2018_Jul_09_1115,59.9998976001,go-nogo,001,5,
logos/4.jpg,properties4.xlsx,frogs/ab76.jpg,0,0,400,l,0,1,1,3,0,12,12,74,,,['l'],0,[0.6669380268981513],2018_Jul_09_1115,59.9998976001,go-nogo,001,5,
logos/4.jpg,properties4.xlsx,frogs/ab75.jpg,0,0,400,l,0,1,1,3,0,13,13,73,,,['l'],0,[0.3505103791021611],2018_Jul_09_1115,59.9998976001,go-nogo,001,5,
logos/4.jpg,properties4.xlsx,frogs/ab7.jpg,0,0,400,l,0,1,1,3,0,14,14,6,,,['l'],0,[0.3336695469533879],2018_Jul_09_1115,59.9998976001,go-nogo,001,5,
logos/4.jpg,properties4.xlsx,logos/4.jpg,0,0,400,a,0,1,1,3,0,15,15,87,,,['a'],0,[0.8002373406466177],2018_Jul_09_1115,59.9998976001,go-nogo,001,5,
logos/4.jpg,properties4.xlsx,logos/4.jpg,0,0,400,a,0,1,1,3,0,16,16,80,,,['a'],0,[0.5668612837216642],2018_Jul_09_1115,59.9998976001,go-nogo,001,5,
logos/4.jpg,properties4.xlsx,frogs/ab56.jpg,0,0,400,l,0,1,1,3,0,17,17,55,,,['l'],0,[0.18381498352209746],2018_Jul_09_1115,59.9998976001,go-nogo,001,5,
logos/4.jpg,properties4.xlsx,frogs/ab40.jpg,0,0,400,l,0,1,1,3,0,18,18,39,,,['l'],0,[0.3835309939463514],2018_Jul_09_1115,59.9998976001,go-nogo,001,5,
logos/4.jpg,properties4.xlsx,frogs/ab41.jpg,0,0,400,l,0,1,1,3,0,19,19,40,,,['l'],0,[0.36698939760890426],2018_Jul_09_1115,59.9998976001,go-nogo,001,5,
logos/4.jpg,properties4.xlsx,frogs/ab63.jpg,0,0,400,l,0,1,1,3,0,20,20,61,,,['l'],0,[0.4169555202461197],2018_Jul_09_1115,59.9998976001,go-nogo,001,5,
logos/4.jpg,properties4.xlsx,logos/4.jpg,0,0,400,a,0,1,1,3,0,21,21,82,,,['a'],0,[0.483688519414045],2018_Jul_09_1115,59.9998976001,go-nogo,001,5,
logos/4.jpg,properties4.xlsx,frogs/ab52.jpg,0,0,400,l,0,1,1,3,0,22,22,51,,,['l'],0,[0.050519651998911286],2018_Jul_09_1115,59.9998976001,go-nogo,001,5,
logos/4.jpg,properties4.xlsx,frogs/ab23.jpg,0,0,400,l,0,1,1,3,0,23,23,22,,,['l'],0,[0.7500510578211106],2018_Jul_09_1115,59.9998976001,go-nogo,001,5,
logos/4.jpg,properties4.xlsx,frogs/ab57.jpg,0,0,400,l,0,1,1,3,0,24,24,56,,,['l'],0,[0.13393817651649442],2018_Jul_09_1115,59.9998976001,go-nogo,001,5,
logos/4.jpg,properties4.xlsx,frogs/ab21.jpg,0,0,400,l,0,1,1,3,0,25,25,20,,,['l'],0,[0.5335749975397448],2018_Jul_09_1115,59.9998976001,go-nogo,001,5,
logos/4.jpg,properties4.xlsx,frogs/ab2.jpg,0,0,400,l,0,1,1,3,0,26,26,1,,,['l'],0,[0.08380878262823899],2018_Jul_09_1115,59.9998976001,go-nogo,001,5,
logos/4.jpg,properties4.xlsx,frogs/ab61.jpg,0,0,400,l,0,1,1,3,0,27,27,59,,,['l'],0,[0.13387218534853673],2018_Jul_09_1115,59.9998976001,go-nogo,001,5,
logos/4.jpg,properties4.xlsx,frogs/ab13.jpg,0,0,400,l,0,1,1,3,0,28,28,12,,,['l'],0,[0.4171745426556299],2018_Jul_09_1115,59.9998976001,go-nogo,001,5,
logos/4.jpg,properties4.xlsx,frogs/ab45.jpg,0,0,400,l,0,1,1,3,0,29,29,44,,,['l'],0,[0.3836442029319187],2018_Jul_09_1115,59.9998976001,go-nogo,001,5,
logos/4.jpg,properties4.xlsx,frogs/ab9.jpg,0,0,400,l,0,1,1,3,0,30,30,8,,,['l'],0,[0.11705410877493705],2018_Jul_09_1115,59.9998976001,go-nogo,001,5,
logos/4.jpg,properties4.xlsx,frogs/ab60.jpg,0,0,400,l,0,1,1,3,0,31,31,58,,,['l'],0,[0.4171233426118306],2018_Jul_09_1115,59.9998976001,go-nogo,001,5,
logos/4.jpg,properties4.xlsx,frogs/ab78.jpg,0,0,400,l,0,1,1,3,0,32,32,76,,,['l'],0,[0.6167858774347224],2018_Jul_09_1115,59.9998976001,go-nogo,001,5,
logos/4.jpg,properties4.xlsx,frogs/ab42.jpg,0,0,400,l,0,1,1,3,0,33,33,41,,,['l'],0,[0.06718867955669339],2018_Jul_09_1115,59.9998976001,go-nogo,001,5,
logos/4.jpg,properties4.xlsx,frogs/ab39.jpg,0,0,400,l,0,1,1,3,0,34,34,38,,,['l'],0,[0.10024342776341655],2018_Jul_09_1115,59.9998976001,go-nogo,001,5,
logos/4.jpg,properties4.xlsx,logos/4.jpg,0,0,400,a,0,1,1,3,0,35,35,83,,,['a'],0,[0.6001771521514456],2018_Jul_09_1115,59.9998976001,go-nogo,001,5,
logos/4.jpg,properties4.xlsx,frogs/ab14.jpg,0,0,400,l,0,1,1,3,0,36,36,13,,,['l'],0,[0.13370379409388988],2018_Jul_09_1115,59.9998976001,go-nogo,001,5,
logos/4.jpg,properties4.xlsx,frogs/ab50.jpg,0,0,400,l,0,1,1,3,0,37,37,49,,,['l'],0,[0.05058564316641423],2018_Jul_09_1115,59.9998976001,go-nogo,001,5,
logos/4.jpg,properties4.xlsx,frogs/ab62.jpg,0,0,400,l,0,1,1,3,0,38,38,60,,,['l'],0,[0.10628844625489364],2018_Jul_09_1115,59.9998976001,go-nogo,001,5,
logos/4.jpg,properties4.xlsx,frogs/ab53.jpg,0,0,400,l,0,1,1,3,0,39,39,52,,,['l'],0,[0.16709077369523584],2018_Jul_09_1115,59.9998976001,go-nogo,001,5,
logos/4.jpg,properties4.xlsx,logos/4.jpg,0,0,400,a,0,1,1,3,0,40,40,89,,,['a'],0,[0.5168092587882711],2018_Jul_09_1115,59.9998976001,go-nogo,001,5,
logos/4.jpg,properties4.xlsx,frogs/ab66.jpg,0,0,400,l,0,1,1,3,0,41,41,64,,,['l'],0,[0.4001033103104419],2018_Jul_09_1115,59.9998976001,go-nogo,001,5,
logos/4.jpg,properties4.xlsx,frogs/ab26.jpg,0,0,400,l,0,1,1,3,0,42,42,25,,,['l'],0,[0.4168844090750099],2018_Jul_09_1115,59.9998976001,go-nogo,001,5,
logos/4.jpg,properties4.xlsx,frogs/ab6.jpg,0,0,400,l,0,1,1,3,0,43,43,5,,,['l'],0,[0.5834102756211905],2018_Jul_09_1115,59.9998976001,go-nogo,001,5,
logos/4.jpg,properties4.xlsx,frogs/ab67.jpg,0,0,400,l,0,1,1,3,0,44,44,65,,,['l'],0,[0.016977934487840685],2018_Jul_09_1115,59.9998976001,go-nogo,001,5,
logos/4.jpg,properties4.xlsx,frogs/ab68.jpg,0,0,400,l,0,1,1,3,0,45,45,66,,,['l'],0,[0.0005814049404762045],2018_Jul_09_1115,59.9998976001,go-nogo,001,5,
logos/4.jpg,properties4.xlsx,frogs/ab4.jpg,0,0,400,l,0,1,1,3,0,46,46,3,,,['l'],0,[0.31677296364659924],2018_Jul_09_1115,59.9998976001,go-nogo,001,5,
logos/4.jpg,properties4.xlsx,logos/4.jpg,0,0,400,a,0,1,1,3,0,47,47,84,,,['a'],0,[0.3668739130657741],2018_Jul_09_1115,59.9998976001,go-nogo,001,5,
logos/4.jpg,properties4.xlsx,frogs/ab54.jpg,0,0,400,l,0,1,1,3,0,48,48,53,,,['l'],0,[0.08389297825578979],2018_Jul_09_1115,59.9998976001,go-nogo,001,5,
logos/4.jpg,properties4.xlsx,frogs/ab34.jpg,0,0,400,l,0,1,1,3,0,49,49,33,,,['l'],0,[0.3169953993915442],2018_Jul_09_1115,59.9998976001,go-nogo,001,5,
logos/4.jpg,properties4.xlsx,frogs/ab1.jpg,0,0,400,l,0,1,1,3,0,50,50,0,,,['l'],0,[0.31679173699558305],2018_Jul_09_1115,59.9998976001,go-nogo,001,5,
logos/4.jpg,properties4.xlsx,frogs/ab58.jpg,0,0,400,l,0,1,1,3,0,51,51,57,,,['l'],0,[0.35021341884839785],2018_Jul_09_1115,59.9998976001,go-nogo,001,5,
logos/4.jpg,properties4.xlsx,frogs/ab74.jpg,0,0,400,l,0,1,1,3,0,52,52,72,,,['l'],0,[0.6168751930667895],2018_Jul_09_1115,59.9998976001,go-nogo,001,5,
logos/4.jpg,properties4.xlsx,logos/4.jpg,0,0,400,a,0,1,1,3,0,53,53,88,,,['a'],0,[0.43360293000796446],2018_Jul_09_1115,59.9998976001,go-nogo,001,5,
logos/4.jpg,properties4.xlsx,frogs/ab81.jpg,0,0,400,l,0,1,1,3,0,54,54,79,,,['l'],0,[0.3168070970086774],2018_Jul_09_1115,59.9998976001,go-nogo,001,5,
logos/4.jpg,properties4.xlsx,logos/4.jpg,0,0,400,a,0,1,1,3,0,55,55,86,,,['a'],0,[0.7667838009888328],2018_Jul_09_1115,59.9998976001,go-nogo,001,5,
logos/4.jpg,properties4.xlsx,frogs/ab49.jpg,0,0,400,l,0,1,1,3,0,56,56,48,,,['l'],0,[0.06702939053184309],2018_Jul_09_1115,59.9998976001,go-nogo,001,5,
logos/4.jpg,properties4.xlsx,frogs/ab51.jpg,0,0,400,l,0,1,1,3,0,57,57,50,,,['l'],0,[0.10050284131784792],2018_Jul_09_1115,59.9998976001,go-nogo,001,5,
logos/4.jpg,properties4.xlsx,frogs/ab47.jpg,0,0,400,l,0,1,1,3,0,58,58,46,,,['l'],0,[0.3336968536432323],2018_Jul_09_1115,59.9998976001,go-nogo,001,5,
logos/4.jpg,properties4.xlsx,frogs/ab30.jpg,0,0,400,l,0,1,1,3,0,59,59,29,,,['l'],0,[0.13383577642889577],2018_Jul_09_1115,59.9998976001,go-nogo,001,5,
logos/4.jpg,properties4.xlsx,frogs/ab70.jpg,0,0,400,l,0,1,1,3,0,60,60,68,,,['l'],0,[0.10029747225371466],2018_Jul_09_1115,59.9998976001,go-nogo,001,5,
logos/4.jpg,properties4.xlsx,frogs/ab12.jpg,0,0,400,l,0,1,1,3,0,61,61,11,,,['l'],0,[0.6337558474715479],2018_Jul_09_1115,59.9998976001,go-nogo,001,5,
logos/4.jpg,properties4.xlsx,frogs/ab44.jpg,0,0,400,l,0,1,1,3,0,62,62,43,,,['l'],0,[1.083283697735169],2018_Jul_09_1115,59.9998976001,go-nogo,001,5,
logos/4.jpg,properties4.xlsx,frogs/ab36.jpg,0,0,400,l,0,1,1,3,0,63,63,35,,,['l'],0,[0.016889187745164236],2018_Jul_09_1115,59.9998976001,go-nogo,001,5,
logos/4.jpg,properties4.xlsx,frogs/ab11.jpg,0,0,400,l,0,1,1,3,0,64,64,10,,,['l'],0,[0.5835968713358852],2018_Jul_09_1115,59.9998976001,go-nogo,001,5,
logos/4.jpg,properties4.xlsx,frogs/ab20.jpg,0,0,400,l,0,1,1,3,0,65,65,19,,,['l'],0,[0.23377314170875252],2018_Jul_09_1115,59.9998976001,go-nogo,001,5,
logos/4.jpg,properties4.xlsx,logos/4.jpg,0,0,400,a,0,1,1,3,0,66,66,85,,,['a'],0,[0.10068886814315192],2018_Jul_09_1115,59.9998976001,go-nogo,001,5,
logos/4.jpg,properties4.xlsx,frogs/ab43.jpg,0,0,400,l,0,1,1,3,0,67,67,42,,,['l'],0,[0.18370405009409296],2018_Jul_09_1115,59.9998976001,go-nogo,001,5,
logos/4.jpg,properties4.xlsx,frogs/ab28.jpg,0,0,400,l,0,1,1,3,0,68,68,27,,,['l'],0,[0.46670546492168796],2018_Jul_09_1115,59.9998976001,go-nogo,001,5,
logos/4.jpg,properties4.xlsx,frogs/ab24.jpg,0,0,400,l,0,1,1,3,0,69,69,23,,,['l'],0,[0.01717818354791234],2018_Jul_09_1115,59.9998976001,go-nogo,001,5,
logos/4.jpg,properties4.xlsx,frogs/ab37.jpg,0,0,400,l,0,1,1,3,0,70,70,36,,,['l'],0,[0.05035069185487373],2018_Jul_09_1115,59.9998976001,go-nogo,001,5,
logos/4.jpg,properties4.xlsx,frogs/ab8.jpg,0,0,400,l,0,1,1,3,0,71,71,7,,,['l'],0,[0.4180654234155554],2018_Jul_09_1115,59.9998976001,go-nogo,001,5,
logos/4.jpg,properties4.xlsx,frogs/ab31.jpg,0,0,400,l,0,1,1,3,0,72,72,30,,,['l'],0,[0.0005836804980390298],2018_Jul_09_1115,59.9998976001,go-nogo,001,5,
logos/4.jpg,properties4.xlsx,frogs/ab5.jpg,0,0,400,l,0,1,1,3,0,73,73,4,,,['l'],0,[0.3834166471824574],2018_Jul_09_1115,59.9998976001,go-nogo,001,5,
logos/4.jpg,properties4.xlsx,frogs/ab46.jpg,0,0,400,l,0,1,1,3,0,74,74,45,,,['l'],0,[0.26704861899270327],2018_Jul_09_1115,59.9998976001,go-nogo,001,5,
logos/4.jpg,properties4.xlsx,frogs/ab69.jpg,0,0,400,l,0,1,1,3,0,75,75,67,,,['l'],0,[0.3169129104321655],2018_Jul_09_1115,59.9998976001,go-nogo,001,5,
logos/4.jpg,properties4.xlsx,frogs/ab33.jpg,0,0,400,l,0,1,1,3,0,76,76,32,,,['l'],0,[0.28371935321820274],2018_Jul_09_1115,59.9998976001,go-nogo,001,5,
logos/4.jpg,properties4.xlsx,frogs/ab71.jpg,0,0,400,l,0,1,1,3,0,77,77,69,,,['l'],0,[0.3669154419899314],2018_Jul_09_1115,59.9998976001,go-nogo,001,5,
logos/4.jpg,properties4.xlsx,frogs/ab72.jpg,0,0,400,l,0,1,1,3,0,78,78,70,,,['l'],0,[0.33374407146175145],2018_Jul_09_1115,59.9998976001,go-nogo,001,5,
logos/4.jpg,properties4.xlsx,frogs/ab48.jpg,0,0,400,l,0,1,1,3,0,79,79,47,,,['l'],0,[0.2670764945719384],2018_Jul_09_1115,59.9998976001,go-nogo,001,5,
logos/4.jpg,properties4.xlsx,frogs/ab80.jpg,0,0,400,l,0,1,1,3,0,80,80,78,,,['l'],0,[0.3335210668265063],2018_Jul_09_1115,59.9998976001,go-nogo,001,5,
logos/4.jpg,properties4.xlsx,frogs/ab22.jpg,0,0,400,l,0,1,1,3,0,81,81,21,,,['l'],0,[0.6168700730627279],2018_Jul_09_1115,59.9998976001,go-nogo,001,5,
logos/4.jpg,properties4.xlsx,frogs/ab77.jpg,0,0,400,l,0,1,1,3,0,82,82,75,,,['l'],0,[0.2837921710579394],2018_Jul_09_1115,59.9998976001,go-nogo,001,5,
logos/4.jpg,properties4.xlsx,frogs/ab79.jpg,0,0,400,l,0,1,1,3,0,83,83,77,,,['l'],0,[0.1506840041392934],2018_Jul_09_1115,59.9998976001,go-nogo,001,5,
logos/4.jpg,properties4.xlsx,frogs/ab3.jpg,0,0,400,l,0,1,1,3,0,84,84,2,,,['l'],0,[0.7998192069567267],2018_Jul_09_1115,59.9998976001,go-nogo,001,5,
logos/4.jpg,properties4.xlsx,frogs/ab10.jpg,0,0,400,l,0,1,1,3,0,85,85,9,,,['l'],0,[0.05064708321879152],2018_Jul_09_1115,59.9998976001,go-nogo,001,5,
logos/4.jpg,properties4.xlsx,logos/4.jpg,0,0,400,a,0,1,1,3,0,86,86,81,,,['a'],0,[0.28361410868365056],2018_Jul_09_1115,59.9998976001,go-nogo,001,5,
logos/4.jpg,properties4.xlsx,frogs/ab35.jpg,0,0,400,l,0,1,1,3,0,87,87,34,,,['l'],0,[0.33355463129964846],2018_Jul_09_1115,59.9998976001,go-nogo,001,5,
logos/4.jpg,properties4.xlsx,frogs/ab16.jpg,0,0,400,l,0,1,1,3,0,88,88,15,,,['l'],0,[0.41720014267775696],2018_Jul_09_1115,59.9998976001,go-nogo,001,5,
logos/4.jpg,properties4.xlsx,frogs/ab55.jpg,0,0,400,l,0,1,1,3,0,89,89,54,,,['l'],0,[0.017109347933455865],2018_Jul_09_1115,59.9998976001,go-nogo,001,5,
logos/4.jpg,properties4.xlsx,,,,,,0,1,1,3,,,,,,,,,,2018_Jul_09_1115,59.9998976001,go-nogo,001,5,
logos/2.jpg,properties2.xlsx,frogs/ab31.jpg,0,0,400,l,0,2,2,1,0,0,0,30,space,2.34669483807,['l'],0,[0.5335402952873665],2018_Jul_09_1115,59.9998976001,go-nogo,001,5,
logos/2.jpg,properties2.xlsx,frogs/ab16.jpg,0,0,400,l,0,2,2,1,0,1,1,15,,,['l'],0,[0.7667206542682834],2018_Jul_09_1115,59.9998976001,go-nogo,001,5,
logos/2.jpg,properties2.xlsx,frogs/ab20.jpg,0,0,400,l,0,2,2,1,0,2,2,19,,,['l'],0,[0.300281998463106],2018_Jul_09_1115,59.9998976001,go-nogo,001,5,
logos/2.jpg,properties2.xlsx,frogs/ab8.jpg,0,0,400,l,0,2,2,1,0,3,3,7,,,['l'],0,[0.3003991896739535],2018_Jul_09_1115,59.9998976001,go-nogo,001,5,
logos/2.jpg,properties2.xlsx,frogs/ab70.jpg,0,0,400,l,0,2,2,1,0,4,4,68,,,['l'],0,[0.35033857451117],2018_Jul_09_1115,59.9998976001,go-nogo,001,5,
logos/2.jpg,properties2.xlsx,logos/2.jpg,0,0,400,a,0,2,2,1,0,5,5,80,,,['a'],0,[0.6670535114412814],2018_Jul_09_1115,59.9998976001,go-nogo,001,5,
logos/2.jpg,properties2.xlsx,frogs/ab7.jpg,0,0,400,l,0,2,2,1,0,6,6,6,,,['l'],0,[0.13365088738237318],2018_Jul_09_1115,59.9998976001,go-nogo,001,5,
logos/2.jpg,properties2.xlsx,frogs/ab33.jpg,0,0,400,l,0,2,2,1,0,7,7,32,,,['l'],0,[0.3004623363945029],2018_Jul_09_1115,59.9998976001,go-nogo,001,5,
logos/2.jpg,properties2.xlsx,frogs/ab80.jpg,0,0,400,l,0,2,2,1,0,8,8,78,,,['l'],0,[0.40023699931316514],2018_Jul_09_1115,59.9998976001,go-nogo,001,5,
logos/2.jpg,properties2.xlsx,frogs/ab27.jpg,0,0,400,l,0,2,2,1,0,9,9,26,,,['l'],0,[0.15121364014657956],2018_Jul_09_1115,59.9998976001,go-nogo,001,5,
logos/2.jpg,properties2.xlsx,frogs/ab24.jpg,0,0,400,l,0,2,2,1,0,10,10,23,,,['l'],0,[0.36693421533937],2018_Jul_09_1115,59.9998976001,go-nogo,001,5,
logos/2.jpg,properties2.xlsx,frogs/ab51.jpg,0,0,400,l,0,2,2,1,0,11,11,50,,,['l'],0,[0.3337326936739373],2018_Jul_09_1115,59.9998976001,go-nogo,001,5,
logos/2.jpg,properties2.xlsx,frogs/ab47.jpg,0,0,400,l,0,2,2,1,0,12,12,46,,,['l'],0,[0.0005961960641798214],2018_Jul_09_1115,59.9998976001,go-nogo,001,5,
logos/2.jpg,properties2.xlsx,logos/2.jpg,0,0,400,a,0,2,2,1,0,13,13,85,,,['a'],0,[0.5502741762338701],2018_Jul_09_1115,59.9998976001,go-nogo,001,5,
logos/2.jpg,properties2.xlsx,frogs/ab28.jpg,0,0,400,l,0,2,2,1,0,14,14,27,,,['l'],0,[0.21719456756181899],2018_Jul_09_1115,59.9998976001,go-nogo,001,5,
logos/2.jpg,properties2.xlsx,logos/2.jpg,0,0,400,a,0,2,2,1,0,15,15,88,,,['a'],0,[0.7167994738911148],2018_Jul_09_1115,59.9998976001,go-nogo,001,5,
logos/2.jpg,properties2.xlsx,frogs/ab43.jpg,0,0,400,l,0,2,2,1,0,16,16,42,,,['l'],0,[0.33359729800304194],2018_Jul_09_1115,59.9998976001,go-nogo,001,5,
logos/2.jpg,properties2.xlsx,frogs/ab77.jpg,0,0,400,l,0,2,2,1,0,17,17,75,,,['l'],0,[0.16723754715394534],2018_Jul_09_1115,59.9998976001,go-nogo,001,5,
logos/2.jpg,properties2.xlsx,frogs/ab63.jpg,0,0,400,l,0,2,2,1,0,18,18,61,,,['l'],0,[0.8502068766206321],2018_Jul_09_1115,59.9998976001,go-nogo,001,5,
logos/2.jpg,properties2.xlsx,frogs/ab3.jpg,0,0,400,l,0,2,2,1,0,19,19,2,,,['l'],0,[0.2504706137347057],2018_Jul_09_1115,59.9998976001,go-nogo,001,5,
logos/2.jpg,properties2.xlsx,frogs/ab48.jpg,0,0,400,l,0,2,2,1,0,20,20,47,,,['l'],0,[0.4165959821616525],2018_Jul_09_1115,59.9998976001,go-nogo,001,5,
logos/2.jpg,properties2.xlsx,frogs/ab29.jpg,0,0,400,l,0,2,2,1,0,21,21,28,,,['l'],0,[0.31705285721818655],2018_Jul_09_1115,59.9998976001,go-nogo,001,5,
logos/2.jpg,properties2.xlsx,frogs/ab35.jpg,0,0,400,l,0,2,2,1,0,22,22,34,,,['l'],0,[0.3169225815518075],2018_Jul_09_1115,59.9998976001,go-nogo,001,5,
logos/2.jpg,properties2.xlsx,logos/2.jpg,0,0,400,a,0,2,2,1,0,23,23,89,,,['a'],0,[0.6169855576054033],2018_Jul_09_1115,59.9998976001,go-nogo,001,5,
logos/2.jpg,properties2.xlsx,frogs/ab37.jpg,0,0,400,l,0,2,2,1,0,24,24,36,,,['l'],0,[0.16707541368214152],2018_Jul_09_1115,59.9998976001,go-nogo,001,5,
logos/2.jpg,properties2.xlsx,frogs/ab2.jpg,0,0,400,l,0,2,2,1,0,25,25,1,,,['l'],0,[0.05052704756099047],2018_Jul_09_1115,59.9998976001,go-nogo,001,5,
logos/2.jpg,properties2.xlsx,frogs/ab54.jpg,0,0,400,l,0,2,2,1,0,26,26,53,,,['l'],0,[0.13383520753950506],2018_Jul_09_1115,59.9998976001,go-nogo,001,5,
logos/2.jpg,properties2.xlsx,frogs/ab42.jpg,0,0,400,l,0,2,2,1,0,27,27,41,,,['l'],0,[0.3835793495436519],2018_Jul_09_1115,59.9998976001,go-nogo,001,5,
logos/2.jpg,properties2.xlsx,frogs/ab44.jpg,0,0,400,l,0,2,2,1,0,28,28,43,,,['l'],0,[0.08389923603863281],2018_Jul_09_1115,59.9998976001,go-nogo,001,5,
logos/2.jpg,properties2.xlsx,frogs/ab69.jpg,0,0,400,l,0,2,2,1,0,29,29,67,,,['l'],0,[0.5004394670413603],2018_Jul_09_1115,59.9998976001,go-nogo,001,5,
logos/2.jpg,properties2.xlsx,frogs/ab38.jpg,0,0,400,l,0,2,2,1,0,30,30,37,,,['l'],0,[0.017120725720815244],2018_Jul_09_1115,59.9998976001,go-nogo,001,5,
logos/2.jpg,properties2.xlsx,frogs/ab6.jpg,0,0,400,l,0,2,2,1,0,31,31,5,,,['l'],0,[0.41671601781945355],2018_Jul_09_1115,59.9998976001,go-nogo,001,5,
logos/2.jpg,properties2.xlsx,frogs/ab52.jpg,0,0,400,l,0,2,2,1,0,32,32,51,,,['l'],0,[0.8165070078639474],2018_Jul_09_1115,59.9998976001,go-nogo,001,5,
logos/2.jpg,properties2.xlsx,frogs/ab75.jpg,0,0,400,l,0,2,2,1,0,33,33,73,,,['l'],0,[0.15046953284490883],2018_Jul_09_1115,59.9998976001,go-nogo,001,5,
logos/2.jpg,properties2.xlsx,frogs/ab13.jpg,0,0,400,l,0,2,2,1,0,34,34,12,,,['l'],0,[0.017202645790803217],2018_Jul_09_1115,59.9998976001,go-nogo,001,5,
logos/2.jpg,properties2.xlsx,frogs/ab25.jpg,0,0,400,l,0,2,2,1,0,35,35,24,,,['l'],0,[0.0005740093783970224],2018_Jul_09_1115,59.9998976001,go-nogo,001,5,
logos/2.jpg,properties2.xlsx,logos/2.jpg,0,0,400,a,0,2,2,1,0,36,36,83,,,['a'],0,[1.1165034238606495],2018_Jul_09_1115,59.9998976001,go-nogo,001,5,
logos/2.jpg,properties2.xlsx,frogs/ab57.jpg,0,0,400,l,0,2,2,1,0,37,37,56,,,['l'],0,[0.48362195935715135],2018_Jul_09_1115,59.9998976001,go-nogo,001,5,
logos/2.jpg,properties2.xlsx,frogs/ab23.jpg,0,0,400,l,0,2,2,1,0,38,38,22,,,['l'],0,[0.000576284936414595],2018_Jul_09_1115,59.9998976001,go-nogo,001,5,
logos/2.jpg,properties2.xlsx,logos/2.jpg,0,0,400,a,0,2,2,1,0,39,39,82,,,['a'],0,[0.11722477558760147],2018_Jul_09_1115,59.9998976001,go-nogo,001,5,
logos/2.jpg,properties2.xlsx,frogs/ab66.jpg,0,0,400,l,0,2,2,1,0,40,40,64,,,['l'],0,[0.40057093737596006],2018_Jul_09_1115,59.9998976001,go-nogo,001,5,
logos/2.jpg,properties2.xlsx,frogs/ab4.jpg,0,0,400,l,0,2,2,1,0,41,41,3,,,['l'],0,[0.06709879503523553],2018_Jul_09_1115,59.9998976001,go-nogo,001,5,
logos/2.jpg,properties2.xlsx,frogs/ab18.jpg,0,0,400,l,0,2,2,1,0,42,42,17,,,['l'],0,[0.6335760784295417],2018_Jul_09_1115,59.9998976001,go-nogo,001,5,
logos/2.jpg,properties2.xlsx,frogs/ab26.jpg,0,0,400,l,0,2,2,1,0,43,43,25,,,['l'],0,[0.25043932481912634],2018_Jul_09_1115,59.9998976001,go-nogo,001,5,
logos/2.jpg,properties2.xlsx,frogs/ab15.jpg,0,0,400,l,0,2,2,1,0,44,44,14,,,['l'],0,[0.06708627946909473],2018_Jul_09_1115,59.9998976001,go-nogo,001,5,
logos/2.jpg,properties2.xlsx,frogs/ab10.jpg,0,0,400,l,0,2,2,1,0,45,45,9,,,['l'],0,[0.03387793113142834],2018_Jul_09_1115,59.9998976001,go-nogo,001,5,
logos/2.jpg,properties2.xlsx,frogs/ab81.jpg,0,0,400,l,0,2,2,1,0,46,46,79,,,['l'],0,[0.13361390957288677],2018_Jul_09_1115,59.9998976001,go-nogo,001,5,
logos/2.jpg,properties2.xlsx,frogs/ab21.jpg,0,0,400,l,0,2,2,1,0,47,47,20,,,['l'],0,[0.31712624394776867],2018_Jul_09_1115,59.9998976001,go-nogo,001,5,
logos/2.jpg,properties2.xlsx,frogs/ab73.jpg,0,0,400,l,0,2,2,1,0,48,48,71,,,['l'],0,[0.05048381196866103],2018_Jul_09_1115,59.9998976001,go-nogo,001,5,
logos/2.jpg,properties2.xlsx,frogs/ab71.jpg,0,0,400,l,0,2,2,1,0,49,49,69,,,['l'],0,[0.033728313225765305],2018_Jul_09_1115,59.9998976001,go-nogo,001,5,
logos/2.jpg,properties2.xlsx,frogs/ab39.jpg,0,0,400,l,0,2,2,1,0,50,50,38,,,['l'],0,[0.5336478153794815],2018_Jul_09_1115,59.9998976001,go-nogo,001,5,
logos/2.jpg,properties2.xlsx,frogs/ab56.jpg,0,0,400,l,0,2,2,1,0,51,51,55,,,['l'],0,[0.4335830188797445],2018_Jul_09_1115,59.9998976001,go-nogo,001,5,
logos/2.jpg,properties2.xlsx,frogs/ab58.jpg,0,0,400,l,0,2,2,1,0,52,52,57,,,['l'],0,[0.08391630271989925],2018_Jul_09_1115,59.9998976001,go-nogo,001,5,
logos/2.jpg,properties2.xlsx,frogs/ab50.jpg,0,0,400,l,0,2,2,1,0,53,53,49,,,['l'],0,[0.4502088108447424],2018_Jul_09_1115,59.9998976001,go-nogo,001,5,
logos/2.jpg,properties2.xlsx,logos/2.jpg,0,0,400,a,0,2,2,1,0,54,54,87,,,['a'],0,[0.08345607121555076],2018_Jul_09_1115,59.9998976001,go-nogo,001,5,
logos/2.jpg,properties2.xlsx,frogs/ab61.jpg,0,0,400,l,0,2,2,1,0,55,55,59,,,['l'],0,[0.06704987054945377],2018_Jul_09_1115,59.9998976001,go-nogo,001,5,
logos/2.jpg,properties2.xlsx,frogs/ab14.jpg,0,0,400,l,0,2,2,1,0,56,56,13,,,['l'],0,[0.31699084827641855],2018_Jul_09_1115,59.9998976001,go-nogo,001,5,
logos/2.jpg,properties2.xlsx,frogs/ab67.jpg,0,0,400,l,0,2,2,1,0,57,57,65,,,['l'],0,[0.30029280736107467],2018_Jul_09_1115,59.9998976001,go-nogo,001,5,
logos/2.jpg,properties2.xlsx,frogs/ab64.jpg,0,0,400,l,0,2,2,1,0,58,58,62,,,['l'],0,[0.3171012128154871],2018_Jul_09_1115,59.9998976001,go-nogo,001,5,
logos/2.jpg,properties2.xlsx,frogs/ab45.jpg,0,0,400,l,0,2,2,1,0,59,59,44,,,['l'],0,[0.35046771239922236],2018_Jul_09_1115,59.9998976001,go-nogo,001,5,
logos/2.jpg,properties2.xlsx,frogs/ab53.jpg,0,0,400,l,0,2,2,1,0,60,60,52,,,['l'],0,[0.3169350971179483],2018_Jul_09_1115,59.9998976001,go-nogo,001,5,
logos/2.jpg,properties2.xlsx,frogs/ab40.jpg,0,0,400,l,0,2,2,1,0,61,61,39,,,['l'],0,[0.25037219587329673],2018_Jul_09_1115,59.9998976001,go-nogo,001,5,
logos/2.jpg,properties2.xlsx,frogs/ab74.jpg,0,0,400,l,0,2,2,1,0,62,62,72,,,['l'],0,[0.18374273457129675],2018_Jul_09_1115,59.9998976001,go-nogo,001,5,
logos/2.jpg,properties2.xlsx,frogs/ab49.jpg,0,0,400,l,0,2,2,1,0,63,63,48,,,['l'],0,[0.15050025287155222],2018_Jul_09_1115,59.9998976001,go-nogo,001,5,
logos/2.jpg,properties2.xlsx,frogs/ab72.jpg,0,0,400,l,0,2,2,1,0,64,64,70,,,['l'],0,[0.0840226850327781],2018_Jul_09_1115,59.9998976001,go-nogo,001,5,
logos/2.jpg,properties2.xlsx,frogs/ab41.jpg,0,0,400,l,0,2,2,1,0,65,65,40,,,['l'],0,[0.13373337634175186],2018_Jul_09_1115,59.9998976001,go-nogo,001,5,
logos/2.jpg,properties2.xlsx,frogs/ab76.jpg,0,0,400,l,0,2,2,1,0,66,66,74,,,['l'],0,[0.11717414443319285],2018_Jul_09_1115,59.9998976001,go-nogo,001,5,
logos/2.jpg,properties2.xlsx,logos/2.jpg,0,0,400,a,0,2,2,1,0,67,67,86,,,['a'],0,[0.250470044845315],2018_Jul_09_1115,59.9998976001,go-nogo,001,5,
logos/2.jpg,properties2.xlsx,frogs/ab79.jpg,0,0,400,l,0,2,2,1,0,68,68,77,,,['l'],0,[0.0005808360515402455],2018_Jul_09_1115,59.9998976001,go-nogo,001,5,
logos/2.jpg,properties2.xlsx,frogs/ab32.jpg,0,0,400,l,0,2,2,1,0,69,69,31,,,['l'],0,[0.0005768538258053013],2018_Jul_09_1115,59.9998976001,go-nogo,001,5,
logos/2.jpg,properties2.xlsx,frogs/ab34.jpg,0,0,400,l,0,2,2,1,0,70,70,33,,,['l'],0,[0.1503773727663429],2018_Jul_09_1115,59.9998976001,go-nogo,001,5,
logos/2.jpg,properties2.xlsx,logos/2.jpg,0,0,400,a,0,2,2,1,0,71,71,81,,,['l'],0,[0.41668074667904875],2018_Jul_09_1115,59.9998976001,go-nogo,001,5,
logos/2.jpg,properties2.xlsx,frogs/ab62.jpg,0,0,400,l,0,2,2,1,0,72,72,60,,,['l'],0,[0.06758974656531791],2018_Jul_09_1115,59.9998976001,go-nogo,001,5,
logos/2.jpg,properties2.xlsx,frogs/ab12.jpg,0,0,400,l,0,2,2,1,0,73,73,11,,,['l'],0,[0.28374381546154837],2018_Jul_09_1115,59.9998976001,go-nogo,001,5,
logos/2.jpg,properties2.xlsx,frogs/ab19.jpg,0,0,400,l,0,2,2,1,0,74,74,18,,,['l'],0,[0.30027744734798034],2018_Jul_09_1115,59.9998976001,go-nogo,001,5,
logos/2.jpg,properties2.xlsx,frogs/ab36.jpg,0,0,400,l,0,2,2,1,0,75,75,35,,,['l'],0,[0.566815772571772],2018_Jul_09_1115,59.9998976001,go-nogo,001,5,
logos/2.jpg,properties2.xlsx,frogs/ab68.jpg,0,0,400,l,0,2,2,1,0,76,76,66,,,['l'],0,[0.1001017743092234],2018_Jul_09_1115,59.9998976001,go-nogo,001,5,
logos/2.jpg,properties2.xlsx,frogs/ab17.jpg,0,0,400,l,0,2,2,1,0,77,77,16,,,['l'],0,[0.40034281273710803],2018_Jul_09_1115,59.9998976001,go-nogo,001,5,
logos/2.jpg,properties2.xlsx,frogs/ab11.jpg,0,0,400,l,0,2,2,1,0,78,78,10,,,['l'],0,[0.41696860470210595],2018_Jul_09_1115,59.9998976001,go-nogo,001,5,
logos/2.jpg,properties2.xlsx,frogs/ab5.jpg,0,0,400,l,0,2,2,1,0,79,79,4,,,['l'],0,[0.4008758620802837],2018_Jul_09_1115,59.9998976001,go-nogo,001,5,
logos/2.jpg,properties2.xlsx,frogs/ab1.jpg,0,0,400,l,0,2,2,1,0,80,80,0,,,['l'],0,[0.7001122418737395],2018_Jul_09_1115,59.9998976001,go-nogo,001,5,
logos/2.jpg,properties2.xlsx,frogs/ab22.jpg,0,0,400,l,0,2,2,1,0,81,81,21,,,['l'],0,[0.000585956055601855],2018_Jul_09_1115,59.9998976001,go-nogo,001,5,
logos/2.jpg,properties2.xlsx,frogs/ab9.jpg,0,0,400,l,0,2,2,1,0,82,82,8,,,['l'],0,[0.43401196146805887],2018_Jul_09_1115,59.9998976001,go-nogo,001,5,
logos/2.jpg,properties2.xlsx,frogs/ab65.jpg,0,0,400,l,0,2,2,1,0,83,83,63,,,['l'],0,[0.3835958473350729],2018_Jul_09_1115,59.9998976001,go-nogo,001,5,
logos/2.jpg,properties2.xlsx,frogs/ab30.jpg,0,0,400,l,0,2,2,1,0,84,84,29,,,['l'],0,[0.58350528014671],2018_Jul_09_1115,59.9998976001,go-nogo,001,5,
logos/2.jpg,properties2.xlsx,frogs/ab55.jpg,0,0,400,l,0,2,2,1,0,85,85,54,,,['l'],0,[0.06741452863798258],2018_Jul_09_1115,59.9998976001,go-nogo,001,5,
logos/2.jpg,properties2.xlsx,logos/2.jpg,0,0,400,a,0,2,2,1,0,86,86,84,,,['a'],0,[0.2671618279782706],2018_Jul_09_1115,59.9998976001,go-nogo,001,5,
logos/2.jpg,properties2.xlsx,frogs/ab60.jpg,0,0,400,l,0,2,2,1,0,87,87,58,,,['l'],0,[0.08379399150453537],2018_Jul_09_1115,59.9998976001,go-nogo,001,5,
logos/2.jpg,properties2.xlsx,frogs/ab78.jpg,0,0,400,l,0,2,2,1,0,88,88,76,,,['l'],0,[0.3503795345459366],2018_Jul_09_1115,59.9998976001,go-nogo,001,5,
logos/2.jpg,properties2.xlsx,frogs/ab46.jpg,0,0,400,l,0,2,2,1,0,89,89,45,,,['l'],0,[0.3670457176567652],2018_Jul_09_1115,59.9998976001,go-nogo,001,5,
logos/2.jpg,properties2.xlsx,,,,,,0,2,2,1,,,,,,,,,,2018_Jul_09_1115,59.9998976001,go-nogo,001,5,
logos/3.jpg,properties3.xlsx,frogs/ab50.jpg,0,0,400,l,0,3,3,2,0,0,0,49,space,4.22859567951,['l'],0,[0.7834733085642256],2018_Jul_09_1115,59.9998976001,go-nogo,001,5,
logos/3.jpg,properties3.xlsx,frogs/ab24.jpg,0,0,400,l,0,3,3,2,0,1,1,23,,,['l'],0,[0.1837211167753594],2018_Jul_09_1115,59.9998976001,go-nogo,001,5,
logos/3.jpg,properties3.xlsx,frogs/ab8.jpg,0,0,400,l,0,3,3,2,0,2,2,7,,,['l'],0,[0.5503145673797007],2018_Jul_09_1115,59.9998976001,go-nogo,001,5,
logos/3.jpg,properties3.xlsx,frogs/ab29.jpg,0,0,400,l,0,3,3,2,0,3,3,28,,,['l'],0,[2.1494546342014473],2018_Jul_09_1115,59.9998976001,go-nogo,001,5,
logos/3.jpg,properties3.xlsx,frogs/ab68.jpg,0,0,400,l,0,3,3,2,0,4,4,66,,,['l'],0,[0.45032486427726326],2018_Jul_09_1115,59.9998976001,go-nogo,001,5,
logos/3.jpg,properties3.xlsx,frogs/ab30.jpg,0,0,400,l,0,3,3,2,0,5,5,29,,,['l'],0,[0.9000017635571567],2018_Jul_09_1115,59.9998976001,go-nogo,001,5,
logos/3.jpg,properties3.xlsx,frogs/ab44.jpg,0,0,400,l,0,3,3,2,0,6,6,43,,,['l'],0,[0.7503747558753275],2018_Jul_09_1115,59.9998976001,go-nogo,001,5,
logos/3.jpg,properties3.xlsx,logos/3.jpg,0,0,400,a,0,3,3,2,0,7,7,87,,,['a'],0,[0.6008234104801886],2018_Jul_09_1115,59.9998976001,go-nogo,001,5,
logos/3.jpg,properties3.xlsx,frogs/ab22.jpg,0,0,400,l,0,3,3,2,0,8,8,21,,,['l'],0,[0.3169851593825115],2018_Jul_09_1115,59.9998976001,go-nogo,001,5,
logos/3.jpg,properties3.xlsx,frogs/ab60.jpg,0,0,400,l,0,3,3,2,0,9,9,58,,,['l'],0,[2.699027938726431],2018_Jul_09_1115,59.9998976001,go-nogo,001,5,
logos/3.jpg,properties3.xlsx,frogs/ab53.jpg,0,0,400,l,0,3,3,2,0,10,10,52,,,['l'],0,[5.730585370099561],2018_Jul_09_1115,59.9998976001,go-nogo,001,5,
logos/3.jpg,properties3.xlsx,logos/3.jpg,0,0,400,a,0,3,3,2,0,11,11,82,,,['a'],0,[0.13391030093680456],2018_Jul_09_1115,59.9998976001,go-nogo,001,5,
logos/3.jpg,properties3.xlsx,logos/3.jpg,0,0,400,a,0,3,3,2,0,12,12,89,,,['a'],0,[0.2836129709053239],2018_Jul_09_1115,59.9998976001,go-nogo,001,5,
logos/3.jpg,properties3.xlsx,frogs/ab72.jpg,0,0,400,l,0,3,3,2,0,13,13,70,,,['l'],0,[0.050494051977238996],2018_Jul_09_1115,59.9998976001,go-nogo,001,5,
logos/3.jpg,properties3.xlsx,frogs/ab41.jpg,0,0,400,l,0,3,3,2,0,14,14,40,,,['l'],0,[0.46683687836730314],2018_Jul_09_1115,59.9998976001,go-nogo,001,5,
logos/3.jpg,properties3.xlsx,frogs/ab36.jpg,0,0,400,l,0,3,3,2,0,15,15,35,,,['l'],0,[0.3337258670017036],2018_Jul_09_1115,59.9998976001,go-nogo,001,5,
logos/3.jpg,properties3.xlsx,frogs/ab77.jpg,0,0,400,l,0,3,3,2,0,16,16,75,,,['l'],0,[0.7167772872057867],2018_Jul_09_1115,59.9998976001,go-nogo,001,5,
logos/3.jpg,properties3.xlsx,frogs/ab76.jpg,0,0,400,l,0,3,3,2,0,17,17,74,,,['l'],0,[0.6501108480947551],2018_Jul_09_1115,59.9998976001,go-nogo,001,5,
logos/3.jpg,properties3.xlsx,frogs/ab37.jpg,0,0,400,l,0,3,3,2,0,18,18,36,,,['l'],0,[0.31704830610351564],2018_Jul_09_1115,59.9998976001,go-nogo,001,5,
logos/3.jpg,properties3.xlsx,frogs/ab55.jpg,0,0,400,l,0,3,3,2,0,19,19,54,,,['l'],0,[0.3503459700732492],2018_Jul_09_1115,59.9998976001,go-nogo,001,5,
logos/3.jpg,properties3.xlsx,frogs/ab23.jpg,0,0,400,l,0,3,3,2,0,20,20,22,,,['l'],0,[0.2837011487581549],2018_Jul_09_1115,59.9998976001,go-nogo,001,5,
logos/3.jpg,properties3.xlsx,frogs/ab45.jpg,0,0,400,l,0,3,3,2,0,21,21,44,,,['l'],0,[0.3502128499594619],2018_Jul_09_1115,59.9998976001,go-nogo,001,5,
logos/3.jpg,properties3.xlsx,frogs/ab74.jpg,0,0,400,l,0,3,3,2,0,22,22,72,,,['l'],0,[0.3004179630233921],2018_Jul_09_1115,59.9998976001,go-nogo,001,5,
logos/3.jpg,properties3.xlsx,frogs/ab19.jpg,0,0,400,l,0,3,3,2,0,23,23,18,,,['l'],0,[0.7003324020615764],2018_Jul_09_1115,59.9998976001,go-nogo,001,5,
logos/3.jpg,properties3.xlsx,frogs/ab33.jpg,0,0,400,l,0,3,3,2,0,24,24,32,,,['l'],0,[0.4003064038170123],2018_Jul_09_1115,59.9998976001,go-nogo,001,5,
logos/3.jpg,properties3.xlsx,logos/3.jpg,0,0,400,a,0,3,3,2,0,25,25,81,,,['a'],0,[0.050537287569568434],2018_Jul_09_1115,59.9998976001,go-nogo,001,5,
logos/3.jpg,properties3.xlsx,frogs/ab79.jpg,0,0,400,l,0,3,3,2,0,26,26,77,,,['l'],0,[0.06716535509212918],2018_Jul_09_1115,59.9998976001,go-nogo,001,5,
logos/3.jpg,properties3.xlsx,frogs/ab64.jpg,0,0,400,l,0,3,3,2,0,27,27,62,,,['l'],0,[0.0339228733919299],2018_Jul_09_1115,59.9998976001,go-nogo,001,5,
logos/3.jpg,properties3.xlsx,frogs/ab46.jpg,0,0,400,l,0,3,3,2,0,28,28,45,,,['l'],0,[0.08389923603863281],2018_Jul_09_1115,59.9998976001,go-nogo,001,5,
logos/3.jpg,properties3.xlsx,frogs/ab75.jpg,0,0,400,l,0,3,3,2,0,29,29,73,,,['l'],0,[0.017280014745210792],2018_Jul_09_1115,59.9998976001,go-nogo,001,5,
logos/3.jpg,properties3.xlsx,frogs/ab16.jpg,0,0,400,l,0,3,3,2,0,30,30,15,,,['l'],0,[0.30045038971775284],2018_Jul_09_1115,59.9998976001,go-nogo,001,5,
logos/3.jpg,properties3.xlsx,logos/3.jpg,0,0,400,a,0,3,3,2,0,31,31,85,,,['a'],0,[0.20036966431553083],2018_Jul_09_1115,59.9998976001,go-nogo,001,5,
logos/3.jpg,properties3.xlsx,frogs/ab12.jpg,0,0,400,l,0,3,3,2,0,32,32,11,,,['l'],0,[0.30036164297553114],2018_Jul_09_1115,59.9998976001,go-nogo,001,5,
logos/3.jpg,properties3.xlsx,frogs/ab70.jpg,0,0,400,l,0,3,3,2,0,33,33,68,,,['l'],0,[0.34989825413549624],2018_Jul_09_1115,59.9998976001,go-nogo,001,5,
logos/3.jpg,properties3.xlsx,frogs/ab80.jpg,0,0,400,l,0,3,3,2,0,34,34,78,,,['l'],0,[0.20027522867940206],2018_Jul_09_1115,59.9998976001,go-nogo,001,5,
logos/3.jpg,properties3.xlsx,frogs/ab27.jpg,0,0,400,l,0,3,3,2,0,35,35,26,,,['l'],0,[0.11715423330497288],2018_Jul_09_1115,59.9998976001,go-nogo,001,5,
logos/3.jpg,properties3.xlsx,frogs/ab57.jpg,0,0,400,l,0,3,3,2,0,36,36,56,,,['l'],0,[0.3336667025068891],2018_Jul_09_1115,59.9998976001,go-nogo,001,5,
logos/3.jpg,properties3.xlsx,frogs/ab2.jpg,0,0,400,l,0,3,3,2,0,37,37,1,,,['l'],0,[0.5169480677955107],2018_Jul_09_1115,59.9998976001,go-nogo,001,5,
logos/3.jpg,properties3.xlsx,frogs/ab13.jpg,0,0,400,l,0,3,3,2,0,38,38,12,,,['l'],0,[0.33356202686172765],2018_Jul_09_1115,59.9998976001,go-nogo,001,5,
logos/3.jpg,properties3.xlsx,logos/3.jpg,0,0,400,a,0,3,3,2,0,39,39,83,,,['a'],0,[0.10040214789842139],2018_Jul_09_1115,59.9998976001,go-nogo,001,5,
logos/3.jpg,properties3.xlsx,frogs/ab7.jpg,0,0,400,l,0,3,3,2,0,40,40,6,,,['l'],0,[0.10052389022484931],2018_Jul_09_1115,59.9998976001,go-nogo,001,5,
logos/3.jpg,properties3.xlsx,frogs/ab17.jpg,0,0,400,l,0,3,3,2,0,41,41,16,,,['l'],0,[0.23369861720038898],2018_Jul_09_1115,59.9998976001,go-nogo,001,5,
logos/3.jpg,properties3.xlsx,frogs/ab26.jpg,0,0,400,l,0,3,3,2,0,42,42,25,,,['l'],0,[0.2833455928994226],2018_Jul_09_1115,59.9998976001,go-nogo,001,5,
logos/3.jpg,properties3.xlsx,frogs/ab42.jpg,0,0,400,l,0,3,3,2,0,43,43,41,,,['l'],0,[0.3504421123770953],2018_Jul_09_1115,59.9998976001,go-nogo,001,5,
logos/3.jpg,properties3.xlsx,frogs/ab38.jpg,0,0,400,l,0,3,3,2,0,44,44,37,,,['l'],0,[0.9333432320086104],2018_Jul_09_1115,59.9998976001,go-nogo,001,5,
logos/3.jpg,properties3.xlsx,frogs/ab56.jpg,0,0,400,l,0,3,3,2,0,45,45,55,,,['l'],0,[0.20018989527306985],2018_Jul_09_1115,59.9998976001,go-nogo,001,5,
logos/3.jpg,properties3.xlsx,frogs/ab5.jpg,0,0,400,l,0,3,3,2,0,46,46,4,,,['l'],0,[0.3007308521791856],2018_Jul_09_1115,59.9998976001,go-nogo,001,5,
logos/3.jpg,properties3.xlsx,logos/3.jpg,0,0,400,a,0,3,3,2,0,47,47,84,,,['a'],0,[0.6168860019647582],2018_Jul_09_1115,59.9998976001,go-nogo,001,5,
logos/3.jpg,properties3.xlsx,frogs/ab81.jpg,0,0,400,l,0,3,3,2,0,48,48,79,,,['l'],0,[0.000574578268242476],2018_Jul_09_1115,59.9998976001,go-nogo,001,5,
logos/3.jpg,properties3.xlsx,frogs/ab73.jpg,0,0,400,l,0,3,3,2,0,49,49,71,,,['l'],0,[0.38371645188226466],2018_Jul_09_1115,59.9998976001,go-nogo,001,5,
logos/3.jpg,properties3.xlsx,logos/3.jpg,0,0,400,a,0,3,3,2,0,50,50,86,,,['l'],0,[0.3502481211007762],2018_Jul_09_1115,59.9998976001,go-nogo,001,5,
logos/3.jpg,properties3.xlsx,frogs/ab61.jpg,0,0,400,l,0,3,3,2,0,51,51,59,,,['l'],0,[0.7169126828766821],2018_Jul_09_1115,59.9998976001,go-nogo,001,5,
logos/3.jpg,properties3.xlsx,frogs/ab62.jpg,0,0,400,l,0,3,3,2,0,52,52,60,,,['l'],0,[0.2504199825807518],2018_Jul_09_1115,59.9998976001,go-nogo,001,5,
logos/3.jpg,properties3.xlsx,frogs/ab65.jpg,0,0,400,l,0,3,3,2,0,53,53,63,,,['l'],0,[0.03396497120547792],2018_Jul_09_1115,59.9998976001,go-nogo,001,5,
logos/3.jpg,properties3.xlsx,frogs/ab18.jpg,0,0,400,l,0,3,3,2,0,54,54,17,,,['l'],0,[0.3835844695477135],2018_Jul_09_1115,59.9998976001,go-nogo,001,5,
logos/3.jpg,properties3.xlsx,frogs/ab35.jpg,0,0,400,l,0,3,3,2,0,55,55,34,,,['l'],0,[0.08373255145170333],2018_Jul_09_1115,59.9998976001,go-nogo,001,5,
logos/3.jpg,properties3.xlsx,frogs/ab51.jpg,0,0,400,l,0,3,3,2,0,56,56,50,,,['l'],0,[0.6000713387275027],2018_Jul_09_1115,59.9998976001,go-nogo,001,5,
logos/3.jpg,properties3.xlsx,frogs/ab43.jpg,0,0,400,l,0,3,3,2,0,57,57,42,,,['l'],0,[0.5003552714142643],2018_Jul_09_1115,59.9998976001,go-nogo,001,5,
logos/3.jpg,properties3.xlsx,frogs/ab31.jpg,0,0,400,l,0,3,3,2,0,58,58,30,,,['l'],0,[0.2837887577220499],2018_Jul_09_1115,59.9998976001,go-nogo,001,5,
logos/3.jpg,properties3.xlsx,frogs/ab47.jpg,0,0,400,l,0,3,3,2,0,59,59,46,,,['l'],0,[0.05047584751719114],2018_Jul_09_1115,59.9998976001,go-nogo,001,5,
logos/3.jpg,properties3.xlsx,frogs/ab39.jpg,0,0,400,l,0,3,3,2,0,60,60,38,,,['l'],0,[0.2670725123466582],2018_Jul_09_1115,59.9998976001,go-nogo,001,5,
logos/3.jpg,properties3.xlsx,frogs/ab14.jpg,0,0,400,l,0,3,3,2,0,61,61,13,,,['l'],0,[0.11689481975008675],2018_Jul_09_1115,59.9998976001,go-nogo,001,5,
logos/3.jpg,properties3.xlsx,frogs/ab67.jpg,0,0,400,l,0,3,3,2,0,62,62,65,,,['l'],0,[0.36703604653757793],2018_Jul_09_1115,59.9998976001,go-nogo,001,5,
logos/3.jpg,properties3.xlsx,frogs/ab54.jpg,0,0,400,l,0,3,3,2,0,63,63,53,,,['l'],0,[0.31695045713104264],2018_Jul_09_1115,59.9998976001,go-nogo,001,5,
logos/3.jpg,properties3.xlsx,frogs/ab78.jpg,0,0,400,l,0,3,3,2,0,64,64,76,,,['l'],0,[0.33375658702789224],2018_Jul_09_1115,59.9998976001,go-nogo,001,5,
logos/3.jpg,properties3.xlsx,frogs/ab21.jpg,0,0,400,l,0,3,3,2,0,65,65,20,,,['l'],0,[0.08384803599483348],2018_Jul_09_1115,59.9998976001,go-nogo,001,5,
logos/3.jpg,properties3.xlsx,frogs/ab3.jpg,0,0,400,l,0,3,3,2,0,66,66,2,,,['l'],0,[0.033819904415395285],2018_Jul_09_1115,59.9998976001,go-nogo,001,5,
logos/3.jpg,properties3.xlsx,logos/3.jpg,0,0,400,a,0,3,3,2,0,67,67,88,,,['a'],0,[0.1505383684593653],2018_Jul_09_1115,59.9998976001,go-nogo,001,5,
logos/3.jpg,properties3.xlsx,frogs/ab25.jpg,0,0,400,l,0,3,3,2,0,68,68,24,,,['l'],0,[0.3503141122678244],2018_Jul_09_1115,59.9998976001,go-nogo,001,5,
logos/3.jpg,properties3.xlsx,frogs/ab48.jpg,0,0,400,l,0,3,3,2,0,69,69,47,,,['l'],0,[0.3335040001456946],2018_Jul_09_1115,59.9998976001,go-nogo,001,5,
logos/3.jpg,properties3.xlsx,frogs/ab63.jpg,0,0,400,l,0,3,3,2,0,70,70,61,,,['l'],0,[0.2181133239009796],2018_Jul_09_1115,59.9998976001,go-nogo,001,5,
logos/3.jpg,properties3.xlsx,frogs/ab20.jpg,0,0,400,l,0,3,3,2,0,71,71,19,,,['l'],0,[0.30014603390236516],2018_Jul_09_1115,59.9998976001,go-nogo,001,5,
logos/3.jpg,properties3.xlsx,frogs/ab66.jpg,0,0,400,l,0,3,3,2,0,72,72,64,,,['l'],0,[0.28370626876267124],2018_Jul_09_1115,59.9998976001,go-nogo,001,5,
logos/3.jpg,properties3.xlsx,frogs/ab1.jpg,0,0,400,l,0,3,3,2,0,73,73,0,,,['l'],0,[0.2170540518859525],2018_Jul_09_1115,59.9998976001,go-nogo,001,5,
logos/3.jpg,properties3.xlsx,frogs/ab40.jpg,0,0,400,l,0,3,3,2,0,74,74,39,,,['l'],0,[0.0005711649314434908],2018_Jul_09_1115,59.9998976001,go-nogo,001,5,
logos/3.jpg,properties3.xlsx,frogs/ab52.jpg,0,0,400,l,0,3,3,2,0,75,75,51,,,['l'],0,[0.300128398331708],2018_Jul_09_1115,59.9998976001,go-nogo,001,5,
logos/3.jpg,properties3.xlsx,frogs/ab6.jpg,0,0,400,l,0,3,3,2,0,76,76,5,,,['l'],0,[0.08387363601650577],2018_Jul_09_1115,59.9998976001,go-nogo,001,5,
logos/3.jpg,properties3.xlsx,frogs/ab28.jpg,0,0,400,l,0,3,3,2,0,77,77,27,,,['l'],0,[0.0005819738298669108],2018_Jul_09_1115,59.9998976001,go-nogo,001,5,
logos/3.jpg,properties3.xlsx,frogs/ab4.jpg,0,0,400,l,0,3,3,2,0,78,78,3,,,['l'],0,[0.050475278627800435],2018_Jul_09_1115,59.9998976001,go-nogo,001,5,
logos/3.jpg,properties3.xlsx,frogs/ab71.jpg,0,0,400,l,0,3,3,2,0,79,79,69,,,['l'],0,[0.03389954892782043],2018_Jul_09_1115,59.9998976001,go-nogo,001,5,
logos/3.jpg,properties3.xlsx,frogs/ab15.jpg,0,0,400,l,0,3,3,2,0,80,80,14,,,['l'],0,[0.0005802671621495392],2018_Jul_09_1115,59.9998976001,go-nogo,001,5,
logos/3.jpg,properties3.xlsx,frogs/ab49.jpg,0,0,400,l,0,3,3,2,0,81,81,48,,,['l'],0,[0.0005757160465691413],2018_Jul_09_1115,59.9998976001,go-nogo,001,5,
logos/3.jpg,properties3.xlsx,frogs/ab10.jpg,0,0,400,l,0,3,3,2,0,82,82,9,,,['l'],0,[0.033875655573865515],2018_Jul_09_1115,59.9998976001,go-nogo,001,5,
logos/3.jpg,properties3.xlsx,frogs/ab69.jpg,0,0,400,l,0,3,3,2,0,83,83,67,,,['l'],0,[0.11680891745481858],2018_Jul_09_1115,59.9998976001,go-nogo,001,5,
logos/3.jpg,properties3.xlsx,frogs/ab34.jpg,0,0,400,l,0,3,3,2,0,84,84,33,,,['l'],0,[0.08393052495421216],2018_Jul_09_1115,59.9998976001,go-nogo,001,5,
logos/3.jpg,properties3.xlsx,frogs/ab32.jpg,0,0,400,l,0,3,3,2,0,85,85,31,,,['l'],0,[0.05075232775334371],2018_Jul_09_1115,59.9998976001,go-nogo,001,5,
logos/3.jpg,properties3.xlsx,frogs/ab11.jpg,0,0,400,l,0,3,3,2,0,86,86,10,,,['l'],0,[0.10046188128262656],2018_Jul_09_1115,59.9998976001,go-nogo,001,5,
logos/3.jpg,properties3.xlsx,logos/3.jpg,0,0,400,a,0,3,3,2,0,87,87,80,,,['a'],0,[0.06718697288852127],2018_Jul_09_1115,59.9998976001,go-nogo,001,5,
logos/3.jpg,properties3.xlsx,frogs/ab9.jpg,0,0,400,l,0,3,3,2,0,88,88,8,,,['l'],0,[0.15032332827604478],2018_Jul_09_1115,59.9998976001,go-nogo,001,5,
logos/3.jpg,properties3.xlsx,frogs/ab58.jpg,0,0,400,l,0,3,3,2,0,89,89,57,,,['l'],0,[0.20000273066898444],2018_Jul_09_1115,59.9998976001,go-nogo,001,5,
logos/3.jpg,properties3.xlsx,,,,,,0,3,3,2,,,,,,,,,,2018_Jul_09_1115,59.9998976001,go-nogo,001,5,
