pix,source,image1,x,y,size,answer,trials_2.thisRepN,trials_2.thisTrialN,trials_2.thisN,trials_2.thisIndex,trials.thisRepN,trials.thisTrialN,trials.thisN,trials.thisIndex,key_resp_3.keys,key_resp_3.rt,key_resp_2.keys,key_resp_2.corr,key_resp_2.rt,date,frameRate,expName,session,participant,
logos/1.jpg,properties1.xlsx,frogs/ab44.jpg,0,0,400,l,0,0,0,0,0,0,0,43,space,10.2627102686,['l'],0,[0.416879857960339],2018_Jul_09_1129,59.9978496751,go-nogo,001,6,
logos/1.jpg,properties1.xlsx,frogs/ab68.jpg,0,0,400,l,0,0,0,0,0,1,1,66,,,['l'],0,[0.1838223790837219],2018_Jul_09_1129,59.9978496751,go-nogo,001,6,
logos/1.jpg,properties1.xlsx,frogs/ab61.jpg,0,0,400,l,0,0,0,0,0,2,2,59,,,['l'],0,[0.9167219911578286],2018_Jul_09_1129,59.9978496751,go-nogo,001,6,
logos/1.jpg,properties1.xlsx,frogs/ab64.jpg,0,0,400,l,0,0,0,0,0,3,3,62,,,['l'],0,[0.9504485977158765],2018_Jul_09_1129,59.9978496751,go-nogo,001,6,
logos/1.jpg,properties1.xlsx,frogs/ab27.jpg,0,0,400,l,0,0,0,0,0,4,4,26,,,['l'],0,[0.15042060835912707],2018_Jul_09_1129,59.9978496751,go-nogo,001,6,
logos/1.jpg,properties1.xlsx,frogs/ab80.jpg,0,0,400,l,0,0,0,0,0,5,5,78,,,['l'],0,[0.5336648820612027],2018_Jul_09_1129,59.9978496751,go-nogo,001,6,
logos/1.jpg,properties1.xlsx,frogs/ab62.jpg,0,0,400,l,0,0,0,0,0,6,6,60,,,['l'],0,[0.017177614658066886],2018_Jul_09_1129,59.9978496751,go-nogo,001,6,
logos/1.jpg,properties1.xlsx,frogs/ab55.jpg,0,0,400,l,0,0,0,0,0,7,7,54,,,['l'],0,[0.13372256744332844],2018_Jul_09_1129,59.9978496751,go-nogo,001,6,
logos/1.jpg,properties1.xlsx,frogs/ab31.jpg,0,0,400,l,0,0,0,0,0,8,8,30,,,['l'],0,[0.33375886258545506],2018_Jul_09_1129,59.9978496751,go-nogo,001,6,
logos/1.jpg,properties1.xlsx,frogs/ab66.jpg,0,0,400,l,0,0,0,0,0,9,9,64,,,['l'],0,[0.04981309139566292],2018_Jul_09_1129,59.9978496751,go-nogo,001,6,
logos/1.jpg,properties1.xlsx,frogs/ab10.jpg,0,0,400,l,0,0,0,0,0,10,10,9,,,['l'],0,[0.1171866599988789],2018_Jul_09_1129,59.9978496751,go-nogo,001,6,
logos/1.jpg,properties1.xlsx,frogs/ab3.jpg,0,0,400,l,0,0,0,0,0,11,11,2,,,['l'],0,[0.10040954346095532],2018_Jul_09_1129,59.9978496751,go-nogo,001,6,
logos/1.jpg,properties1.xlsx,frogs/ab63.jpg,0,0,400,l,0,0,0,0,0,12,12,61,,,['l'],0,[0.05048779419394123],2018_Jul_09_1129,59.9978496751,go-nogo,001,6,
logos/1.jpg,properties1.xlsx,frogs/ab70.jpg,0,0,400,l,0,0,0,0,0,13,13,68,,,['l'],0,[0.08381162707519252],2018_Jul_09_1129,59.9978496751,go-nogo,001,6,
logos/1.jpg,properties1.xlsx,frogs/ab18.jpg,0,0,400,l,0,0,0,0,0,14,14,17,,,['l'],0,[0.10069455703705898],2018_Jul_09_1129,59.9978496751,go-nogo,001,6,
logos/1.jpg,properties1.xlsx,frogs/ab75.jpg,0,0,400,l,0,0,0,0,0,15,15,73,,,['l'],0,[0.43325932082643703],2018_Jul_09_1129,59.9978496751,go-nogo,001,6,
logos/1.jpg,properties1.xlsx,frogs/ab36.jpg,0,0,400,l,0,0,0,0,0,16,16,35,,,['l'],0,[0.1996540014824859],2018_Jul_09_1129,59.9978496751,go-nogo,001,6,
logos/1.jpg,properties1.xlsx,frogs/ab1.jpg,0,0,400,l,0,0,0,0,0,17,17,0,,,['l'],0,[0.0005723027106796508],2018_Jul_09_1129,59.9978496751,go-nogo,001,6,
logos/1.jpg,properties1.xlsx,frogs/ab17.jpg,0,0,400,l,0,0,0,0,0,18,18,16,,,['a'],0,[0.05053330534428824],2018_Jul_09_1129,59.9978496751,go-nogo,001,6,
logos/1.jpg,properties1.xlsx,frogs/ab35.jpg,0,0,400,l,0,0,0,0,0,19,19,34,,,['l'],0,[0.10042376569526823],2018_Jul_09_1129,59.9978496751,go-nogo,001,6,
logos/1.jpg,properties1.xlsx,frogs/ab54.jpg,0,0,400,l,0,0,0,0,0,20,20,53,,,['l'],0,[1.0498466558692598],2018_Jul_09_1129,59.9978496751,go-nogo,001,6,
logos/1.jpg,properties1.xlsx,frogs/ab78.jpg,0,0,400,l,0,0,0,0,0,21,21,76,,,['l'],0,[0.08433841863552516],2018_Jul_09_1129,59.9978496751,go-nogo,001,6,
logos/1.jpg,properties1.xlsx,frogs/ab42.jpg,0,0,400,l,0,0,0,0,0,22,22,41,,,['l'],0,[0.13377774971286271],2018_Jul_09_1129,59.9978496751,go-nogo,001,6,
logos/1.jpg,properties1.xlsx,frogs/ab69.jpg,0,0,400,l,0,0,0,0,0,23,23,67,,,['l'],0,[0.133669660731357],2018_Jul_09_1129,59.9978496751,go-nogo,001,6,
logos/1.jpg,properties1.xlsx,frogs/ab25.jpg,0,0,400,l,0,0,0,0,0,24,24,24,,,['l'],0,[0.300235918423823],2018_Jul_09_1129,59.9978496751,go-nogo,001,6,
logos/1.jpg,properties1.xlsx,frogs/ab9.jpg,0,0,400,l,0,0,0,0,0,25,25,8,,,['l'],0,[0.15038988833293843],2018_Jul_09_1129,59.9978496751,go-nogo,001,6,
logos/1.jpg,properties1.xlsx,frogs/ab4.jpg,0,0,400,l,0,0,0,0,0,26,26,3,,,['l'],0,[0.08389070269822696],2018_Jul_09_1129,59.9978496751,go-nogo,001,6,
logos/1.jpg,properties1.xlsx,logos/1.jpg,0,0,400,a,0,0,0,0,0,27,27,84,,,['a'],0,[0.0183233578582076],2018_Jul_09_1129,59.9978496751,go-nogo,001,6,
logos/1.jpg,properties1.xlsx,frogs/ab28.jpg,0,0,400,l,0,0,0,0,0,28,28,27,,,['a'],0,[0.1671749693223319],2018_Jul_09_1129,59.9978496751,go-nogo,001,6,
logos/1.jpg,properties1.xlsx,frogs/ab38.jpg,0,0,400,l,0,0,0,0,0,29,29,37,,,['l'],0,[0.43360122333979234],2018_Jul_09_1129,59.9978496751,go-nogo,001,6,
logos/1.jpg,properties1.xlsx,frogs/ab7.jpg,0,0,400,l,0,0,0,0,0,30,30,6,,,['l'],0,[0.13349785613991116],2018_Jul_09_1129,59.9978496751,go-nogo,001,6,
logos/1.jpg,properties1.xlsx,frogs/ab40.jpg,0,0,400,l,0,0,0,0,0,31,31,39,,,['l'],0,[0.08388785825172818],2018_Jul_09_1129,59.9978496751,go-nogo,001,6,
logos/1.jpg,properties1.xlsx,frogs/ab20.jpg,0,0,400,l,0,0,0,0,0,32,32,19,,,['l'],0,[0.05040644301334396],2018_Jul_09_1129,59.9978496751,go-nogo,001,6,
logos/1.jpg,properties1.xlsx,frogs/ab48.jpg,0,0,400,l,0,0,0,0,0,33,33,47,,,['l'],0,[0.08376896037134429],2018_Jul_09_1129,59.9978496751,go-nogo,001,6,
logos/1.jpg,properties1.xlsx,frogs/ab71.jpg,0,0,400,l,0,0,0,0,0,34,34,69,,,['l'],0,[0.1504792039640961],2018_Jul_09_1129,59.9978496751,go-nogo,001,6,
logos/1.jpg,properties1.xlsx,frogs/ab53.jpg,0,0,400,l,0,0,0,0,0,35,35,52,,,['a'],0,[0.3171381906249735],2018_Jul_09_1129,59.9978496751,go-nogo,001,6,
logos/1.jpg,properties1.xlsx,logos/1.jpg,0,0,400,a,0,0,0,0,0,36,36,88,,,['a'],0,[0.1670481069913876],2018_Jul_09_1129,59.9978496751,go-nogo,001,6,
logos/1.jpg,properties1.xlsx,logos/1.jpg,0,0,400,a,0,0,0,0,0,37,37,86,,,['a'],0,[0.16726030272911885],2018_Jul_09_1129,59.9978496751,go-nogo,001,6,
logos/1.jpg,properties1.xlsx,frogs/ab60.jpg,0,0,400,l,0,0,0,0,0,38,38,58,,,['l'],0,[0.08403804504632717],2018_Jul_09_1129,59.9978496751,go-nogo,001,6,
logos/1.jpg,properties1.xlsx,logos/1.jpg,0,0,400,a,0,0,0,0,0,39,39,85,,,['a'],0,[0.017090574583562557],2018_Jul_09_1129,59.9978496751,go-nogo,001,6,
logos/1.jpg,properties1.xlsx,frogs/ab51.jpg,0,0,400,l,0,0,0,0,0,40,40,50,,,['l'],0,[0.1170808465758455],2018_Jul_09_1129,59.9978496751,go-nogo,001,6,
logos/1.jpg,properties1.xlsx,frogs/ab22.jpg,0,0,400,l,0,0,0,0,0,41,41,21,,,['l'],0,[0.06725922183886723],2018_Jul_09_1129,59.9978496751,go-nogo,001,6,
logos/1.jpg,properties1.xlsx,frogs/ab56.jpg,0,0,400,l,0,0,0,0,0,42,42,55,,,['a'],0,[0.3170153105202189],2018_Jul_09_1129,59.9978496751,go-nogo,001,6,
logos/1.jpg,properties1.xlsx,frogs/ab24.jpg,0,0,400,l,0,0,0,0,0,43,43,23,,,['l'],0,[0.0836773691826238],2018_Jul_09_1129,59.9978496751,go-nogo,001,6,
logos/1.jpg,properties1.xlsx,frogs/ab16.jpg,0,0,400,l,0,0,0,0,0,44,44,15,,,['a'],0,[0.11717243776547548],2018_Jul_09_1129,59.9978496751,go-nogo,001,6,
logos/1.jpg,properties1.xlsx,logos/1.jpg,0,0,400,a,0,0,0,0,0,45,45,81,,,['a'],0,[0.1671186492740162],2018_Jul_09_1129,59.9978496751,go-nogo,001,6,
logos/1.jpg,properties1.xlsx,frogs/ab52.jpg,0,0,400,l,0,0,0,0,0,46,46,51,,,['a'],0,[0.18369665453246853],2018_Jul_09_1129,59.9978496751,go-nogo,001,6,
logos/1.jpg,properties1.xlsx,logos/1.jpg,0,0,400,a,0,0,0,0,0,47,47,82,,,['l'],0,[0.7167647716387364],2018_Jul_09_1129,59.9978496751,go-nogo,001,6,
logos/1.jpg,properties1.xlsx,frogs/ab58.jpg,0,0,400,l,0,0,0,0,0,48,48,57,,,['l'],0,[0.2504319292575019],2018_Jul_09_1129,59.9978496751,go-nogo,001,6,
logos/1.jpg,properties1.xlsx,frogs/ab26.jpg,0,0,400,l,0,0,0,0,0,49,49,25,,,['l'],0,[0.43353978328741505],2018_Jul_09_1129,59.9978496751,go-nogo,001,6,
logos/1.jpg,properties1.xlsx,frogs/ab74.jpg,0,0,400,l,0,0,0,0,0,50,50,72,,,['a'],0,[0.01721231690953573],2018_Jul_09_1129,59.9978496751,go-nogo,001,6,
logos/1.jpg,properties1.xlsx,frogs/ab29.jpg,0,0,400,l,0,0,0,0,0,51,51,28,,,['l'],0,[0.35036872564796795],2018_Jul_09_1129,59.9978496751,go-nogo,001,6,
logos/1.jpg,properties1.xlsx,frogs/ab49.jpg,0,0,400,l,0,0,0,0,0,52,52,48,,,['l'],0,[6.396509636132578],2018_Jul_09_1129,59.9978496751,go-nogo,001,6,
logos/1.jpg,properties1.xlsx,frogs/ab13.jpg,0,0,400,l,0,0,0,0,0,53,53,12,,,['l'],0,[0.7500584533836445],2018_Jul_09_1129,59.9978496751,go-nogo,001,6,
logos/1.jpg,properties1.xlsx,frogs/ab50.jpg,0,0,400,l,0,0,0,0,0,54,54,49,,,['l'],0,[0.16710897815573844],2018_Jul_09_1129,59.9978496751,go-nogo,001,6,
logos/1.jpg,properties1.xlsx,frogs/ab21.jpg,0,0,400,l,0,0,0,0,0,55,55,20,,,['l'],0,[0.050259100666153245],2018_Jul_09_1129,59.9978496751,go-nogo,001,6,
logos/1.jpg,properties1.xlsx,frogs/ab2.jpg,0,0,400,l,0,0,0,0,0,56,56,1,,,['l'],0,[0.13370208742526302],2018_Jul_09_1129,59.9978496751,go-nogo,001,6,
logos/1.jpg,properties1.xlsx,frogs/ab34.jpg,0,0,400,l,0,0,0,0,0,57,57,33,,,['l'],0,[0.05068292324995127],2018_Jul_09_1129,59.9978496751,go-nogo,001,6,
logos/1.jpg,properties1.xlsx,frogs/ab33.jpg,0,0,400,l,0,0,0,0,0,58,58,32,,,['l'],0,[0.017134947955128155],2018_Jul_09_1129,59.9978496751,go-nogo,001,6,
logos/1.jpg,properties1.xlsx,frogs/ab43.jpg,0,0,400,l,0,0,0,0,0,59,59,42,,,['l'],0,[0.0005717338208341971],2018_Jul_09_1129,59.9978496751,go-nogo,001,6,
logos/1.jpg,properties1.xlsx,frogs/ab15.jpg,0,0,400,l,0,0,0,0,0,60,60,14,,,['l'],0,[0.23378508838595735],2018_Jul_09_1129,59.9978496751,go-nogo,001,6,
logos/1.jpg,properties1.xlsx,logos/1.jpg,0,0,400,a,0,0,0,0,0,61,61,80,,,['a'],0,[0.10036744564695255],2018_Jul_09_1129,59.9978496751,go-nogo,001,6,
logos/1.jpg,properties1.xlsx,frogs/ab57.jpg,0,0,400,l,0,0,0,0,0,62,62,56,,,['l'],0,[0.11745858912036056],2018_Jul_09_1129,59.9978496751,go-nogo,001,6,
logos/1.jpg,properties1.xlsx,frogs/ab65.jpg,0,0,400,l,0,0,0,0,0,63,63,63,,,['l'],0,[0.10036346342167235],2018_Jul_09_1129,59.9978496751,go-nogo,001,6,
logos/1.jpg,properties1.xlsx,frogs/ab30.jpg,0,0,400,l,0,0,0,0,0,64,64,29,,,['l'],0,[0.01718330355197395],2018_Jul_09_1129,59.9978496751,go-nogo,001,6,
logos/1.jpg,properties1.xlsx,frogs/ab23.jpg,0,0,400,l,0,0,0,0,0,65,65,22,,,['l'],0,[0.017223694697349856],2018_Jul_09_1129,59.9978496751,go-nogo,001,6,
logos/1.jpg,properties1.xlsx,frogs/ab14.jpg,0,0,400,l,0,0,0,0,0,66,66,13,,,['l'],0,[0.0005683204853994539],2018_Jul_09_1129,59.9978496751,go-nogo,001,6,
logos/1.jpg,properties1.xlsx,frogs/ab46.jpg,0,0,400,l,0,0,0,0,0,67,67,45,,,['a'],0,[0.08390492493253987],2018_Jul_09_1129,59.9978496751,go-nogo,001,6,
logos/1.jpg,properties1.xlsx,frogs/ab47.jpg,0,0,400,l,0,0,0,0,0,68,68,46,,,['l'],0,[0.13392566094989888],2018_Jul_09_1129,59.9978496751,go-nogo,001,6,
logos/1.jpg,properties1.xlsx,frogs/ab41.jpg,0,0,400,l,0,0,0,0,0,69,69,40,,,['l'],0,[0.033818197747677914],2018_Jul_09_1129,59.9978496751,go-nogo,001,6,
logos/1.jpg,properties1.xlsx,frogs/ab12.jpg,0,0,400,l,0,0,0,0,0,70,70,11,,,['l'],0,[0.03389101558695984],2018_Jul_09_1129,59.9978496751,go-nogo,001,6,
logos/1.jpg,properties1.xlsx,frogs/ab79.jpg,0,0,400,l,0,0,0,0,0,71,71,77,,,['l'],0,[0.05049632753525657],2018_Jul_09_1129,59.9978496751,go-nogo,001,6,
logos/1.jpg,properties1.xlsx,frogs/ab67.jpg,0,0,400,l,0,0,0,0,0,72,72,65,,,['l'],0,[0.0838457604377254],2018_Jul_09_1129,59.9978496751,go-nogo,001,6,
logos/1.jpg,properties1.xlsx,frogs/ab11.jpg,0,0,400,l,0,0,0,0,0,73,73,10,,,['l'],0,[0.033769273260986665],2018_Jul_09_1129,59.9978496751,go-nogo,001,6,
logos/1.jpg,properties1.xlsx,frogs/ab73.jpg,0,0,400,l,0,0,0,0,0,74,74,71,,,['l'],0,[0.05043431859303382],2018_Jul_09_1129,59.9978496751,go-nogo,001,6,
logos/1.jpg,properties1.xlsx,frogs/ab81.jpg,0,0,400,l,0,0,0,0,0,75,75,79,,,['l'],0,[0.08382528041965998],2018_Jul_09_1129,59.9978496751,go-nogo,001,6,
logos/1.jpg,properties1.xlsx,frogs/ab37.jpg,0,0,400,l,0,0,0,0,0,76,76,36,,,['l'],0,[0.06701232385057665],2018_Jul_09_1129,59.9978496751,go-nogo,001,6,
logos/1.jpg,properties1.xlsx,frogs/ab6.jpg,0,0,400,l,0,0,0,0,0,77,77,5,,,['l'],0,[0.0005711649318982381],2018_Jul_09_1129,59.9978496751,go-nogo,001,6,
logos/1.jpg,properties1.xlsx,frogs/ab77.jpg,0,0,400,l,0,0,0,0,0,78,78,75,,,['l'],0,[0.03413677579646901],2018_Jul_09_1129,59.9978496751,go-nogo,001,6,
logos/1.jpg,properties1.xlsx,logos/1.jpg,0,0,400,a,0,0,0,0,0,79,79,89,,,['a'],0,[0.0005694582632713718],2018_Jul_09_1129,59.9978496751,go-nogo,001,6,
logos/1.jpg,properties1.xlsx,frogs/ab32.jpg,0,0,400,l,0,0,0,0,0,80,80,31,,,['l'],0,[0.18377857460200175],2018_Jul_09_1129,59.9978496751,go-nogo,001,6,
logos/1.jpg,properties1.xlsx,frogs/ab19.jpg,0,0,400,l,0,0,0,0,0,81,81,18,,,['l'],0,[0.01714177462781663],2018_Jul_09_1129,59.9978496751,go-nogo,001,6,
logos/1.jpg,properties1.xlsx,logos/1.jpg,0,0,400,a,0,0,0,0,0,82,82,83,,,['l'],0,[0.3671094332667053],2018_Jul_09_1129,59.9978496751,go-nogo,001,6,
logos/1.jpg,properties1.xlsx,logos/1.jpg,0,0,400,a,0,0,0,0,0,83,83,87,,,['a'],0,[0.1337623896988589],2018_Jul_09_1129,59.9978496751,go-nogo,001,6,
logos/1.jpg,properties1.xlsx,frogs/ab72.jpg,0,0,400,l,0,0,0,0,0,84,84,70,,,['l'],0,[0.20038217988167162],2018_Jul_09_1129,59.9978496751,go-nogo,001,6,
logos/1.jpg,properties1.xlsx,frogs/ab39.jpg,0,0,400,l,0,0,0,0,0,85,85,38,,,['l'],0,[0.1502101192900227],2018_Jul_09_1129,59.9978496751,go-nogo,001,6,
logos/1.jpg,properties1.xlsx,frogs/ab5.jpg,0,0,400,l,0,0,0,0,0,86,86,4,,,['l'],0,[0.33374862257642235],2018_Jul_09_1129,59.9978496751,go-nogo,001,6,
logos/1.jpg,properties1.xlsx,frogs/ab8.jpg,0,0,400,l,0,0,0,0,0,87,87,7,,,['l'],0,[0.13393134984380595],2018_Jul_09_1129,59.9978496751,go-nogo,001,6,
logos/1.jpg,properties1.xlsx,frogs/ab45.jpg,0,0,400,l,0,0,0,0,0,88,88,44,,,['a'],0,[0.017126983503658266],2018_Jul_09_1129,59.9978496751,go-nogo,001,6,
logos/1.jpg,properties1.xlsx,frogs/ab76.jpg,0,0,400,l,0,0,0,0,0,89,89,74,,,['l'],0,[0.05026478955915081],2018_Jul_09_1129,59.9978496751,go-nogo,001,6,
logos/1.jpg,properties1.xlsx,,,,,,0,0,0,0,,,,,,,,,,2018_Jul_09_1129,59.9978496751,go-nogo,001,6,
logos/2.jpg,properties2.xlsx,frogs/ab8.jpg,0,0,400,l,0,1,1,1,0,0,0,7,space,17.3621293757,['l'],0,[0.0005825427197123645],2018_Jul_09_1129,59.9978496751,go-nogo,001,6,
logos/2.jpg,properties2.xlsx,logos/2.jpg,0,0,400,a,0,1,1,1,0,1,1,89,,,['a'],0,[0.06712553283614398],2018_Jul_09_1129,59.9978496751,go-nogo,001,6,
logos/2.jpg,properties2.xlsx,frogs/ab71.jpg,0,0,400,l,0,1,1,1,0,2,2,69,,,['l'],0,[0.050471865291910945],2018_Jul_09_1129,59.9978496751,go-nogo,001,6,
logos/2.jpg,properties2.xlsx,frogs/ab6.jpg,0,0,400,l,0,1,1,1,0,3,3,5,,,['l'],0,[0.5834176711832697],2018_Jul_09_1129,59.9978496751,go-nogo,001,6,
logos/2.jpg,properties2.xlsx,frogs/ab12.jpg,0,0,400,l,0,1,1,1,0,4,4,11,,,['l'],0,[0.18397484143588372],2018_Jul_09_1129,59.9978496751,go-nogo,001,6,
logos/2.jpg,properties2.xlsx,frogs/ab79.jpg,0,0,400,l,0,1,1,1,0,5,5,77,,,['l'],0,[0.017180459105475165],2018_Jul_09_1129,59.9978496751,go-nogo,001,6,
logos/2.jpg,properties2.xlsx,frogs/ab19.jpg,0,0,400,l,0,1,1,1,0,6,6,18,,,['l'],0,[0.1172321711492259],2018_Jul_09_1129,59.9978496751,go-nogo,001,6,
logos/2.jpg,properties2.xlsx,frogs/ab56.jpg,0,0,400,l,0,1,1,1,0,7,7,55,,,['l'],0,[0.01680442322867748],2018_Jul_09_1129,59.9978496751,go-nogo,001,6,
logos/2.jpg,properties2.xlsx,frogs/ab54.jpg,0,0,400,l,0,1,1,1,0,8,8,53,,,['l'],0,[0.000564907149055216],2018_Jul_09_1129,59.9978496751,go-nogo,001,6,
logos/2.jpg,properties2.xlsx,frogs/ab81.jpg,0,0,400,l,0,1,1,1,0,9,9,79,,,['a'],0,[0.0005734404894610634],2018_Jul_09_1129,59.9978496751,go-nogo,001,6,
logos/2.jpg,properties2.xlsx,frogs/ab20.jpg,0,0,400,l,0,1,1,1,0,10,10,19,,,['l'],0,[0.1333943182744406],2018_Jul_09_1129,59.9978496751,go-nogo,001,6,
logos/2.jpg,properties2.xlsx,frogs/ab36.jpg,0,0,400,l,0,1,1,1,0,11,11,35,,,['l'],0,[0.15042060835821758],2018_Jul_09_1129,59.9978496751,go-nogo,001,6,
logos/2.jpg,properties2.xlsx,frogs/ab74.jpg,0,0,400,l,0,1,1,1,0,12,12,72,,,['l'],0,[0.017251001387194265],2018_Jul_09_1129,59.9978496751,go-nogo,001,6,
logos/2.jpg,properties2.xlsx,frogs/ab43.jpg,0,0,400,l,0,1,1,1,0,13,13,42,,,['l'],0,[0.0005694582641808665],2018_Jul_09_1129,59.9978496751,go-nogo,001,6,
logos/2.jpg,properties2.xlsx,frogs/ab31.jpg,0,0,400,l,0,1,1,1,0,14,14,30,,,['l'],0,[0.15044222615506442],2018_Jul_09_1129,59.9978496751,go-nogo,001,6,
logos/2.jpg,properties2.xlsx,frogs/ab57.jpg,0,0,400,l,0,1,1,1,0,15,15,56,,,['l'],0,[0.0005688893743354129],2018_Jul_09_1129,59.9978496751,go-nogo,001,6,
logos/2.jpg,properties2.xlsx,frogs/ab21.jpg,0,0,400,l,0,1,1,1,0,16,16,20,,,['l'],0,[0.01721516135694401],2018_Jul_09_1129,59.9978496751,go-nogo,001,6,
logos/2.jpg,properties2.xlsx,frogs/ab45.jpg,0,0,400,l,0,1,1,1,0,17,17,44,,,['l'],0,[0.0005751471580879297],2018_Jul_09_1129,59.9978496751,go-nogo,001,6,
logos/2.jpg,properties2.xlsx,logos/2.jpg,0,0,400,a,0,1,1,1,0,18,18,80,,,['l'],0,[0.33373553812089085],2018_Jul_09_1129,59.9978496751,go-nogo,001,6,
logos/2.jpg,properties2.xlsx,frogs/ab76.jpg,0,0,400,l,0,1,1,1,0,19,19,74,,,['l'],0,[0.0005700271522073308],2018_Jul_09_1129,59.9978496751,go-nogo,001,6,
logos/2.jpg,properties2.xlsx,frogs/ab24.jpg,0,0,400,l,0,1,1,1,0,20,20,23,,,['l'],0,[0.01746149045538914],2018_Jul_09_1129,59.9978496751,go-nogo,001,6,
logos/2.jpg,properties2.xlsx,frogs/ab18.jpg,0,0,400,l,0,1,1,1,0,21,21,17,,,['l'],0,[0.0839566938657299],2018_Jul_09_1129,59.9978496751,go-nogo,001,6,
logos/2.jpg,properties2.xlsx,frogs/ab1.jpg,0,0,400,l,0,1,1,1,0,22,22,0,,,['l'],0,[0.016871552174961835],2018_Jul_09_1129,59.9978496751,go-nogo,001,6,
logos/2.jpg,properties2.xlsx,frogs/ab61.jpg,0,0,400,l,0,1,1,1,0,23,23,59,,,['l'],0,[0.0005677515955540002],2018_Jul_09_1129,59.9978496751,go-nogo,001,6,
logos/2.jpg,properties2.xlsx,frogs/ab35.jpg,0,0,400,l,0,1,1,1,0,24,24,34,,,['l'],0,[0.05062830986935296],2018_Jul_09_1129,59.9978496751,go-nogo,001,6,
logos/2.jpg,properties2.xlsx,logos/2.jpg,0,0,400,a,0,1,1,1,0,25,25,83,,,['l'],0,[0.28343661519920715],2018_Jul_09_1129,59.9978496751,go-nogo,001,6,
logos/2.jpg,properties2.xlsx,frogs/ab27.jpg,0,0,400,l,0,1,1,1,0,26,26,26,,,['l'],0,[0.10052957911830163],2018_Jul_09_1129,59.9978496751,go-nogo,001,6,
logos/2.jpg,properties2.xlsx,frogs/ab2.jpg,0,0,400,l,0,1,1,1,0,27,27,1,,,['l'],0,[1.2831988194402584],2018_Jul_09_1129,59.9978496751,go-nogo,001,6,
logos/2.jpg,properties2.xlsx,frogs/ab38.jpg,0,0,400,l,0,1,1,1,0,28,28,37,,,['l'],0,[0.15053324845484894],2018_Jul_09_1129,59.9978496751,go-nogo,001,6,
logos/2.jpg,properties2.xlsx,frogs/ab22.jpg,0,0,400,l,0,1,1,1,0,29,29,21,,,['l'],0,[0.16706574256295426],2018_Jul_09_1129,59.9978496751,go-nogo,001,6,
logos/2.jpg,properties2.xlsx,frogs/ab72.jpg,0,0,400,l,0,1,1,1,0,30,30,70,,,['l'],0,[0.15044677727019007],2018_Jul_09_1129,59.9978496751,go-nogo,001,6,
logos/2.jpg,properties2.xlsx,frogs/ab5.jpg,0,0,400,l,0,1,1,1,0,31,31,4,,,['a'],0,[0.017190130224662425],2018_Jul_09_1129,59.9978496751,go-nogo,001,6,
logos/2.jpg,properties2.xlsx,frogs/ab70.jpg,0,0,400,l,0,1,1,1,0,32,32,68,,,['l'],0,[0.1336838829656699],2018_Jul_09_1129,59.9978496751,go-nogo,001,6,
logos/2.jpg,properties2.xlsx,frogs/ab55.jpg,0,0,400,l,0,1,1,1,0,33,33,54,,,['l'],0,[0.05056800759575708],2018_Jul_09_1129,59.9978496751,go-nogo,001,6,
logos/2.jpg,properties2.xlsx,frogs/ab69.jpg,0,0,400,l,0,1,1,1,0,34,34,67,,,['l'],0,[0.017077490128940553],2018_Jul_09_1129,59.9978496751,go-nogo,001,6,
logos/2.jpg,properties2.xlsx,frogs/ab17.jpg,0,0,400,l,0,1,1,1,0,35,35,16,,,['l'],0,[0.08357326242730778],2018_Jul_09_1129,59.9978496751,go-nogo,001,6,
logos/2.jpg,properties2.xlsx,logos/2.jpg,0,0,400,a,0,1,1,1,0,36,36,82,,,['a'],0,[0.0005671827066180413],2018_Jul_09_1129,59.9978496751,go-nogo,001,6,
logos/2.jpg,properties2.xlsx,frogs/ab62.jpg,0,0,400,l,0,1,1,1,0,37,37,60,,,['l'],0,[0.08382641819844139],2018_Jul_09_1129,59.9978496751,go-nogo,001,6,
logos/2.jpg,properties2.xlsx,frogs/ab44.jpg,0,0,400,l,0,1,1,1,0,38,38,43,,,['l'],0,[0.01713267239756533],2018_Jul_09_1129,59.9978496751,go-nogo,001,6,
logos/2.jpg,properties2.xlsx,frogs/ab23.jpg,0,0,400,l,0,1,1,1,0,39,39,22,,,['l'],0,[0.050386531885123986],2018_Jul_09_1129,59.9978496751,go-nogo,001,6,
logos/2.jpg,properties2.xlsx,logos/2.jpg,0,0,400,a,0,1,1,1,0,40,40,81,,,['l'],0,[2.1660804261664452],2018_Jul_09_1129,59.9978496751,go-nogo,001,6,
logos/2.jpg,properties2.xlsx,logos/2.jpg,0,0,400,a,0,1,1,1,0,41,41,85,,,['l'],0,[0.3836464784890268],2018_Jul_09_1129,59.9978496751,go-nogo,001,6,
logos/2.jpg,properties2.xlsx,frogs/ab14.jpg,0,0,400,l,0,1,1,1,0,42,42,13,,,['l'],0,[0.08386567156503588],2018_Jul_09_1129,59.9978496751,go-nogo,001,6,
logos/2.jpg,properties2.xlsx,frogs/ab10.jpg,0,0,400,l,0,1,1,1,0,43,43,9,,,['l'],0,[0.06711643060589267],2018_Jul_09_1129,59.9978496751,go-nogo,001,6,
logos/2.jpg,properties2.xlsx,frogs/ab65.jpg,0,0,400,l,0,1,1,1,0,44,44,63,,,['l'],0,[0.31771561333971476],2018_Jul_09_1129,59.9978496751,go-nogo,001,6,
logos/2.jpg,properties2.xlsx,frogs/ab33.jpg,0,0,400,l,0,1,1,1,0,45,45,32,,,['l'],0,[0.2504398937089718],2018_Jul_09_1129,59.9978496751,go-nogo,001,6,
logos/2.jpg,properties2.xlsx,frogs/ab25.jpg,0,0,400,l,0,1,1,1,0,46,46,24,,,['l'],0,[0.15042857280968747],2018_Jul_09_1129,59.9978496751,go-nogo,001,6,
logos/2.jpg,properties2.xlsx,frogs/ab58.jpg,0,0,400,l,0,1,1,1,0,47,47,57,,,['l'],0,[0.2504558226110021],2018_Jul_09_1129,59.9978496751,go-nogo,001,6,
logos/2.jpg,properties2.xlsx,frogs/ab28.jpg,0,0,400,l,0,1,1,1,0,48,48,27,,,['a'],0,[0.06716763064923725],2018_Jul_09_1129,59.9978496751,go-nogo,001,6,
logos/2.jpg,properties2.xlsx,frogs/ab51.jpg,0,0,400,l,0,1,1,1,0,49,49,50,,,['l'],0,[0.03368849096932536],2018_Jul_09_1129,59.9978496751,go-nogo,001,6,
logos/2.jpg,properties2.xlsx,frogs/ab37.jpg,0,0,400,l,0,1,1,1,0,50,50,36,,,['l'],0,[0.10052275244561315],2018_Jul_09_1129,59.9978496751,go-nogo,001,6,
logos/2.jpg,properties2.xlsx,frogs/ab49.jpg,0,0,400,l,0,1,1,1,0,51,51,48,,,['l'],0,[0.03386826001224108],2018_Jul_09_1129,59.9978496751,go-nogo,001,6,
logos/2.jpg,properties2.xlsx,frogs/ab16.jpg,0,0,400,l,0,1,1,1,0,52,52,15,,,['l'],0,[0.06709822614539007],2018_Jul_09_1129,59.9978496751,go-nogo,001,6,
logos/2.jpg,properties2.xlsx,frogs/ab4.jpg,0,0,400,l,0,1,1,1,0,53,53,3,,,['l'],0,[0.03346377966681757],2018_Jul_09_1129,59.9978496751,go-nogo,001,6,
logos/2.jpg,properties2.xlsx,frogs/ab73.jpg,0,0,400,l,0,1,1,1,0,54,54,71,,,['l'],0,[0.10053526801220869],2018_Jul_09_1129,59.9978496751,go-nogo,001,6,
logos/2.jpg,properties2.xlsx,frogs/ab46.jpg,0,0,400,l,0,1,1,1,0,55,55,45,,,['l'],0,[0.13371574077063997],2018_Jul_09_1129,59.9978496751,go-nogo,001,6,
logos/2.jpg,properties2.xlsx,frogs/ab52.jpg,0,0,400,l,0,1,1,1,0,56,56,51,,,['l'],0,[0.40036329275426397],2018_Jul_09_1129,59.9978496751,go-nogo,001,6,
logos/2.jpg,properties2.xlsx,frogs/ab7.jpg,0,0,400,l,0,1,1,1,0,57,57,6,,,['l'],0,[0.0839254049496958],2018_Jul_09_1129,59.9978496751,go-nogo,001,6,
logos/2.jpg,properties2.xlsx,frogs/ab67.jpg,0,0,400,l,0,1,1,1,0,58,58,65,,,['l'],0,[0.28364027759562305],2018_Jul_09_1129,59.9978496751,go-nogo,001,6,
logos/2.jpg,properties2.xlsx,frogs/ab30.jpg,0,0,400,l,0,1,1,1,0,59,59,29,,,['l'],0,[0.0005768538258053013],2018_Jul_09_1129,59.9978496751,go-nogo,001,6,
logos/2.jpg,properties2.xlsx,frogs/ab63.jpg,0,0,400,l,0,1,1,1,0,60,60,61,,,['l'],0,[0.21683958059202268],2018_Jul_09_1129,59.9978496751,go-nogo,001,6,
logos/2.jpg,properties2.xlsx,frogs/ab75.jpg,0,0,400,l,0,1,1,1,0,61,61,73,,,['l'],0,[0.10038394343882828],2018_Jul_09_1129,59.9978496751,go-nogo,001,6,
logos/2.jpg,properties2.xlsx,frogs/ab68.jpg,0,0,400,l,0,1,1,1,0,62,62,66,,,['l'],0,[0.1005887436131161],2018_Jul_09_1129,59.9978496751,go-nogo,001,6,
logos/2.jpg,properties2.xlsx,logos/2.jpg,0,0,400,a,0,1,1,1,0,63,63,88,,,['l'],0,[0.38369654075449944],2018_Jul_09_1129,59.9978496751,go-nogo,001,6,
logos/2.jpg,properties2.xlsx,frogs/ab26.jpg,0,0,400,l,0,1,1,1,0,64,64,25,,,['l'],0,[0.1005051168758655],2018_Jul_09_1129,59.9978496751,go-nogo,001,6,
logos/2.jpg,properties2.xlsx,frogs/ab3.jpg,0,0,400,l,0,1,1,1,0,65,65,2,,,['l'],0,[0.11710815326568991],2018_Jul_09_1129,59.9978496751,go-nogo,001,6,
logos/2.jpg,properties2.xlsx,frogs/ab34.jpg,0,0,400,l,0,1,1,1,0,66,66,33,,,['l'],0,[0.05045650527881662],2018_Jul_09_1129,59.9978496751,go-nogo,001,6,
logos/2.jpg,properties2.xlsx,frogs/ab60.jpg,0,0,400,l,0,1,1,1,0,67,67,58,,,['l'],0,[0.050408149681970826],2018_Jul_09_1129,59.9978496751,go-nogo,001,6,
logos/2.jpg,properties2.xlsx,frogs/ab42.jpg,0,0,400,l,0,1,1,1,0,68,68,41,,,['l'],0,[0.03391832227680425],2018_Jul_09_1129,59.9978496751,go-nogo,001,6,
logos/2.jpg,properties2.xlsx,frogs/ab11.jpg,0,0,400,l,0,1,1,1,0,69,69,10,,,['l'],0,[0.13401326991333917],2018_Jul_09_1129,59.9978496751,go-nogo,001,6,
logos/2.jpg,properties2.xlsx,frogs/ab53.jpg,0,0,400,l,0,1,1,1,0,70,70,52,,,['l'],0,[0.35056214803535113],2018_Jul_09_1129,59.9978496751,go-nogo,001,6,
logos/2.jpg,properties2.xlsx,frogs/ab80.jpg,0,0,400,l,0,1,1,1,0,71,71,78,,,['l'],0,[0.20042598436430126],2018_Jul_09_1129,59.9978496751,go-nogo,001,6,
logos/2.jpg,properties2.xlsx,frogs/ab13.jpg,0,0,400,l,0,1,1,1,0,72,72,12,,,['l'],0,[0.08376839148240833],2018_Jul_09_1129,59.9978496751,go-nogo,001,6,
logos/2.jpg,properties2.xlsx,frogs/ab40.jpg,0,0,400,l,0,1,1,1,0,73,73,39,,,['l'],0,[1.1332020336658388],2018_Jul_09_1129,59.9978496751,go-nogo,001,6,
logos/2.jpg,properties2.xlsx,frogs/ab64.jpg,0,0,400,l,0,1,1,1,0,74,74,62,,,['l'],0,[0.1670651736740183],2018_Jul_09_1129,59.9978496751,go-nogo,001,6,
logos/2.jpg,properties2.xlsx,frogs/ab66.jpg,0,0,400,l,0,1,1,1,0,75,75,64,,,['l'],0,[0.033737415456016606],2018_Jul_09_1129,59.9978496751,go-nogo,001,6,
logos/2.jpg,properties2.xlsx,logos/2.jpg,0,0,400,a,0,1,1,1,0,76,76,84,,,['a'],0,[0.01730163254251238],2018_Jul_09_1129,59.9978496751,go-nogo,001,6,
logos/2.jpg,properties2.xlsx,frogs/ab32.jpg,0,0,400,l,0,1,1,1,0,77,77,31,,,['l'],0,[0.13371574077063997],2018_Jul_09_1129,59.9978496751,go-nogo,001,6,
logos/2.jpg,properties2.xlsx,frogs/ab77.jpg,0,0,400,l,0,1,1,1,0,78,78,75,,,['l'],0,[0.20041062435029744],2018_Jul_09_1129,59.9978496751,go-nogo,001,6,
logos/2.jpg,properties2.xlsx,frogs/ab29.jpg,0,0,400,l,0,1,1,1,0,79,79,28,,,['l'],0,[0.06715283952598838],2018_Jul_09_1129,59.9978496751,go-nogo,001,6,
logos/2.jpg,properties2.xlsx,frogs/ab15.jpg,0,0,400,l,0,1,1,1,0,80,80,14,,,['l'],0,[0.0005660449278366286],2018_Jul_09_1129,59.9978496751,go-nogo,001,6,
logos/2.jpg,properties2.xlsx,frogs/ab9.jpg,0,0,400,l,0,1,1,1,0,81,81,8,,,['l'],0,[0.11706605545259663],2018_Jul_09_1129,59.9978496751,go-nogo,001,6,
logos/2.jpg,properties2.xlsx,frogs/ab50.jpg,0,0,400,l,0,1,1,1,0,82,82,49,,,['l'],0,[0.01719354356009717],2018_Jul_09_1129,59.9978496751,go-nogo,001,6,
logos/2.jpg,properties2.xlsx,frogs/ab78.jpg,0,0,400,l,0,1,1,1,0,83,83,76,,,['l'],0,[0.08393280051222973],2018_Jul_09_1129,59.9978496751,go-nogo,001,6,
logos/2.jpg,properties2.xlsx,logos/2.jpg,0,0,400,a,0,1,1,1,0,84,84,86,,,['l'],0,[0.11728223341378907],2018_Jul_09_1129,59.9978496751,go-nogo,001,6,
logos/2.jpg,properties2.xlsx,frogs/ab47.jpg,0,0,400,l,0,1,1,1,0,85,85,46,,,['l'],0,[0.0005694582641808665],2018_Jul_09_1129,59.9978496751,go-nogo,001,6,
logos/2.jpg,properties2.xlsx,frogs/ab41.jpg,0,0,400,l,0,1,1,1,0,86,86,40,,,['l'],0,[0.11708369102325378],2018_Jul_09_1129,59.9978496751,go-nogo,001,6,
logos/2.jpg,properties2.xlsx,frogs/ab39.jpg,0,0,400,l,0,1,1,1,0,87,87,38,,,['l'],0,[0.18368470785571844],2018_Jul_09_1129,59.9978496751,go-nogo,001,6,
logos/2.jpg,properties2.xlsx,frogs/ab48.jpg,0,0,400,l,0,1,1,1,0,88,88,47,,,['l'],0,[0.0172987880951041],2018_Jul_09_1129,59.9978496751,go-nogo,001,6,
logos/2.jpg,properties2.xlsx,logos/2.jpg,0,0,400,a,0,1,1,1,0,89,89,87,,,['l'],0,[0.08383779598625551],2018_Jul_09_1129,59.9978496751,go-nogo,001,6,
logos/2.jpg,properties2.xlsx,,,,,,0,1,1,1,,,,,,,,,,2018_Jul_09_1129,59.9978496751,go-nogo,001,6,
logos/4.jpg,properties4.xlsx,frogs/ab56.jpg,0,0,400,l,0,2,2,3,0,0,0,55,space,4.91186708924,['l'],0,[0.4332809386214649],2018_Jul_09_1129,59.9978496751,go-nogo,001,6,
logos/4.jpg,properties4.xlsx,frogs/ab40.jpg,0,0,400,l,0,2,2,3,0,1,1,39,,,['l'],0,[0.30047940307576937],2018_Jul_09_1129,59.9978496751,go-nogo,001,6,
logos/4.jpg,properties4.xlsx,frogs/ab22.jpg,0,0,400,l,0,2,2,3,0,2,2,21,,,['l'],0,[0.017268636957851413],2018_Jul_09_1129,59.9978496751,go-nogo,001,6,
logos/4.jpg,properties4.xlsx,frogs/ab65.jpg,0,0,400,l,0,2,2,3,0,3,3,63,,,['l'],0,[0.15051845733160008],2018_Jul_09_1129,59.9978496751,go-nogo,001,6,
logos/4.jpg,properties4.xlsx,frogs/ab50.jpg,0,0,400,l,0,2,2,3,0,4,4,49,,,['l'],0,[0.08385998267203831],2018_Jul_09_1129,59.9978496751,go-nogo,001,6,
logos/4.jpg,properties4.xlsx,frogs/ab45.jpg,0,0,400,l,0,2,2,3,0,5,5,44,,,['l'],0,[0.21706827412072016],2018_Jul_09_1129,59.9978496751,go-nogo,001,6,
logos/4.jpg,properties4.xlsx,frogs/ab48.jpg,0,0,400,l,0,2,2,3,0,6,6,47,,,['l'],0,[0.017038805650372524],2018_Jul_09_1129,59.9978496751,go-nogo,001,6,
logos/4.jpg,properties4.xlsx,frogs/ab21.jpg,0,0,400,l,0,2,2,3,0,7,7,20,,,['l'],0,[0.05043830081831402],2018_Jul_09_1129,59.9978496751,go-nogo,001,6,
logos/4.jpg,properties4.xlsx,frogs/ab79.jpg,0,0,400,l,0,2,2,3,0,8,8,77,,,['l'],0,[0.03401901569668553],2018_Jul_09_1129,59.9978496751,go-nogo,001,6,
logos/4.jpg,properties4.xlsx,frogs/ab41.jpg,0,0,400,l,0,2,2,3,0,9,9,40,,,['l'],0,[0.28401858902907406],2018_Jul_09_1129,59.9978496751,go-nogo,001,6,
logos/4.jpg,properties4.xlsx,frogs/ab31.jpg,0,0,400,l,0,2,2,3,0,10,10,30,,,['l'],0,[0.03382161108311266],2018_Jul_09_1129,59.9978496751,go-nogo,001,6,
logos/4.jpg,properties4.xlsx,frogs/ab47.jpg,0,0,400,l,0,2,2,3,0,11,11,46,,,['l'],0,[0.05055947425535123],2018_Jul_09_1129,59.9978496751,go-nogo,001,6,
logos/4.jpg,properties4.xlsx,frogs/ab27.jpg,0,0,400,l,0,2,2,3,0,12,12,26,,,['l'],0,[0.23365310605095146],2018_Jul_09_1129,59.9978496751,go-nogo,001,6,
logos/4.jpg,properties4.xlsx,frogs/ab73.jpg,0,0,400,l,0,2,2,3,0,13,13,71,,,['l'],0,[0.13336871825231356],2018_Jul_09_1129,59.9978496751,go-nogo,001,6,
logos/4.jpg,properties4.xlsx,frogs/ab35.jpg,0,0,400,l,0,2,2,3,0,14,14,34,,,['l'],0,[0.20033325539498037],2018_Jul_09_1129,59.9978496751,go-nogo,001,6,
logos/4.jpg,properties4.xlsx,logos/4.jpg,0,0,400,a,0,2,2,3,0,15,15,80,,,['l'],0,[0.33409052509068715],2018_Jul_09_1129,59.9978496751,go-nogo,001,6,
logos/4.jpg,properties4.xlsx,frogs/ab78.jpg,0,0,400,l,0,2,2,3,0,16,16,76,,,['l'],0,[0.11704273098712292],2018_Jul_09_1129,59.9978496751,go-nogo,001,6,
logos/4.jpg,properties4.xlsx,frogs/ab71.jpg,0,0,400,l,0,2,2,3,0,17,17,69,,,['l'],0,[0.13388925202980317],2018_Jul_09_1129,59.9978496751,go-nogo,001,6,
logos/4.jpg,properties4.xlsx,frogs/ab62.jpg,0,0,400,l,0,2,2,3,0,18,18,60,,,['l'],0,[0.10063482365239906],2018_Jul_09_1129,59.9978496751,go-nogo,001,6,
logos/4.jpg,properties4.xlsx,frogs/ab72.jpg,0,0,400,l,0,2,2,3,0,19,19,70,,,['l'],0,[0.1665184709845562],2018_Jul_09_1129,59.9978496751,go-nogo,001,6,
logos/4.jpg,properties4.xlsx,frogs/ab20.jpg,0,0,400,l,0,2,2,3,0,20,20,19,,,['l'],0,[0.1504058172358782],2018_Jul_09_1129,59.9978496751,go-nogo,001,6,
logos/4.jpg,properties4.xlsx,frogs/ab2.jpg,0,0,400,l,0,2,2,3,0,21,21,1,,,['l'],0,[0.10062799697971059],2018_Jul_09_1129,59.9978496751,go-nogo,001,6,
logos/4.jpg,properties4.xlsx,frogs/ab81.jpg,0,0,400,l,0,2,2,3,0,22,22,79,,,['l'],0,[0.05060839874113299],2018_Jul_09_1129,59.9978496751,go-nogo,001,6,
logos/4.jpg,properties4.xlsx,frogs/ab58.jpg,0,0,400,l,0,2,2,3,0,23,23,57,,,['l'],0,[0.01694892112936941],2018_Jul_09_1129,59.9978496751,go-nogo,001,6,
logos/4.jpg,properties4.xlsx,frogs/ab19.jpg,0,0,400,l,0,2,2,3,0,24,24,18,,,['l'],0,[0.21728160763632332],2018_Jul_09_1129,59.9978496751,go-nogo,001,6,
logos/4.jpg,properties4.xlsx,frogs/ab33.jpg,0,0,400,l,0,2,2,3,0,25,25,32,,,['l'],0,[0.25035456030309433],2018_Jul_09_1129,59.9978496751,go-nogo,001,6,
logos/4.jpg,properties4.xlsx,frogs/ab12.jpg,0,0,400,l,0,2,2,3,0,26,26,11,,,['l'],0,[0.28328927285110694],2018_Jul_09_1129,59.9978496751,go-nogo,001,6,
logos/4.jpg,properties4.xlsx,frogs/ab67.jpg,0,0,400,l,0,2,2,3,0,27,27,65,,,['l'],0,[0.15130352466803743],2018_Jul_09_1129,59.9978496751,go-nogo,001,6,
logos/4.jpg,properties4.xlsx,frogs/ab11.jpg,0,0,400,l,0,2,2,3,0,28,28,10,,,['l'],0,[0.033650375381512276],2018_Jul_09_1129,59.9978496751,go-nogo,001,6,
logos/4.jpg,properties4.xlsx,frogs/ab25.jpg,0,0,400,l,0,2,2,3,0,29,29,24,,,['l'],0,[0.1672022760130858],2018_Jul_09_1129,59.9978496751,go-nogo,001,6,
logos/4.jpg,properties4.xlsx,frogs/ab75.jpg,0,0,400,l,0,2,2,3,0,30,30,73,,,['l'],0,[0.21664160709042335],2018_Jul_09_1129,59.9978496751,go-nogo,001,6,
logos/4.jpg,properties4.xlsx,frogs/ab69.jpg,0,0,400,l,0,2,2,3,0,31,31,67,,,['l'],0,[0.06706978167767375],2018_Jul_09_1129,59.9978496751,go-nogo,001,6,
logos/4.jpg,properties4.xlsx,frogs/ab29.jpg,0,0,400,l,0,2,2,3,0,32,32,28,,,['l'],0,[0.10054892135758564],2018_Jul_09_1129,59.9978496751,go-nogo,001,6,
logos/4.jpg,properties4.xlsx,frogs/ab76.jpg,0,0,400,l,0,2,2,3,0,33,33,74,,,['l'],0,[0.1003276233905126],2018_Jul_09_1129,59.9978496751,go-nogo,001,6,
logos/4.jpg,properties4.xlsx,frogs/ab3.jpg,0,0,400,l,0,2,2,3,0,34,34,2,,,['l'],0,[0.13380619418148854],2018_Jul_09_1129,59.9978496751,go-nogo,001,6,
logos/4.jpg,properties4.xlsx,frogs/ab52.jpg,0,0,400,l,0,2,2,3,0,35,35,51,,,['l'],0,[0.2501998223933697],2018_Jul_09_1129,59.9978496751,go-nogo,001,6,
logos/4.jpg,properties4.xlsx,frogs/ab70.jpg,0,0,400,l,0,2,2,3,0,36,36,68,,,['l'],0,[0.30041568746582925],2018_Jul_09_1129,59.9978496751,go-nogo,001,6,
logos/4.jpg,properties4.xlsx,frogs/ab39.jpg,0,0,400,l,0,2,2,3,0,37,37,38,,,['l'],0,[0.03384550443752232],2018_Jul_09_1129,59.9978496751,go-nogo,001,6,
logos/4.jpg,properties4.xlsx,logos/4.jpg,0,0,400,a,0,2,2,3,0,38,38,88,,,['l'],0,[0.2669166366576974],2018_Jul_09_1129,59.9978496751,go-nogo,001,6,
logos/4.jpg,properties4.xlsx,frogs/ab51.jpg,0,0,400,l,0,2,2,3,0,39,39,50,,,['l'],0,[0.05042862969912676],2018_Jul_09_1129,59.9978496751,go-nogo,001,6,
logos/4.jpg,properties4.xlsx,frogs/ab63.jpg,0,0,400,l,0,2,2,3,0,40,40,61,,,['l'],0,[0.03389613559102145],2018_Jul_09_1129,59.9978496751,go-nogo,001,6,
logos/4.jpg,properties4.xlsx,frogs/ab8.jpg,0,0,400,l,0,2,2,3,0,41,41,7,,,['l'],0,[0.033842091101178085],2018_Jul_09_1129,59.9978496751,go-nogo,001,6,
logos/4.jpg,properties4.xlsx,frogs/ab5.jpg,0,0,400,l,0,2,2,3,0,42,42,4,,,['l'],0,[0.067007772735451],2018_Jul_09_1129,59.9978496751,go-nogo,001,6,
logos/4.jpg,properties4.xlsx,frogs/ab10.jpg,0,0,400,l,0,2,2,3,0,43,43,9,,,['l'],0,[0.0506448076612287],2018_Jul_09_1129,59.9978496751,go-nogo,001,6,
logos/4.jpg,properties4.xlsx,logos/4.jpg,0,0,400,a,0,2,2,3,0,44,44,87,,,['l'],0,[0.21713142084172432],2018_Jul_09_1129,59.9978496751,go-nogo,001,6,
logos/4.jpg,properties4.xlsx,frogs/ab80.jpg,0,0,400,l,0,2,2,3,0,45,45,78,,,['l'],0,[0.06716763065014675],2018_Jul_09_1129,59.9978496751,go-nogo,001,6,
logos/4.jpg,properties4.xlsx,logos/4.jpg,0,0,400,a,0,2,2,3,0,46,46,84,,,['l'],0,[0.35036189897618897],2018_Jul_09_1129,59.9978496751,go-nogo,001,6,
logos/4.jpg,properties4.xlsx,frogs/ab57.jpg,0,0,400,l,0,2,2,3,0,47,47,56,,,['l'],0,[0.1505218706679443],2018_Jul_09_1129,59.9978496751,go-nogo,001,6,
logos/4.jpg,properties4.xlsx,frogs/ab44.jpg,0,0,400,l,0,2,2,3,0,48,48,43,,,['l'],0,[0.10057679693636601],2018_Jul_09_1129,59.9978496751,go-nogo,001,6,
logos/4.jpg,properties4.xlsx,frogs/ab6.jpg,0,0,400,l,0,2,2,3,0,49,49,5,,,['l'],0,[0.10016207658190979],2018_Jul_09_1129,59.9978496751,go-nogo,001,6,
logos/4.jpg,properties4.xlsx,frogs/ab60.jpg,0,0,400,l,0,2,2,3,0,50,50,58,,,['l'],0,[0.18371827232840587],2018_Jul_09_1129,59.9978496751,go-nogo,001,6,
logos/4.jpg,properties4.xlsx,frogs/ab68.jpg,0,0,400,l,0,2,2,3,0,51,51,66,,,['l'],0,[0.1503915950006558],2018_Jul_09_1129,59.9978496751,go-nogo,001,6,
logos/4.jpg,properties4.xlsx,frogs/ab28.jpg,0,0,400,l,0,2,2,3,0,52,52,27,,,['l'],0,[0.21715758975278732],2018_Jul_09_1129,59.9978496751,go-nogo,001,6,
logos/4.jpg,properties4.xlsx,frogs/ab24.jpg,0,0,400,l,0,2,2,3,0,53,53,23,,,['l'],0,[0.0005723027106796508],2018_Jul_09_1129,59.9978496751,go-nogo,001,6,
logos/4.jpg,properties4.xlsx,frogs/ab7.jpg,0,0,400,l,0,2,2,3,0,54,54,6,,,['l'],0,[0.1671459559647701],2018_Jul_09_1129,59.9978496751,go-nogo,001,6,
logos/4.jpg,properties4.xlsx,frogs/ab74.jpg,0,0,400,l,0,2,2,3,0,55,55,72,,,['l'],0,[0.16704014254082722],2018_Jul_09_1129,59.9978496751,go-nogo,001,6,
logos/4.jpg,properties4.xlsx,frogs/ab4.jpg,0,0,400,l,0,2,2,3,0,56,56,3,,,['l'],0,[0.11716219775644277],2018_Jul_09_1129,59.9978496751,go-nogo,001,6,
logos/4.jpg,properties4.xlsx,frogs/ab15.jpg,0,0,400,l,0,2,2,3,0,57,57,14,,,['l'],0,[0.1505036662083512],2018_Jul_09_1129,59.9978496751,go-nogo,001,6,
logos/4.jpg,properties4.xlsx,logos/4.jpg,0,0,400,a,0,2,2,3,0,58,58,89,,,['a'],0,[0.05058450538763282],2018_Jul_09_1129,59.9978496751,go-nogo,001,6,
logos/4.jpg,properties4.xlsx,logos/4.jpg,0,0,400,a,0,2,2,3,0,59,59,81,,,['a'],0,[0.06709139947361109],2018_Jul_09_1129,59.9978496751,go-nogo,001,6,
logos/4.jpg,properties4.xlsx,frogs/ab9.jpg,0,0,400,l,0,2,2,3,0,60,60,8,,,['a'],0,[0.0672478440519626],2018_Jul_09_1129,59.9978496751,go-nogo,001,6,
logos/4.jpg,properties4.xlsx,frogs/ab43.jpg,0,0,400,l,0,2,2,3,0,61,61,42,,,['l'],0,[0.06723532848536706],2018_Jul_09_1129,59.9978496751,go-nogo,001,6,
logos/4.jpg,properties4.xlsx,logos/4.jpg,0,0,400,a,0,2,2,3,0,62,62,82,,,['l'],0,[0.6001543965758174],2018_Jul_09_1129,59.9978496751,go-nogo,001,6,
logos/4.jpg,properties4.xlsx,frogs/ab61.jpg,0,0,400,l,0,2,2,3,0,63,63,59,,,['l'],0,[0.10029064558148093],2018_Jul_09_1129,59.9978496751,go-nogo,001,6,
logos/4.jpg,properties4.xlsx,logos/4.jpg,0,0,400,a,0,2,2,3,0,64,64,86,,,['l'],0,[0.36702296208113694],2018_Jul_09_1129,59.9978496751,go-nogo,001,6,
logos/4.jpg,properties4.xlsx,frogs/ab16.jpg,0,0,400,l,0,2,2,3,0,65,65,15,,,['l'],0,[0.05043488748196978],2018_Jul_09_1129,59.9978496751,go-nogo,001,6,
logos/4.jpg,properties4.xlsx,logos/4.jpg,0,0,400,a,0,2,2,3,0,66,66,83,,,['a'],0,[0.017080903464375297],2018_Jul_09_1129,59.9978496751,go-nogo,001,6,
logos/4.jpg,properties4.xlsx,frogs/ab36.jpg,0,0,400,l,0,2,2,3,0,67,67,35,,,['l'],0,[0.2835924908877132],2018_Jul_09_1129,59.9978496751,go-nogo,001,6,
logos/4.jpg,properties4.xlsx,frogs/ab64.jpg,0,0,400,l,0,2,2,3,0,68,68,62,,,['l'],0,[0.10043343681445549],2018_Jul_09_1129,59.9978496751,go-nogo,001,6,
logos/4.jpg,properties4.xlsx,frogs/ab46.jpg,0,0,400,l,0,2,2,3,0,69,69,45,,,['l'],0,[0.16729557386952365],2018_Jul_09_1129,59.9978496751,go-nogo,001,6,
logos/4.jpg,properties4.xlsx,logos/4.jpg,0,0,400,a,0,2,2,3,0,70,70,85,,,['a'],0,[0.000564907149055216],2018_Jul_09_1129,59.9978496751,go-nogo,001,6,
logos/4.jpg,properties4.xlsx,frogs/ab30.jpg,0,0,400,l,0,2,2,3,0,71,71,29,,,['l'],0,[0.08342990230539726],2018_Jul_09_1129,59.9978496751,go-nogo,001,6,
logos/4.jpg,properties4.xlsx,frogs/ab13.jpg,0,0,400,l,0,2,2,3,0,72,72,12,,,['l'],0,[0.18375638791712845],2018_Jul_09_1129,59.9978496751,go-nogo,001,6,
logos/4.jpg,properties4.xlsx,frogs/ab77.jpg,0,0,400,l,0,2,2,3,0,73,73,75,,,['l'],0,[0.18377231681915873],2018_Jul_09_1129,59.9978496751,go-nogo,001,6,
logos/4.jpg,properties4.xlsx,frogs/ab17.jpg,0,0,400,l,0,2,2,3,0,74,74,16,,,['l'],0,[0.1838235168634128],2018_Jul_09_1129,59.9978496751,go-nogo,001,6,
logos/4.jpg,properties4.xlsx,frogs/ab37.jpg,0,0,400,l,0,2,2,3,0,75,75,36,,,['l'],0,[0.08381731596909958],2018_Jul_09_1129,59.9978496751,go-nogo,001,6,
logos/4.jpg,properties4.xlsx,frogs/ab54.jpg,0,0,400,l,0,2,2,3,0,76,76,53,,,['l'],0,[0.2171149230489391],2018_Jul_09_1129,59.9978496751,go-nogo,001,6,
logos/4.jpg,properties4.xlsx,frogs/ab14.jpg,0,0,400,l,0,2,2,3,0,77,77,13,,,['l'],0,[0.16713912929208163],2018_Jul_09_1129,59.9978496751,go-nogo,001,6,
logos/4.jpg,properties4.xlsx,frogs/ab55.jpg,0,0,400,l,0,2,2,3,0,78,78,54,,,['l'],0,[0.1170757265708744],2018_Jul_09_1129,59.9978496751,go-nogo,001,6,
logos/4.jpg,properties4.xlsx,frogs/ab26.jpg,0,0,400,l,0,2,2,3,0,79,79,25,,,['l'],0,[0.2170546207753432],2018_Jul_09_1129,59.9978496751,go-nogo,001,6,
logos/4.jpg,properties4.xlsx,frogs/ab18.jpg,0,0,400,l,0,2,2,3,0,80,80,17,,,['l'],0,[0.1504399505984111],2018_Jul_09_1129,59.9978496751,go-nogo,001,6,
logos/4.jpg,properties4.xlsx,frogs/ab1.jpg,0,0,400,l,0,2,2,3,0,81,81,0,,,['l'],0,[0.11718438444131607],2018_Jul_09_1129,59.9978496751,go-nogo,001,6,
logos/4.jpg,properties4.xlsx,frogs/ab38.jpg,0,0,400,l,0,2,2,3,0,82,82,37,,,['l'],0,[0.13368160740901658],2018_Jul_09_1129,59.9978496751,go-nogo,001,6,
logos/4.jpg,properties4.xlsx,frogs/ab34.jpg,0,0,400,l,0,2,2,3,0,83,83,33,,,['l'],0,[0.11717016220700316],2018_Jul_09_1129,59.9978496751,go-nogo,001,6,
logos/4.jpg,properties4.xlsx,frogs/ab49.jpg,0,0,400,l,0,2,2,3,0,84,84,48,,,['l'],0,[0.13379595417245582],2018_Jul_09_1129,59.9978496751,go-nogo,001,6,
logos/4.jpg,properties4.xlsx,frogs/ab66.jpg,0,0,400,l,0,2,2,3,0,85,85,64,,,['l'],0,[0.13380960751783277],2018_Jul_09_1129,59.9978496751,go-nogo,001,6,
logos/4.jpg,properties4.xlsx,frogs/ab53.jpg,0,0,400,l,0,2,2,3,0,86,86,52,,,['l'],0,[0.06718242177339562],2018_Jul_09_1129,59.9978496751,go-nogo,001,6,
logos/4.jpg,properties4.xlsx,frogs/ab42.jpg,0,0,400,l,0,2,2,3,0,87,87,41,,,['l'],0,[0.06706011055848649],2018_Jul_09_1129,59.9978496751,go-nogo,001,6,
logos/4.jpg,properties4.xlsx,frogs/ab23.jpg,0,0,400,l,0,2,2,3,0,88,88,22,,,['l'],0,[0.5998858807915894],2018_Jul_09_1129,59.9978496751,go-nogo,001,6,
logos/4.jpg,properties4.xlsx,frogs/ab32.jpg,0,0,400,l,0,2,2,3,0,89,89,31,,,['l'],0,[0.2167258027175194],2018_Jul_09_1129,59.9978496751,go-nogo,001,6,
logos/4.jpg,properties4.xlsx,,,,,,0,2,2,3,,,,,,,,,,2018_Jul_09_1129,59.9978496751,go-nogo,001,6,
logos/3.jpg,properties3.xlsx,frogs/ab21.jpg,0,0,400,l,0,3,3,2,0,0,0,20,space,3.9786911107,['l'],0,[0.08390776937903865],2018_Jul_09_1129,59.9978496751,go-nogo,001,6,
logos/3.jpg,properties3.xlsx,frogs/ab57.jpg,0,0,400,l,0,3,3,2,0,1,1,56,,,['l'],0,[0.15045360394196905],2018_Jul_09_1129,59.9978496751,go-nogo,001,6,
logos/3.jpg,properties3.xlsx,frogs/ab8.jpg,0,0,400,l,0,3,3,2,0,2,2,7,,,['l'],0,[0.11704841988102999],2018_Jul_09_1129,59.9978496751,go-nogo,001,6,
logos/3.jpg,properties3.xlsx,frogs/ab14.jpg,0,0,400,l,0,3,3,2,0,3,3,13,,,['l'],0,[0.0005802671621495392],2018_Jul_09_1129,59.9978496751,go-nogo,001,6,
logos/3.jpg,properties3.xlsx,frogs/ab22.jpg,0,0,400,l,0,3,3,2,0,4,4,21,,,['l'],0,[0.23370032386901585],2018_Jul_09_1129,59.9978496751,go-nogo,001,6,
logos/3.jpg,properties3.xlsx,frogs/ab18.jpg,0,0,400,l,0,3,3,2,0,5,5,17,,,['l'],0,[0.03392230450299394],2018_Jul_09_1129,59.9978496751,go-nogo,001,6,
logos/3.jpg,properties3.xlsx,frogs/ab32.jpg,0,0,400,l,0,3,3,2,0,6,6,31,,,['l'],0,[0.05040473634562659],2018_Jul_09_1129,59.9978496751,go-nogo,001,6,
logos/3.jpg,properties3.xlsx,frogs/ab5.jpg,0,0,400,l,0,3,3,2,0,7,7,4,,,['l'],0,[0.1670873603588916],2018_Jul_09_1129,59.9978496751,go-nogo,001,6,
logos/3.jpg,properties3.xlsx,frogs/ab54.jpg,0,0,400,l,0,3,3,2,0,8,8,53,,,['l'],0,[0.06701516829798493],2018_Jul_09_1129,59.9978496751,go-nogo,001,6,
logos/3.jpg,properties3.xlsx,frogs/ab31.jpg,0,0,400,l,0,3,3,2,0,9,9,30,,,['l'],0,[0.00035043585467064986],2018_Jul_09_1129,59.9978496751,go-nogo,001,6,
logos/3.jpg,properties3.xlsx,frogs/ab20.jpg,0,0,400,l,0,3,3,2,0,10,10,19,,,['l'],0,[0.0005609249228655244],2018_Jul_09_1129,59.9978496751,go-nogo,001,6,
logos/3.jpg,properties3.xlsx,frogs/ab33.jpg,0,0,400,l,0,3,3,2,0,11,11,32,,,['l'],0,[0.06710107059370785],2018_Jul_09_1129,59.9978496751,go-nogo,001,6,
logos/3.jpg,properties3.xlsx,frogs/ab29.jpg,0,0,400,l,0,3,3,2,0,12,12,28,,,['l'],0,[0.20035601096969913],2018_Jul_09_1129,59.9978496751,go-nogo,001,6,
logos/3.jpg,properties3.xlsx,frogs/ab47.jpg,0,0,400,l,0,3,3,2,0,13,13,46,,,['l'],0,[0.25040803590400174],2018_Jul_09_1129,59.9978496751,go-nogo,001,6,
logos/3.jpg,properties3.xlsx,frogs/ab68.jpg,0,0,400,l,0,3,3,2,0,14,14,66,,,['l'],0,[0.00020138683885306818],2018_Jul_09_1129,59.9978496751,go-nogo,001,6,
logos/3.jpg,properties3.xlsx,frogs/ab35.jpg,0,0,400,l,0,3,3,2,0,15,15,34,,,['l'],0,[0.06716535509258392],2018_Jul_09_1129,59.9978496751,go-nogo,001,6,
logos/3.jpg,properties3.xlsx,frogs/ab79.jpg,0,0,400,l,0,3,3,2,0,16,16,77,,,['l'],0,[0.083818453747881],2018_Jul_09_1129,59.9978496751,go-nogo,001,6,
logos/3.jpg,properties3.xlsx,frogs/ab38.jpg,0,0,400,l,0,3,3,2,0,17,17,37,,,['l'],0,[0.10044481460226962],2018_Jul_09_1129,59.9978496751,go-nogo,001,6,
logos/3.jpg,properties3.xlsx,frogs/ab60.jpg,0,0,400,l,0,3,3,2,0,18,18,58,,,['l'],0,[0.06709993281401694],2018_Jul_09_1129,59.9978496751,go-nogo,001,6,
logos/3.jpg,properties3.xlsx,frogs/ab4.jpg,0,0,400,l,0,3,3,2,0,19,19,3,,,['l'],0,[0.03387394890523865],2018_Jul_09_1129,59.9978496751,go-nogo,001,6,
logos/3.jpg,properties3.xlsx,logos/3.jpg,0,0,400,a,0,3,3,2,0,20,20,86,,,['a'],0,[0.0005762849359598476],2018_Jul_09_1129,59.9978496751,go-nogo,001,6,
logos/3.jpg,properties3.xlsx,logos/3.jpg,0,0,400,a,0,3,3,2,0,21,21,89,,,['a'],0,[0.13363097625369846],2018_Jul_09_1129,59.9978496751,go-nogo,001,6,
logos/3.jpg,properties3.xlsx,frogs/ab45.jpg,0,0,400,l,0,3,3,2,0,22,22,44,,,['l'],0,[0.1838144146331615],2018_Jul_09_1129,59.9978496751,go-nogo,001,6,
logos/3.jpg,properties3.xlsx,frogs/ab25.jpg,0,0,400,l,0,3,3,2,0,23,23,24,,,['l'],0,[0.050645376550164656],2018_Jul_09_1129,59.9978496751,go-nogo,001,6,
logos/3.jpg,properties3.xlsx,frogs/ab53.jpg,0,0,400,l,0,3,3,2,0,24,24,52,,,['l'],0,[0.017199232454004232],2018_Jul_09_1129,59.9978496751,go-nogo,001,6,
logos/3.jpg,properties3.xlsx,frogs/ab41.jpg,0,0,400,l,0,3,3,2,0,25,25,40,,,['l'],0,[0.10059670806458598],2018_Jul_09_1129,59.9978496751,go-nogo,001,6,
logos/3.jpg,properties3.xlsx,logos/3.jpg,0,0,400,a,0,3,3,2,0,26,26,88,,,['l'],0,[0.1672637160654631],2018_Jul_09_1129,59.9978496751,go-nogo,001,6,
logos/3.jpg,properties3.xlsx,frogs/ab49.jpg,0,0,400,l,0,3,3,2,0,27,27,48,,,['l'],0,[0.1672517693878035],2018_Jul_09_1129,59.9978496751,go-nogo,001,6,
logos/3.jpg,properties3.xlsx,frogs/ab39.jpg,0,0,400,l,0,3,3,2,0,28,28,38,,,['l'],0,[0.15040012834106165],2018_Jul_09_1129,59.9978496751,go-nogo,001,6,
logos/3.jpg,properties3.xlsx,frogs/ab36.jpg,0,0,400,l,0,3,3,2,0,29,29,35,,,['l'],0,[0.017009792292810744],2018_Jul_09_1129,59.9978496751,go-nogo,001,6,
logos/3.jpg,properties3.xlsx,logos/3.jpg,0,0,400,a,0,3,3,2,0,30,30,83,,,['l'],0,[0.10051194354764448],2018_Jul_09_1129,59.9978496751,go-nogo,001,6,
logos/3.jpg,properties3.xlsx,frogs/ab71.jpg,0,0,400,l,0,3,3,2,0,31,31,69,,,['l'],0,[0.03403551348765177],2018_Jul_09_1129,59.9978496751,go-nogo,001,6,
logos/3.jpg,properties3.xlsx,frogs/ab6.jpg,0,0,400,l,0,3,3,2,0,32,32,5,,,['l'],0,[0.050575403157381515],2018_Jul_09_1129,59.9978496751,go-nogo,001,6,
logos/3.jpg,properties3.xlsx,frogs/ab52.jpg,0,0,400,l,0,3,3,2,0,33,33,51,,,['l'],0,[0.050440576375876844],2018_Jul_09_1129,59.9978496751,go-nogo,001,6,
logos/3.jpg,properties3.xlsx,frogs/ab58.jpg,0,0,400,l,0,3,3,2,0,34,34,57,,,['l'],0,[0.08366656028465513],2018_Jul_09_1129,59.9978496751,go-nogo,001,6,
logos/3.jpg,properties3.xlsx,frogs/ab66.jpg,0,0,400,l,0,3,3,2,0,35,35,64,,,['l'],0,[0.1171252199465016],2018_Jul_09_1129,59.9978496751,go-nogo,001,6,
logos/3.jpg,properties3.xlsx,frogs/ab40.jpg,0,0,400,l,0,3,3,2,0,36,36,39,,,['l'],0,[0.06709481280904583],2018_Jul_09_1129,59.9978496751,go-nogo,001,6,
logos/3.jpg,properties3.xlsx,logos/3.jpg,0,0,400,a,0,3,3,2,0,37,37,80,,,['l'],0,[0.267085027912799],2018_Jul_09_1129,59.9978496751,go-nogo,001,6,
logos/3.jpg,properties3.xlsx,frogs/ab44.jpg,0,0,400,l,0,3,3,2,0,38,38,43,,,['l'],0,[0.06717331954314432],2018_Jul_09_1129,59.9978496751,go-nogo,001,6,
logos/3.jpg,properties3.xlsx,frogs/ab13.jpg,0,0,400,l,0,3,3,2,0,39,39,12,,,['l'],0,[0.08379968039753294],2018_Jul_09_1129,59.9978496751,go-nogo,001,6,
logos/3.jpg,properties3.xlsx,logos/3.jpg,0,0,400,a,0,3,3,2,0,40,40,81,,,['l'],0,[0.250371626983906],2018_Jul_09_1129,59.9978496751,go-nogo,001,6,
logos/3.jpg,properties3.xlsx,frogs/ab64.jpg,0,0,400,l,0,3,3,2,0,41,41,62,,,['l'],0,[0.08382698708828684],2018_Jul_09_1129,59.9978496751,go-nogo,001,6,
logos/3.jpg,properties3.xlsx,frogs/ab72.jpg,0,0,400,l,0,3,3,2,0,42,42,70,,,['l'],0,[0.11714114884944138],2018_Jul_09_1129,59.9978496751,go-nogo,001,6,
logos/3.jpg,properties3.xlsx,frogs/ab15.jpg,0,0,400,l,0,3,3,2,0,43,43,14,,,['l'],0,[0.15037907943406026],2018_Jul_09_1129,59.9978496751,go-nogo,001,6,
logos/3.jpg,properties3.xlsx,frogs/ab76.jpg,0,0,400,l,0,3,3,2,0,44,44,74,,,['l'],0,[0.15041605724400142],2018_Jul_09_1129,59.9978496751,go-nogo,001,6,
logos/3.jpg,properties3.xlsx,frogs/ab61.jpg,0,0,400,l,0,3,3,2,0,45,45,59,,,['l'],0,[0.16705550255392154],2018_Jul_09_1129,59.9978496751,go-nogo,001,6,
logos/3.jpg,properties3.xlsx,frogs/ab78.jpg,0,0,400,l,0,3,3,2,0,46,46,76,,,['l'],0,[0.15037111498259037],2018_Jul_09_1129,59.9978496751,go-nogo,001,6,
logos/3.jpg,properties3.xlsx,frogs/ab67.jpg,0,0,400,l,0,3,3,2,0,47,47,65,,,['l'],0,[0.000577991604586714],2018_Jul_09_1129,59.9978496751,go-nogo,001,6,
logos/3.jpg,properties3.xlsx,frogs/ab73.jpg,0,0,400,l,0,3,3,2,0,48,48,71,,,['l'],0,[0.10040385456704826],2018_Jul_09_1129,59.9978496751,go-nogo,001,6,
logos/3.jpg,properties3.xlsx,frogs/ab62.jpg,0,0,400,l,0,3,3,2,0,49,49,60,,,['l'],0,[0.16758570745059842],2018_Jul_09_1129,59.9978496751,go-nogo,001,6,
logos/3.jpg,properties3.xlsx,frogs/ab16.jpg,0,0,400,l,0,3,3,2,0,50,50,15,,,['l'],0,[0.017112192380409397],2018_Jul_09_1129,59.9978496751,go-nogo,001,6,
logos/3.jpg,properties3.xlsx,frogs/ab37.jpg,0,0,400,l,0,3,3,2,0,51,51,36,,,['l'],0,[0.11724582449460286],2018_Jul_09_1129,59.9978496751,go-nogo,001,6,
logos/3.jpg,properties3.xlsx,logos/3.jpg,0,0,400,a,0,3,3,2,0,52,52,87,,,['l'],0,[0.2837898955012861],2018_Jul_09_1129,59.9978496751,go-nogo,001,6,
logos/3.jpg,properties3.xlsx,frogs/ab9.jpg,0,0,400,l,0,3,3,2,0,53,53,8,,,['l'],0,[0.08375132480068714],2018_Jul_09_1129,59.9978496751,go-nogo,001,6,
logos/3.jpg,properties3.xlsx,frogs/ab27.jpg,0,0,400,l,0,3,3,2,0,54,54,26,,,['l'],0,[0.10062856586955604],2018_Jul_09_1129,59.9978496751,go-nogo,001,6,
logos/3.jpg,properties3.xlsx,logos/3.jpg,0,0,400,a,0,3,3,2,0,55,55,84,,,['l'],0,[0.1837478545758131],2018_Jul_09_1129,59.9978496751,go-nogo,001,6,
logos/3.jpg,properties3.xlsx,frogs/ab17.jpg,0,0,400,l,0,3,3,2,0,56,56,16,,,['l'],0,[0.11699778872753086],2018_Jul_09_1129,59.9978496751,go-nogo,001,6,
logos/3.jpg,properties3.xlsx,frogs/ab10.jpg,0,0,400,l,0,3,3,2,0,57,57,9,,,['l'],0,[0.11726289117541455],2018_Jul_09_1129,59.9978496751,go-nogo,001,6,
logos/3.jpg,properties3.xlsx,frogs/ab19.jpg,0,0,400,l,0,3,3,2,0,58,58,18,,,['l'],0,[0.1170273709740286],2018_Jul_09_1129,59.9978496751,go-nogo,001,6,
logos/3.jpg,properties3.xlsx,frogs/ab75.jpg,0,0,400,l,0,3,3,2,0,59,59,73,,,['l'],0,[0.1671396981819271],2018_Jul_09_1129,59.9978496751,go-nogo,001,6,
logos/3.jpg,properties3.xlsx,frogs/ab48.jpg,0,0,400,l,0,3,3,2,0,60,60,47,,,['l'],0,[0.11729190453388583],2018_Jul_09_1129,59.9978496751,go-nogo,001,6,
logos/3.jpg,properties3.xlsx,frogs/ab69.jpg,0,0,400,l,0,3,3,2,0,61,61,67,,,['l'],0,[0.1338107452966142],2018_Jul_09_1129,59.9978496751,go-nogo,001,6,
logos/3.jpg,properties3.xlsx,frogs/ab55.jpg,0,0,400,l,0,3,3,2,0,62,62,54,,,['l'],0,[0.13386194533995877],2018_Jul_09_1129,59.9978496751,go-nogo,001,6,
logos/3.jpg,properties3.xlsx,frogs/ab2.jpg,0,0,400,l,0,3,3,2,0,63,63,1,,,['l'],0,[0.18373249456362828],2018_Jul_09_1129,59.9978496751,go-nogo,001,6,
logos/3.jpg,properties3.xlsx,logos/3.jpg,0,0,400,a,0,3,3,2,0,64,64,82,,,['l'],0,[0.3167467947350815],2018_Jul_09_1129,59.9978496751,go-nogo,001,6,
logos/3.jpg,properties3.xlsx,frogs/ab28.jpg,0,0,400,l,0,3,3,2,0,65,65,27,,,['l'],0,[0.10051194354764448],2018_Jul_09_1129,59.9978496751,go-nogo,001,6,
logos/3.jpg,properties3.xlsx,frogs/ab65.jpg,0,0,400,l,0,3,3,2,0,66,66,63,,,['l'],0,[0.15046953284490883],2018_Jul_09_1129,59.9978496751,go-nogo,001,6,
logos/3.jpg,properties3.xlsx,frogs/ab34.jpg,0,0,400,l,0,3,3,2,0,67,67,33,,,['l'],0,[0.1669752891521057],2018_Jul_09_1129,59.9978496751,go-nogo,001,6,
logos/3.jpg,properties3.xlsx,frogs/ab11.jpg,0,0,400,l,0,3,3,2,0,68,68,10,,,['l'],0,[0.13409177664743765],2018_Jul_09_1129,59.9978496751,go-nogo,001,6,
logos/3.jpg,properties3.xlsx,frogs/ab42.jpg,0,0,400,l,0,3,3,2,0,69,69,41,,,['l'],0,[0.10033615673091845],2018_Jul_09_1129,59.9978496751,go-nogo,001,6,
logos/3.jpg,properties3.xlsx,frogs/ab63.jpg,0,0,400,l,0,3,3,2,0,70,70,61,,,['l'],0,[0.15018907038302132],2018_Jul_09_1129,59.9978496751,go-nogo,001,6,
logos/3.jpg,properties3.xlsx,frogs/ab26.jpg,0,0,400,l,0,3,3,2,0,71,71,25,,,['l'],0,[0.13382155419367336],2018_Jul_09_1129,59.9978496751,go-nogo,001,6,
logos/3.jpg,properties3.xlsx,frogs/ab30.jpg,0,0,400,l,0,3,3,2,0,72,72,29,,,['l'],0,[0.15037623498756147],2018_Jul_09_1129,59.9978496751,go-nogo,001,6,
logos/3.jpg,properties3.xlsx,frogs/ab12.jpg,0,0,400,l,0,3,3,2,0,73,73,11,,,['l'],0,[0.16707768923879485],2018_Jul_09_1129,59.9978496751,go-nogo,001,6,
logos/3.jpg,properties3.xlsx,frogs/ab56.jpg,0,0,400,l,0,3,3,2,0,74,74,55,,,['l'],0,[0.13376466525733122],2018_Jul_09_1129,59.9978496751,go-nogo,001,6,
logos/3.jpg,properties3.xlsx,frogs/ab7.jpg,0,0,400,l,0,3,3,2,0,75,75,6,,,['l'],0,[0.21696416736540414],2018_Jul_09_1129,59.9978496751,go-nogo,001,6,
logos/3.jpg,properties3.xlsx,frogs/ab70.jpg,0,0,400,l,0,3,3,2,0,76,76,68,,,['l'],0,[0.05056800759575708],2018_Jul_09_1129,59.9978496751,go-nogo,001,6,
logos/3.jpg,properties3.xlsx,frogs/ab50.jpg,0,0,400,l,0,3,3,2,0,77,77,49,,,['l'],0,[0.20028774424554285],2018_Jul_09_1129,59.9978496751,go-nogo,001,6,
logos/3.jpg,properties3.xlsx,frogs/ab23.jpg,0,0,400,l,0,3,3,2,0,78,78,22,,,['l'],0,[0.10043059236704721],2018_Jul_09_1129,59.9978496751,go-nogo,001,6,
logos/3.jpg,properties3.xlsx,frogs/ab24.jpg,0,0,400,l,0,3,3,2,0,79,79,23,,,['l'],0,[0.11704102431940555],2018_Jul_09_1129,59.9978496751,go-nogo,001,6,
logos/3.jpg,properties3.xlsx,frogs/ab74.jpg,0,0,400,l,0,3,3,2,0,80,80,72,,,['l'],0,[0.0839515738616683],2018_Jul_09_1129,59.9978496751,go-nogo,001,6,
logos/3.jpg,properties3.xlsx,frogs/ab46.jpg,0,0,400,l,0,3,3,2,0,81,81,45,,,['l'],0,[0.15038135499253258],2018_Jul_09_1129,59.9978496751,go-nogo,001,6,
logos/3.jpg,properties3.xlsx,frogs/ab81.jpg,0,0,400,l,0,3,3,2,0,82,82,79,,,['l'],0,[0.1505611240345388],2018_Jul_09_1129,59.9978496751,go-nogo,001,6,
logos/3.jpg,properties3.xlsx,frogs/ab80.jpg,0,0,400,l,0,3,3,2,0,83,83,78,,,['l'],0,[0.15046782617628196],2018_Jul_09_1129,59.9978496751,go-nogo,001,6,
logos/3.jpg,properties3.xlsx,frogs/ab77.jpg,0,0,400,l,0,3,3,2,0,84,84,75,,,['l'],0,[0.2004151754654231],2018_Jul_09_1129,59.9978496751,go-nogo,001,6,
logos/3.jpg,properties3.xlsx,logos/3.jpg,0,0,400,a,0,3,3,2,0,85,85,85,,,['l'],0,[0.233770297261799],2018_Jul_09_1129,59.9978496751,go-nogo,001,6,
logos/3.jpg,properties3.xlsx,frogs/ab3.jpg,0,0,400,l,0,3,3,2,0,86,86,2,,,['l'],0,[0.09995727640853147],2018_Jul_09_1129,59.9978496751,go-nogo,001,6,
logos/3.jpg,properties3.xlsx,frogs/ab51.jpg,0,0,400,l,0,3,3,2,0,87,87,50,,,['l'],0,[0.2337321816739859],2018_Jul_09_1129,59.9978496751,go-nogo,001,6,
logos/3.jpg,properties3.xlsx,frogs/ab1.jpg,0,0,400,l,0,3,3,2,0,88,88,0,,,['l'],0,[0.000577422715650755],2018_Jul_09_1129,59.9978496751,go-nogo,001,6,
logos/3.jpg,properties3.xlsx,frogs/ab43.jpg,0,0,400,l,0,3,3,2,0,89,89,42,,,['l'],0,[0.23354615484822716],2018_Jul_09_1129,59.9978496751,go-nogo,001,6,
logos/3.jpg,properties3.xlsx,,,,,,0,3,3,2,,,,,,,,,,2018_Jul_09_1129,59.9978496751,go-nogo,001,6,
