pix,source,image1,x,y,size,answer,trials_2.thisRepN,trials_2.thisTrialN,trials_2.thisN,trials_2.thisIndex,trials.thisRepN,trials.thisTrialN,trials.thisN,trials.thisIndex,key_resp_3.keys,key_resp_3.rt,key_resp_2.keys,key_resp_2.corr,key_resp_2.rt,date,frameRate,expName,session,participant,
logos/4.jpg,properties4.xlsx,frogs/ab48.jpg,0,0,400,l,0,0,0,3,0,0,0,47,space,9.22313149707,['a'],0,[7.063038062681244],2018_Jul_09_1122,60.1000064962,go-nogo,001,7,
logos/4.jpg,properties4.xlsx,frogs/ab76.jpg,0,0,400,l,0,0,0,3,0,1,1,74,,,['l'],0,[0.500195982389414],2018_Jul_09_1122,60.1000064962,go-nogo,001,7,
logos/4.jpg,properties4.xlsx,frogs/ab80.jpg,0,0,400,l,0,0,0,3,0,2,2,78,,,['l'],0,[3.1986208983789766],2018_Jul_09_1122,60.1000064962,go-nogo,001,7,
logos/4.jpg,properties4.xlsx,logos/4.jpg,0,0,400,a,0,0,0,3,0,3,3,82,,,['a'],0,[0.11694488201510467],2018_Jul_09_1122,60.1000064962,go-nogo,001,7,
logos/4.jpg,properties4.xlsx,frogs/ab56.jpg,0,0,400,l,0,0,0,3,0,4,4,55,,,['l'],0,[0.26708730346990706],2018_Jul_09_1122,60.1000064962,go-nogo,001,7,
logos/4.jpg,properties4.xlsx,frogs/ab25.jpg,0,0,400,l,0,0,0,3,0,5,5,24,,,['l'],0,[0.2665024851930866],2018_Jul_09_1122,60.1000064962,go-nogo,001,7,
logos/4.jpg,properties4.xlsx,frogs/ab58.jpg,0,0,400,l,0,0,0,3,0,6,6,57,,,['l'],0,[0.3169703682592626],2018_Jul_09_1122,60.1000064962,go-nogo,001,7,
logos/4.jpg,properties4.xlsx,frogs/ab39.jpg,0,0,400,l,0,0,0,3,0,7,7,38,,,['l'],0,[0.3837631008113931],2018_Jul_09_1122,60.1000064962,go-nogo,001,7,
logos/4.jpg,properties4.xlsx,frogs/ab67.jpg,0,0,400,l,0,0,0,3,0,8,8,65,,,['l'],0,[3.065140677809268],2018_Jul_09_1122,60.1000064962,go-nogo,001,7,
logos/4.jpg,properties4.xlsx,frogs/ab5.jpg,0,0,400,l,0,0,0,3,0,9,9,4,,,['l'],0,[1.166651022208498],2018_Jul_09_1122,60.1000064962,go-nogo,001,7,
logos/4.jpg,properties4.xlsx,frogs/ab27.jpg,0,0,400,l,0,0,0,3,0,10,10,26,,,['l'],0,[1.0998463429800722],2018_Jul_09_1122,60.1000064962,go-nogo,001,7,
logos/4.jpg,properties4.xlsx,frogs/ab31.jpg,0,0,400,l,0,0,0,3,0,11,11,30,,,['l'],0,[1.6828913916228885],2018_Jul_09_1122,60.1000064962,go-nogo,001,7,
logos/4.jpg,properties4.xlsx,frogs/ab12.jpg,0,0,400,l,0,0,0,3,0,12,12,11,,,['l'],0,[0.516517418539479],2018_Jul_09_1122,60.1000064962,go-nogo,001,7,
logos/4.jpg,properties4.xlsx,frogs/ab7.jpg,0,0,400,l,0,0,0,3,0,13,13,6,,,['l'],0,[0.8001468872362238],2018_Jul_09_1122,60.1000064962,go-nogo,001,7,
logos/4.jpg,properties4.xlsx,logos/4.jpg,0,0,400,a,0,0,0,3,0,14,14,85,,,['a'],0,[0.08373767145576494],2018_Jul_09_1122,60.1000064962,go-nogo,001,7,
logos/4.jpg,properties4.xlsx,frogs/ab3.jpg,0,0,400,l,0,0,0,3,0,15,15,2,,,['l'],0,[0.10057338360047652],2018_Jul_09_1122,60.1000064962,go-nogo,001,7,
logos/4.jpg,properties4.xlsx,logos/4.jpg,0,0,400,a,0,0,0,3,0,16,16,83,,,['a'],0,[0.10040101011963998],2018_Jul_09_1122,60.1000064962,go-nogo,001,7,
logos/4.jpg,properties4.xlsx,frogs/ab51.jpg,0,0,400,l,0,0,0,3,0,17,17,50,,,['l'],0,[0.1334711183399122],2018_Jul_09_1122,60.1000064962,go-nogo,001,7,
logos/4.jpg,properties4.xlsx,frogs/ab37.jpg,0,0,400,l,0,0,0,3,0,18,18,36,,,['l'],0,[0.6168598330536952],2018_Jul_09_1122,60.1000064962,go-nogo,001,7,
logos/4.jpg,properties4.xlsx,frogs/ab20.jpg,0,0,400,l,0,0,0,3,0,19,19,19,,,['l'],0,[0.26708161457645474],2018_Jul_09_1122,60.1000064962,go-nogo,001,7,
logos/4.jpg,properties4.xlsx,frogs/ab41.jpg,0,0,400,l,0,0,0,3,0,20,20,40,,,['l'],0,[0.6167858774351771],2018_Jul_09_1122,60.1000064962,go-nogo,001,7,
logos/4.jpg,properties4.xlsx,frogs/ab19.jpg,0,0,400,l,0,0,0,3,0,21,21,18,,,['l'],0,[0.2337310438952045],2018_Jul_09_1122,60.1000064962,go-nogo,001,7,
logos/4.jpg,properties4.xlsx,frogs/ab55.jpg,0,0,400,l,0,0,0,3,0,22,22,54,,,['l'],0,[0.35038351677167157],2018_Jul_09_1122,60.1000064962,go-nogo,001,7,
logos/4.jpg,properties4.xlsx,frogs/ab60.jpg,0,0,400,l,0,0,0,3,0,23,23,58,,,['l'],0,[0.31682643924750664],2018_Jul_09_1122,60.1000064962,go-nogo,001,7,
logos/4.jpg,properties4.xlsx,frogs/ab63.jpg,0,0,400,l,0,0,0,3,0,24,24,61,,,['l'],0,[0.28374665990804715],2018_Jul_09_1122,60.1000064962,go-nogo,001,7,
logos/4.jpg,properties4.xlsx,frogs/ab77.jpg,0,0,400,l,0,0,0,3,0,25,25,75,,,['l'],0,[0.3337463470188595],2018_Jul_09_1122,60.1000064962,go-nogo,001,7,
logos/4.jpg,properties4.xlsx,frogs/ab30.jpg,0,0,400,l,0,0,0,3,0,26,26,29,,,['l'],0,[0.3337042492053115],2018_Jul_09_1122,60.1000064962,go-nogo,001,7,
logos/4.jpg,properties4.xlsx,frogs/ab8.jpg,0,0,400,l,0,0,0,3,0,27,27,7,,,['l'],0,[0.3170813016872671],2018_Jul_09_1122,60.1000064962,go-nogo,001,7,
logos/4.jpg,properties4.xlsx,frogs/ab35.jpg,0,0,400,l,0,0,0,3,0,28,28,34,,,['l'],0,[0.26707535679315697],2018_Jul_09_1122,60.1000064962,go-nogo,001,7,
logos/4.jpg,properties4.xlsx,frogs/ab49.jpg,0,0,400,l,0,0,0,3,0,29,29,48,,,['l'],0,[0.3002131628486495],2018_Jul_09_1122,60.1000064962,go-nogo,001,7,
logos/4.jpg,properties4.xlsx,logos/4.jpg,0,0,400,a,0,0,0,3,0,30,30,87,,,['l'],0,[0.3004725764030809],2018_Jul_09_1122,60.1000064962,go-nogo,001,7,
logos/4.jpg,properties4.xlsx,frogs/ab57.jpg,0,0,400,l,0,0,0,3,0,31,31,56,,,['l'],0,[0.10047325907044069],2018_Jul_09_1122,60.1000064962,go-nogo,001,7,
logos/4.jpg,properties4.xlsx,frogs/ab4.jpg,0,0,400,l,0,0,0,3,0,32,32,3,,,['l'],0,[0.48372834167048495],2018_Jul_09_1122,60.1000064962,go-nogo,001,7,
logos/4.jpg,properties4.xlsx,logos/4.jpg,0,0,400,a,0,0,0,3,0,33,33,81,,,['l'],0,[0.28379444661550224],2018_Jul_09_1122,60.1000064962,go-nogo,001,7,
logos/4.jpg,properties4.xlsx,frogs/ab22.jpg,0,0,400,l,0,0,0,3,0,34,34,21,,,['l'],0,[0.11722932670227237],2018_Jul_09_1122,60.1000064962,go-nogo,001,7,
logos/4.jpg,properties4.xlsx,frogs/ab23.jpg,0,0,400,l,0,0,0,3,0,35,35,22,,,['l'],0,[0.1671226315002059],2018_Jul_09_1122,60.1000064962,go-nogo,001,7,
logos/4.jpg,properties4.xlsx,frogs/ab10.jpg,0,0,400,l,0,0,0,3,0,36,36,9,,,['l'],0,[0.35003080535989284],2018_Jul_09_1122,60.1000064962,go-nogo,001,7,
logos/4.jpg,properties4.xlsx,frogs/ab78.jpg,0,0,400,l,0,0,0,3,0,37,37,76,,,['l'],0,[0.2002206152992585],2018_Jul_09_1122,60.1000064962,go-nogo,001,7,
logos/4.jpg,properties4.xlsx,frogs/ab53.jpg,0,0,400,l,0,0,0,3,0,38,38,52,,,['l'],0,[0.500247751322604],2018_Jul_09_1122,60.1000064962,go-nogo,001,7,
logos/4.jpg,properties4.xlsx,frogs/ab72.jpg,0,0,400,l,0,0,0,3,0,39,39,70,,,['l'],0,[0.18382863686747442],2018_Jul_09_1122,60.1000064962,go-nogo,001,7,
logos/4.jpg,properties4.xlsx,frogs/ab6.jpg,0,0,400,l,0,0,0,3,0,40,40,5,,,['a'],0,[0.23373502612093944],2018_Jul_09_1122,60.1000064962,go-nogo,001,7,
logos/4.jpg,properties4.xlsx,frogs/ab9.jpg,0,0,400,l,0,0,0,3,0,41,41,8,,,['l'],0,[0.5669824571582467],2018_Jul_09_1122,60.1000064962,go-nogo,001,7,
logos/4.jpg,properties4.xlsx,frogs/ab36.jpg,0,0,400,l,0,0,0,3,0,42,42,35,,,['l'],0,[0.18372737455865717],2018_Jul_09_1122,60.1000064962,go-nogo,001,7,
logos/4.jpg,properties4.xlsx,frogs/ab69.jpg,0,0,400,l,0,0,0,3,0,43,43,67,,,['l'],0,[0.3337685337046423],2018_Jul_09_1122,60.1000064962,go-nogo,001,7,
logos/4.jpg,properties4.xlsx,frogs/ab45.jpg,0,0,400,l,0,0,0,3,0,44,44,44,,,['a'],0,[0.03374936213276669],2018_Jul_09_1122,60.1000064962,go-nogo,001,7,
logos/4.jpg,properties4.xlsx,frogs/ab28.jpg,0,0,400,l,0,0,0,3,0,45,45,27,,,['l'],0,[0.0339626956479151],2018_Jul_09_1122,60.1000064962,go-nogo,001,7,
logos/4.jpg,properties4.xlsx,frogs/ab50.jpg,0,0,400,l,0,0,0,3,0,46,46,49,,,['l'],0,[0.03388134446777258],2018_Jul_09_1122,60.1000064962,go-nogo,001,7,
logos/4.jpg,properties4.xlsx,frogs/ab65.jpg,0,0,400,l,0,0,0,3,0,47,47,63,,,['l'],0,[0.01725953472805486],2018_Jul_09_1122,60.1000064962,go-nogo,001,7,
logos/4.jpg,properties4.xlsx,logos/4.jpg,0,0,400,a,0,0,0,3,0,48,48,88,,,['a'],0,[0.06665619910245368],2018_Jul_09_1122,60.1000064962,go-nogo,001,7,
logos/4.jpg,properties4.xlsx,frogs/ab17.jpg,0,0,400,l,0,0,0,3,0,49,49,16,,,['l'],0,[0.33380835596108227],2018_Jul_09_1122,60.1000064962,go-nogo,001,7,
logos/4.jpg,properties4.xlsx,frogs/ab61.jpg,0,0,400,l,0,0,0,3,0,50,50,59,,,['l'],0,[0.10034127673588955],2018_Jul_09_1122,60.1000064962,go-nogo,001,7,
logos/4.jpg,properties4.xlsx,frogs/ab64.jpg,0,0,400,l,0,0,0,3,0,51,51,62,,,['l'],0,[0.30039862078501756],2018_Jul_09_1122,60.1000064962,go-nogo,001,7,
logos/4.jpg,properties4.xlsx,frogs/ab2.jpg,0,0,400,l,0,0,0,3,0,52,52,1,,,['l'],0,[0.283667015395622],2018_Jul_09_1122,60.1000064962,go-nogo,001,7,
logos/4.jpg,properties4.xlsx,frogs/ab24.jpg,0,0,400,l,0,0,0,3,0,53,53,23,,,['l'],0,[0.2670201745236227],2018_Jul_09_1122,60.1000064962,go-nogo,001,7,
logos/4.jpg,properties4.xlsx,frogs/ab66.jpg,0,0,400,l,0,0,0,3,0,54,54,64,,,['l'],0,[0.3501849743802268],2018_Jul_09_1122,60.1000064962,go-nogo,001,7,
logos/4.jpg,properties4.xlsx,frogs/ab46.jpg,0,0,400,l,0,0,0,3,0,55,55,45,,,['l'],0,[2.498269154078571],2018_Jul_09_1122,60.1000064962,go-nogo,001,7,
logos/4.jpg,properties4.xlsx,frogs/ab13.jpg,0,0,400,l,0,0,0,3,0,56,56,12,,,['l'],0,[0.333789013722253],2018_Jul_09_1122,60.1000064962,go-nogo,001,7,
logos/4.jpg,properties4.xlsx,frogs/ab81.jpg,0,0,400,l,0,0,0,3,0,57,57,79,,,['l'],0,[0.3004617675051122],2018_Jul_09_1122,60.1000064962,go-nogo,001,7,
logos/4.jpg,properties4.xlsx,frogs/ab42.jpg,0,0,400,l,0,0,0,3,0,58,58,41,,,['l'],0,[0.45015419746459884],2018_Jul_09_1122,60.1000064962,go-nogo,001,7,
logos/4.jpg,properties4.xlsx,frogs/ab62.jpg,0,0,400,l,0,0,0,3,0,59,59,60,,,['l'],0,[0.43369850342287464],2018_Jul_09_1122,60.1000064962,go-nogo,001,7,
logos/4.jpg,properties4.xlsx,frogs/ab71.jpg,0,0,400,l,0,0,0,3,0,60,60,69,,,['l'],0,[0.7500140800120789],2018_Jul_09_1122,60.1000064962,go-nogo,001,7,
logos/4.jpg,properties4.xlsx,frogs/ab75.jpg,0,0,400,l,0,0,0,3,0,61,61,73,,,['l'],0,[0.6671462404092381],2018_Jul_09_1122,60.1000064962,go-nogo,001,7,
logos/4.jpg,properties4.xlsx,frogs/ab79.jpg,0,0,400,l,0,0,0,3,0,62,62,77,,,['l'],0,[0.7835472641827437],2018_Jul_09_1122,60.1000064962,go-nogo,001,7,
logos/4.jpg,properties4.xlsx,frogs/ab68.jpg,0,0,400,l,0,0,0,3,0,63,63,66,,,['l'],0,[0.6836815789638422],2018_Jul_09_1122,60.1000064962,go-nogo,001,7,
logos/4.jpg,properties4.xlsx,frogs/ab1.jpg,0,0,400,l,0,0,0,3,0,64,64,0,,,['l'],0,[0.4502952820294013],2018_Jul_09_1122,60.1000064962,go-nogo,001,7,
logos/4.jpg,properties4.xlsx,frogs/ab52.jpg,0,0,400,l,0,0,0,3,0,65,65,51,,,['l'],0,[0.5835792357652281],2018_Jul_09_1122,60.1000064962,go-nogo,001,7,
logos/4.jpg,properties4.xlsx,frogs/ab21.jpg,0,0,400,l,0,0,0,3,0,66,66,20,,,['l'],0,[0.3837699274836268],2018_Jul_09_1122,60.1000064962,go-nogo,001,7,
logos/4.jpg,properties4.xlsx,frogs/ab34.jpg,0,0,400,l,0,0,0,3,0,67,67,33,,,['l'],0,[0.45034761985243676],2018_Jul_09_1122,60.1000064962,go-nogo,001,7,
logos/4.jpg,properties4.xlsx,frogs/ab32.jpg,0,0,400,l,0,0,0,3,0,68,68,31,,,['l'],0,[0.2504433070448613],2018_Jul_09_1122,60.1000064962,go-nogo,001,7,
logos/4.jpg,properties4.xlsx,frogs/ab18.jpg,0,0,400,l,0,0,0,3,0,69,69,17,,,['l'],0,[0.3168736570651163],2018_Jul_09_1122,60.1000064962,go-nogo,001,7,
logos/4.jpg,properties4.xlsx,logos/4.jpg,0,0,400,a,0,0,0,3,0,70,70,89,,,['a'],0,[0.03392571783888343],2018_Jul_09_1122,60.1000064962,go-nogo,001,7,
logos/4.jpg,properties4.xlsx,frogs/ab26.jpg,0,0,400,l,0,0,0,3,0,71,71,25,,,['l'],0,[0.03390523782127275],2018_Jul_09_1122,60.1000064962,go-nogo,001,7,
logos/4.jpg,properties4.xlsx,frogs/ab14.jpg,0,0,400,l,0,0,0,3,0,72,72,13,,,['l'],0,[0.2836135397947146],2018_Jul_09_1122,60.1000064962,go-nogo,001,7,
logos/4.jpg,properties4.xlsx,frogs/ab15.jpg,0,0,400,l,0,0,0,3,0,73,73,14,,,['l'],0,[0.2837785177130172],2018_Jul_09_1122,60.1000064962,go-nogo,001,7,
logos/4.jpg,properties4.xlsx,frogs/ab11.jpg,0,0,400,l,0,0,0,3,0,74,74,10,,,['l'],0,[0.28380354884575354],2018_Jul_09_1122,60.1000064962,go-nogo,001,7,
logos/4.jpg,properties4.xlsx,logos/4.jpg,0,0,400,a,0,0,0,3,0,75,75,80,,,['l'],0,[0.4502702508971197],2018_Jul_09_1122,60.1000064962,go-nogo,001,7,
logos/4.jpg,properties4.xlsx,frogs/ab29.jpg,0,0,400,l,0,0,0,3,0,76,76,28,,,['l'],0,[0.3503863612186251],2018_Jul_09_1122,60.1000064962,go-nogo,001,7,
logos/4.jpg,properties4.xlsx,frogs/ab70.jpg,0,0,400,l,0,0,0,3,0,77,77,68,,,['l'],0,[1.3329863108151585],2018_Jul_09_1122,60.1000064962,go-nogo,001,7,
logos/4.jpg,properties4.xlsx,frogs/ab47.jpg,0,0,400,l,0,0,0,3,0,78,78,46,,,['l'],0,[0.150591275170882],2018_Jul_09_1122,60.1000064962,go-nogo,001,7,
logos/4.jpg,properties4.xlsx,logos/4.jpg,0,0,400,a,0,0,0,3,0,79,79,86,,,['a'],0,[0.03388874002939701],2018_Jul_09_1122,60.1000064962,go-nogo,001,7,
logos/4.jpg,properties4.xlsx,frogs/ab73.jpg,0,0,400,l,0,0,0,3,0,80,80,71,,,['l'],0,[0.38393604318071084],2018_Jul_09_1122,60.1000064962,go-nogo,001,7,
logos/4.jpg,properties4.xlsx,frogs/ab40.jpg,0,0,400,l,0,0,0,3,0,81,81,39,,,['l'],0,[0.1003993034519226],2018_Jul_09_1122,60.1000064962,go-nogo,001,7,
logos/4.jpg,properties4.xlsx,frogs/ab54.jpg,0,0,400,l,0,0,0,3,0,82,82,53,,,['l'],0,[0.15050594176500454],2018_Jul_09_1122,60.1000064962,go-nogo,001,7,
logos/4.jpg,properties4.xlsx,frogs/ab33.jpg,0,0,400,l,0,0,0,3,0,83,83,32,,,['l'],0,[0.28360785090080753],2018_Jul_09_1122,60.1000064962,go-nogo,001,7,
logos/4.jpg,properties4.xlsx,frogs/ab38.jpg,0,0,400,l,0,0,0,3,0,84,84,37,,,['l'],0,[0.117227620034555],2018_Jul_09_1122,60.1000064962,go-nogo,001,7,
logos/4.jpg,properties4.xlsx,frogs/ab16.jpg,0,0,400,l,0,0,0,3,0,85,85,15,,,['l'],0,[0.750133546780944],2018_Jul_09_1122,60.1000064962,go-nogo,001,7,
logos/4.jpg,properties4.xlsx,frogs/ab43.jpg,0,0,400,l,0,0,0,3,0,86,86,42,,,['l'],0,[0.30031499404685746],2018_Jul_09_1122,60.1000064962,go-nogo,001,7,
logos/4.jpg,properties4.xlsx,frogs/ab74.jpg,0,0,400,l,0,0,0,3,0,87,87,72,,,['l'],0,[0.31701531051976417],2018_Jul_09_1122,60.1000064962,go-nogo,001,7,
logos/4.jpg,properties4.xlsx,logos/4.jpg,0,0,400,a,0,0,0,3,0,88,88,84,,,['l'],0,[0.3504227701387208],2018_Jul_09_1122,60.1000064962,go-nogo,001,7,
logos/4.jpg,properties4.xlsx,frogs/ab44.jpg,0,0,400,l,0,0,0,3,0,89,89,43,,,['l'],0,[0.16716757376070746],2018_Jul_09_1122,60.1000064962,go-nogo,001,7,
logos/4.jpg,properties4.xlsx,,,,,,0,0,0,3,,,,,,,,,,2018_Jul_09_1122,60.1000064962,go-nogo,001,7,
logos/2.jpg,properties2.xlsx,frogs/ab81.jpg,0,0,400,l,0,1,1,1,0,0,0,79,space,2.44637677202,['l'],0,[0.8666961351359532],2018_Jul_09_1122,60.1000064962,go-nogo,001,7,
logos/2.jpg,properties2.xlsx,frogs/ab14.jpg,0,0,400,l,0,1,1,1,0,1,1,13,,,['l'],0,[0.7501329778910986],2018_Jul_09_1122,60.1000064962,go-nogo,001,7,
logos/2.jpg,properties2.xlsx,frogs/ab52.jpg,0,0,400,l,0,1,1,1,0,2,2,51,,,['l'],0,[1.4661781044719646],2018_Jul_09_1122,60.1000064962,go-nogo,001,7,
logos/2.jpg,properties2.xlsx,frogs/ab58.jpg,0,0,400,l,0,1,1,1,0,3,3,57,,,['a'],0,[0.0005683204849447065],2018_Jul_09_1122,60.1000064962,go-nogo,001,7,
logos/2.jpg,properties2.xlsx,frogs/ab73.jpg,0,0,400,l,0,1,1,1,0,4,4,71,,,['l'],0,[0.583439288979207],2018_Jul_09_1122,60.1000064962,go-nogo,001,7,
logos/2.jpg,properties2.xlsx,logos/2.jpg,0,0,400,a,0,1,1,1,0,5,5,85,,,['a'],0,[0.08376099592032915],2018_Jul_09_1122,60.1000064962,go-nogo,001,7,
logos/2.jpg,properties2.xlsx,frogs/ab3.jpg,0,0,400,l,0,1,1,1,0,6,6,2,,,['l'],0,[0.0005740093788517697],2018_Jul_09_1122,60.1000064962,go-nogo,001,7,
logos/2.jpg,properties2.xlsx,logos/2.jpg,0,0,400,a,0,1,1,1,0,7,7,82,,,['l'],0,[0.4170977425901583],2018_Jul_09_1122,60.1000064962,go-nogo,001,7,
logos/2.jpg,properties2.xlsx,frogs/ab64.jpg,0,0,400,l,0,1,1,1,0,8,8,62,,,['l'],0,[0.1004652946189708],2018_Jul_09_1122,60.1000064962,go-nogo,001,7,
logos/2.jpg,properties2.xlsx,frogs/ab13.jpg,0,0,400,l,0,1,1,1,0,9,9,12,,,['l'],0,[0.5500477582627354],2018_Jul_09_1122,60.1000064962,go-nogo,001,7,
logos/2.jpg,properties2.xlsx,frogs/ab9.jpg,0,0,400,l,0,1,1,1,0,10,10,8,,,['l'],0,[0.2999691093068577],2018_Jul_09_1122,60.1000064962,go-nogo,001,7,
logos/2.jpg,properties2.xlsx,frogs/ab57.jpg,0,0,400,l,0,1,1,1,0,11,11,56,,,['l'],0,[0.13364918071374632],2018_Jul_09_1122,60.1000064962,go-nogo,001,7,
logos/2.jpg,properties2.xlsx,frogs/ab48.jpg,0,0,400,l,0,1,1,1,0,12,12,47,,,['l'],0,[0.06721314179958426],2018_Jul_09_1122,60.1000064962,go-nogo,001,7,
logos/2.jpg,properties2.xlsx,frogs/ab67.jpg,0,0,400,l,0,1,1,1,0,13,13,65,,,['l'],0,[0.2336553816085143],2018_Jul_09_1122,60.1000064962,go-nogo,001,7,
logos/2.jpg,properties2.xlsx,frogs/ab31.jpg,0,0,400,l,0,1,1,1,0,14,14,30,,,['l'],0,[0.16742584953681217],2018_Jul_09_1122,60.1000064962,go-nogo,001,7,
logos/2.jpg,properties2.xlsx,frogs/ab54.jpg,0,0,400,l,0,1,1,1,0,15,15,53,,,['l'],0,[0.1504103683505491],2018_Jul_09_1122,60.1000064962,go-nogo,001,7,
logos/2.jpg,properties2.xlsx,frogs/ab47.jpg,0,0,400,l,0,1,1,1,0,16,16,46,,,['l'],0,[0.08358407132527645],2018_Jul_09_1122,60.1000064962,go-nogo,001,7,
logos/2.jpg,properties2.xlsx,frogs/ab65.jpg,0,0,400,l,0,1,1,1,0,17,17,63,,,['l'],0,[0.10036573897878043],2018_Jul_09_1122,60.1000064962,go-nogo,001,7,
logos/2.jpg,properties2.xlsx,frogs/ab23.jpg,0,0,400,l,0,1,1,1,0,18,18,22,,,['l'],0,[0.10041409457562622],2018_Jul_09_1122,60.1000064962,go-nogo,001,7,
logos/2.jpg,properties2.xlsx,frogs/ab11.jpg,0,0,400,l,0,1,1,1,0,19,19,10,,,['l'],0,[0.5334930774697568],2018_Jul_09_1122,60.1000064962,go-nogo,001,7,
logos/2.jpg,properties2.xlsx,frogs/ab41.jpg,0,0,400,l,0,1,1,1,0,20,20,40,,,['l'],0,[0.050672114351073105],2018_Jul_09_1122,60.1000064962,go-nogo,001,7,
logos/2.jpg,properties2.xlsx,frogs/ab75.jpg,0,0,400,l,0,1,1,1,0,21,21,73,,,['l'],0,[0.08391800938761662],2018_Jul_09_1122,60.1000064962,go-nogo,001,7,
logos/2.jpg,properties2.xlsx,frogs/ab26.jpg,0,0,400,l,0,1,1,1,0,22,22,25,,,['l'],0,[0.13401952769663694],2018_Jul_09_1122,60.1000064962,go-nogo,001,7,
logos/2.jpg,properties2.xlsx,frogs/ab1.jpg,0,0,400,l,0,1,1,1,0,23,23,0,,,['l'],0,[0.10040669901400179],2018_Jul_09_1122,60.1000064962,go-nogo,001,7,
logos/2.jpg,properties2.xlsx,frogs/ab35.jpg,0,0,400,l,0,1,1,1,0,24,24,34,,,['l'],0,[0.11702907764265547],2018_Jul_09_1122,60.1000064962,go-nogo,001,7,
logos/2.jpg,properties2.xlsx,frogs/ab78.jpg,0,0,400,l,0,1,1,1,0,25,25,76,,,['l'],0,[0.10023773886950949],2018_Jul_09_1122,60.1000064962,go-nogo,001,7,
logos/2.jpg,properties2.xlsx,frogs/ab53.jpg,0,0,400,l,0,1,1,1,0,26,26,52,,,['l'],0,[0.08370695142957629],2018_Jul_09_1122,60.1000064962,go-nogo,001,7,
logos/2.jpg,properties2.xlsx,frogs/ab42.jpg,0,0,400,l,0,1,1,1,0,27,27,41,,,['l'],0,[0.06723419070658565],2018_Jul_09_1122,60.1000064962,go-nogo,001,7,
logos/2.jpg,properties2.xlsx,frogs/ab22.jpg,0,0,400,l,0,1,1,1,0,28,28,21,,,['l'],0,[0.13368103851871638],2018_Jul_09_1122,60.1000064962,go-nogo,001,7,
logos/2.jpg,properties2.xlsx,frogs/ab63.jpg,0,0,400,l,0,1,1,1,0,29,29,61,,,['l'],0,[0.1001279432202864],2018_Jul_09_1122,60.1000064962,go-nogo,001,7,
logos/2.jpg,properties2.xlsx,frogs/ab62.jpg,0,0,400,l,0,1,1,1,0,30,30,60,,,['l'],0,[0.08352945794513289],2018_Jul_09_1122,60.1000064962,go-nogo,001,7,
logos/2.jpg,properties2.xlsx,frogs/ab38.jpg,0,0,400,l,0,1,1,1,0,31,31,37,,,['l'],0,[0.08378033815915842],2018_Jul_09_1122,60.1000064962,go-nogo,001,7,
logos/2.jpg,properties2.xlsx,frogs/ab69.jpg,0,0,400,l,0,1,1,1,0,32,32,67,,,['l'],0,[0.08383779598625551],2018_Jul_09_1122,60.1000064962,go-nogo,001,7,
logos/2.jpg,properties2.xlsx,frogs/ab2.jpg,0,0,400,l,0,1,1,1,0,33,33,1,,,['l'],0,[0.16716586709253534],2018_Jul_09_1122,60.1000064962,go-nogo,001,7,
logos/2.jpg,properties2.xlsx,frogs/ab46.jpg,0,0,400,l,0,1,1,1,0,34,34,45,,,['l'],0,[0.11695341535596526],2018_Jul_09_1122,60.1000064962,go-nogo,001,7,
logos/2.jpg,properties2.xlsx,frogs/ab15.jpg,0,0,400,l,0,1,1,1,0,35,35,14,,,['l'],0,[0.03346776189255252],2018_Jul_09_1122,60.1000064962,go-nogo,001,7,
logos/2.jpg,properties2.xlsx,frogs/ab51.jpg,0,0,400,l,0,1,1,1,0,36,36,50,,,['l'],0,[0.20042541547400106],2018_Jul_09_1122,60.1000064962,go-nogo,001,7,
logos/2.jpg,properties2.xlsx,frogs/ab10.jpg,0,0,400,l,0,1,1,1,0,37,37,9,,,['l'],0,[0.15071586194426345],2018_Jul_09_1122,60.1000064962,go-nogo,001,7,
logos/2.jpg,properties2.xlsx,frogs/ab45.jpg,0,0,400,l,0,1,1,1,0,38,38,44,,,['l'],0,[0.1504888750837381],2018_Jul_09_1122,60.1000064962,go-nogo,001,7,
logos/2.jpg,properties2.xlsx,frogs/ab70.jpg,0,0,400,l,0,1,1,1,0,39,39,68,,,['l'],0,[0.06700549717788817],2018_Jul_09_1122,60.1000064962,go-nogo,001,7,
logos/2.jpg,properties2.xlsx,frogs/ab55.jpg,0,0,400,l,0,1,1,1,0,40,40,54,,,['l'],0,[0.13357522509522823],2018_Jul_09_1122,60.1000064962,go-nogo,001,7,
logos/2.jpg,properties2.xlsx,frogs/ab8.jpg,0,0,400,l,0,1,1,1,0,41,41,7,,,['l'],0,[0.10042831680993913],2018_Jul_09_1122,60.1000064962,go-nogo,001,7,
logos/2.jpg,properties2.xlsx,frogs/ab61.jpg,0,0,400,l,0,1,1,1,0,42,42,59,,,['l'],0,[0.10053811245916222],2018_Jul_09_1122,60.1000064962,go-nogo,001,7,
logos/2.jpg,properties2.xlsx,frogs/ab5.jpg,0,0,400,l,0,1,1,1,0,43,43,4,,,['l'],0,[0.700325575388888],2018_Jul_09_1122,60.1000064962,go-nogo,001,7,
logos/2.jpg,properties2.xlsx,frogs/ab76.jpg,0,0,400,l,0,1,1,1,0,44,44,74,,,['l'],0,[0.15032219049726336],2018_Jul_09_1122,60.1000064962,go-nogo,001,7,
logos/2.jpg,properties2.xlsx,frogs/ab49.jpg,0,0,400,l,0,1,1,1,0,45,45,48,,,['l'],0,[0.13383236309255153],2018_Jul_09_1122,60.1000064962,go-nogo,001,7,
logos/2.jpg,properties2.xlsx,frogs/ab12.jpg,0,0,400,l,0,1,1,1,0,46,46,11,,,['l'],0,[0.15047408396003448],2018_Jul_09_1122,60.1000064962,go-nogo,001,7,
logos/2.jpg,properties2.xlsx,frogs/ab32.jpg,0,0,400,l,0,1,1,1,0,47,47,31,,,['l'],0,[0.08410289843459395],2018_Jul_09_1122,60.1000064962,go-nogo,001,7,
logos/2.jpg,properties2.xlsx,frogs/ab71.jpg,0,0,400,l,0,1,1,1,0,48,48,69,,,['l'],0,[0.16731434721941696],2018_Jul_09_1122,60.1000064962,go-nogo,001,7,
logos/2.jpg,properties2.xlsx,frogs/ab7.jpg,0,0,400,l,0,1,1,1,0,49,49,6,,,['l'],0,[0.06708912391604827],2018_Jul_09_1122,60.1000064962,go-nogo,001,7,
logos/2.jpg,properties2.xlsx,frogs/ab50.jpg,0,0,400,l,0,1,1,1,0,50,50,49,,,['l'],0,[0.20073830462979458],2018_Jul_09_1122,60.1000064962,go-nogo,001,7,
logos/2.jpg,properties2.xlsx,logos/2.jpg,0,0,400,a,0,1,1,1,0,51,51,89,,,['a'],0,[0.050543545352411456],2018_Jul_09_1122,60.1000064962,go-nogo,001,7,
logos/2.jpg,properties2.xlsx,frogs/ab29.jpg,0,0,400,l,0,1,1,1,0,52,52,28,,,['l'],0,[0.30023079841930667],2018_Jul_09_1122,60.1000064962,go-nogo,001,7,
logos/2.jpg,properties2.xlsx,frogs/ab68.jpg,0,0,400,l,0,1,1,1,0,53,53,66,,,['l'],0,[0.06685587927267989],2018_Jul_09_1122,60.1000064962,go-nogo,001,7,
logos/2.jpg,properties2.xlsx,logos/2.jpg,0,0,400,a,0,1,1,1,0,54,54,80,,,['a'],0,[0.05062318986529135],2018_Jul_09_1122,60.1000064962,go-nogo,001,7,
logos/2.jpg,properties2.xlsx,frogs/ab74.jpg,0,0,400,l,0,1,1,1,0,55,55,72,,,['l'],0,[0.35038010343532733],2018_Jul_09_1122,60.1000064962,go-nogo,001,7,
logos/2.jpg,properties2.xlsx,frogs/ab36.jpg,0,0,400,l,0,1,1,1,0,56,56,35,,,['l'],0,[0.066981603824388],2018_Jul_09_1122,60.1000064962,go-nogo,001,7,
logos/2.jpg,properties2.xlsx,frogs/ab37.jpg,0,0,400,l,0,1,1,1,0,57,57,36,,,['l'],0,[0.11733741568332334],2018_Jul_09_1122,60.1000064962,go-nogo,001,7,
logos/2.jpg,properties2.xlsx,frogs/ab27.jpg,0,0,400,l,0,1,1,1,0,58,58,26,,,['l'],0,[0.10081686825287761],2018_Jul_09_1122,60.1000064962,go-nogo,001,7,
logos/2.jpg,properties2.xlsx,frogs/ab77.jpg,0,0,400,l,0,1,1,1,0,59,59,75,,,['l'],0,[0.1004516412740486],2018_Jul_09_1122,60.1000064962,go-nogo,001,7,
logos/2.jpg,properties2.xlsx,frogs/ab34.jpg,0,0,400,l,0,1,1,1,0,60,60,33,,,['l'],0,[0.05020619395372705],2018_Jul_09_1122,60.1000064962,go-nogo,001,7,
logos/2.jpg,properties2.xlsx,frogs/ab43.jpg,0,0,400,l,0,1,1,1,0,61,61,42,,,['l'],0,[0.017115605716753635],2018_Jul_09_1122,60.1000064962,go-nogo,001,7,
logos/2.jpg,properties2.xlsx,frogs/ab24.jpg,0,0,400,l,0,1,1,1,0,62,62,23,,,['l'],0,[0.5169196233268849],2018_Jul_09_1122,60.1000064962,go-nogo,001,7,
logos/2.jpg,properties2.xlsx,logos/2.jpg,0,0,400,a,0,1,1,1,0,63,63,86,,,['a'],0,[0.1505730707112889],2018_Jul_09_1122,60.1000064962,go-nogo,001,7,
logos/2.jpg,properties2.xlsx,logos/2.jpg,0,0,400,a,0,1,1,1,0,64,64,81,,,['l'],0,[0.3501764410393662],2018_Jul_09_1122,60.1000064962,go-nogo,001,7,
logos/2.jpg,properties2.xlsx,logos/2.jpg,0,0,400,a,0,1,1,1,0,65,65,88,,,['a'],0,[0.10026618333859005],2018_Jul_09_1122,60.1000064962,go-nogo,001,7,
logos/2.jpg,properties2.xlsx,frogs/ab80.jpg,0,0,400,l,0,1,1,1,0,66,66,78,,,['l'],0,[0.2835765619852282],2018_Jul_09_1122,60.1000064962,go-nogo,001,7,
logos/2.jpg,properties2.xlsx,frogs/ab6.jpg,0,0,400,l,0,1,1,1,0,67,67,5,,,['l'],0,[0.41706531589579754],2018_Jul_09_1122,60.1000064962,go-nogo,001,7,
logos/2.jpg,properties2.xlsx,frogs/ab44.jpg,0,0,400,l,0,1,1,1,0,68,68,43,,,['l'],0,[0.11702907764265547],2018_Jul_09_1122,60.1000064962,go-nogo,001,7,
logos/2.jpg,properties2.xlsx,frogs/ab79.jpg,0,0,400,l,0,1,1,1,0,69,69,77,,,['l'],0,[0.5832919466311068],2018_Jul_09_1122,60.1000064962,go-nogo,001,7,
logos/2.jpg,properties2.xlsx,frogs/ab20.jpg,0,0,400,l,0,1,1,1,0,70,70,19,,,['l'],0,[0.10050397909662934],2018_Jul_09_1122,60.1000064962,go-nogo,001,7,
logos/2.jpg,properties2.xlsx,frogs/ab28.jpg,0,0,400,l,0,1,1,1,0,71,71,27,,,['l'],0,[0.6002027521731179],2018_Jul_09_1122,60.1000064962,go-nogo,001,7,
logos/2.jpg,properties2.xlsx,frogs/ab60.jpg,0,0,400,l,0,1,1,1,0,72,72,58,,,['l'],0,[0.016884067741102626],2018_Jul_09_1122,60.1000064962,go-nogo,001,7,
logos/2.jpg,properties2.xlsx,logos/2.jpg,0,0,400,a,0,1,1,1,0,73,73,84,,,['l'],0,[0.3835827628795414],2018_Jul_09_1122,60.1000064962,go-nogo,001,7,
logos/2.jpg,properties2.xlsx,frogs/ab33.jpg,0,0,400,l,0,1,1,1,0,74,74,32,,,['l'],0,[0.13393305651197807],2018_Jul_09_1122,60.1000064962,go-nogo,001,7,
logos/2.jpg,properties2.xlsx,frogs/ab66.jpg,0,0,400,l,0,1,1,1,0,75,75,64,,,['l'],0,[0.2672938103132765],2018_Jul_09_1122,60.1000064962,go-nogo,001,7,
logos/2.jpg,properties2.xlsx,frogs/ab72.jpg,0,0,400,l,0,1,1,1,0,76,76,70,,,['l'],0,[0.8499872853226407],2018_Jul_09_1122,60.1000064962,go-nogo,001,7,
logos/2.jpg,properties2.xlsx,frogs/ab25.jpg,0,0,400,l,0,1,1,1,0,77,77,24,,,['l'],0,[0.21692605177668156],2018_Jul_09_1122,60.1000064962,go-nogo,001,7,
logos/2.jpg,properties2.xlsx,frogs/ab21.jpg,0,0,400,l,0,1,1,1,0,78,78,20,,,['l'],0,[0.1503995594521257],2018_Jul_09_1122,60.1000064962,go-nogo,001,7,
logos/2.jpg,properties2.xlsx,frogs/ab30.jpg,0,0,400,l,0,1,1,1,0,79,79,29,,,['l'],0,[0.2007138423869037],2018_Jul_09_1122,60.1000064962,go-nogo,001,7,
logos/2.jpg,properties2.xlsx,frogs/ab18.jpg,0,0,400,l,0,1,1,1,0,80,80,17,,,['l'],0,[0.25055139602591225],2018_Jul_09_1122,60.1000064962,go-nogo,001,7,
logos/2.jpg,properties2.xlsx,frogs/ab56.jpg,0,0,400,l,0,1,1,1,0,81,81,55,,,['l'],0,[0.3005852164992575],2018_Jul_09_1122,60.1000064962,go-nogo,001,7,
logos/2.jpg,properties2.xlsx,frogs/ab4.jpg,0,0,400,l,0,1,1,1,0,82,82,3,,,['l'],0,[0.1668780090690234],2018_Jul_09_1122,60.1000064962,go-nogo,001,7,
logos/2.jpg,properties2.xlsx,logos/2.jpg,0,0,400,a,0,1,1,1,0,83,83,83,,,['a'],0,[0.06706466167315739],2018_Jul_09_1122,60.1000064962,go-nogo,001,7,
logos/2.jpg,properties2.xlsx,frogs/ab16.jpg,0,0,400,l,0,1,1,1,0,84,84,15,,,['l'],0,[0.3340040539060283],2018_Jul_09_1122,60.1000064962,go-nogo,001,7,
logos/2.jpg,properties2.xlsx,frogs/ab39.jpg,0,0,400,l,0,1,1,1,0,85,85,38,,,['l'],0,[0.3005698564861632],2018_Jul_09_1122,60.1000064962,go-nogo,001,7,
logos/2.jpg,properties2.xlsx,frogs/ab40.jpg,0,0,400,l,0,1,1,1,0,86,86,39,,,['l'],0,[0.3668875664106963],2018_Jul_09_1122,60.1000064962,go-nogo,001,7,
logos/2.jpg,properties2.xlsx,frogs/ab17.jpg,0,0,400,l,0,1,1,1,0,87,87,16,,,['l'],0,[0.7668304499175065],2018_Jul_09_1122,60.1000064962,go-nogo,001,7,
logos/2.jpg,properties2.xlsx,logos/2.jpg,0,0,400,a,0,1,1,1,0,88,88,87,,,['a'],0,[0.4501541974650536],2018_Jul_09_1122,60.1000064962,go-nogo,001,7,
logos/2.jpg,properties2.xlsx,frogs/ab19.jpg,0,0,400,l,0,1,1,1,0,89,89,18,,,['l'],0,[0.4167660800849262],2018_Jul_09_1122,60.1000064962,go-nogo,001,7,
logos/2.jpg,properties2.xlsx,,,,,,0,1,1,1,,,,,,,,,,2018_Jul_09_1122,60.1000064962,go-nogo,001,7,
logos/1.jpg,properties1.xlsx,frogs/ab29.jpg,0,0,400,l,0,2,2,0,0,0,0,28,space,5.05780200488,['l'],0,[0.5171056501526436],2018_Jul_09_1122,60.1000064962,go-nogo,001,7,
logos/1.jpg,properties1.xlsx,frogs/ab5.jpg,0,0,400,l,0,2,2,0,0,1,1,4,,,['l'],0,[0.13358375843608883],2018_Jul_09_1122,60.1000064962,go-nogo,001,7,
logos/1.jpg,properties1.xlsx,frogs/ab75.jpg,0,0,400,l,0,2,2,0,0,2,2,73,,,['l'],0,[0.1504627061726751],2018_Jul_09_1122,60.1000064962,go-nogo,001,7,
logos/1.jpg,properties1.xlsx,frogs/ab53.jpg,0,0,400,l,0,2,2,0,0,3,3,52,,,['l'],0,[0.15042914169953292],2018_Jul_09_1122,60.1000064962,go-nogo,001,7,
logos/1.jpg,properties1.xlsx,frogs/ab45.jpg,0,0,400,l,0,2,2,0,0,4,4,44,,,['l'],0,[0.2501821868222578],2018_Jul_09_1122,60.1000064962,go-nogo,001,7,
logos/1.jpg,properties1.xlsx,frogs/ab33.jpg,0,0,400,l,0,2,2,0,0,5,5,32,,,['l'],0,[0.31689243041455484],2018_Jul_09_1122,60.1000064962,go-nogo,001,7,
logos/1.jpg,properties1.xlsx,frogs/ab54.jpg,0,0,400,l,0,2,2,0,0,6,6,53,,,['l'],0,[0.10025366777199451],2018_Jul_09_1122,60.1000064962,go-nogo,001,7,
logos/1.jpg,properties1.xlsx,frogs/ab51.jpg,0,0,400,l,0,2,2,0,0,7,7,50,,,['l'],0,[0.40053623512403647],2018_Jul_09_1122,60.1000064962,go-nogo,001,7,
logos/1.jpg,properties1.xlsx,frogs/ab56.jpg,0,0,400,l,0,2,2,0,0,8,8,55,,,['l'],0,[0.16743950288173437],2018_Jul_09_1122,60.1000064962,go-nogo,001,7,
logos/1.jpg,properties1.xlsx,logos/1.jpg,0,0,400,a,0,2,2,0,0,9,9,88,,,['a'],0,[0.18378426349590882],2018_Jul_09_1122,60.1000064962,go-nogo,001,7,
logos/1.jpg,properties1.xlsx,frogs/ab27.jpg,0,0,400,l,0,2,2,0,0,10,10,26,,,['l'],0,[0.0670214260803732],2018_Jul_09_1122,60.1000064962,go-nogo,001,7,
logos/1.jpg,properties1.xlsx,frogs/ab76.jpg,0,0,400,l,0,2,2,0,0,11,11,74,,,['l'],0,[0.23381410174397388],2018_Jul_09_1122,60.1000064962,go-nogo,001,7,
logos/1.jpg,properties1.xlsx,logos/1.jpg,0,0,400,a,0,2,2,0,0,12,12,83,,,['l'],0,[0.5501626739164749],2018_Jul_09_1122,60.1000064962,go-nogo,001,7,
logos/1.jpg,properties1.xlsx,frogs/ab49.jpg,0,0,400,l,0,2,2,0,0,13,13,48,,,['l'],0,[0.08381105818534706],2018_Jul_09_1122,60.1000064962,go-nogo,001,7,
logos/1.jpg,properties1.xlsx,frogs/ab12.jpg,0,0,400,l,0,2,2,0,0,14,14,11,,,['l'],0,[0.6337387807902815],2018_Jul_09_1122,60.1000064962,go-nogo,001,7,
logos/1.jpg,properties1.xlsx,frogs/ab74.jpg,0,0,400,l,0,2,2,0,0,15,15,72,,,['l'],0,[0.11701087318260761],2018_Jul_09_1122,60.1000064962,go-nogo,001,7,
logos/1.jpg,properties1.xlsx,frogs/ab28.jpg,0,0,400,l,0,2,2,0,0,16,16,27,,,['l'],0,[0.21718830977852122],2018_Jul_09_1122,60.1000064962,go-nogo,001,7,
logos/1.jpg,properties1.xlsx,frogs/ab35.jpg,0,0,400,l,0,2,2,0,0,17,17,34,,,['l'],0,[0.10040385456704826],2018_Jul_09_1122,60.1000064962,go-nogo,001,7,
logos/1.jpg,properties1.xlsx,frogs/ab7.jpg,0,0,400,l,0,2,2,0,0,18,18,6,,,['l'],0,[0.10051421910566205],2018_Jul_09_1122,60.1000064962,go-nogo,001,7,
logos/1.jpg,properties1.xlsx,frogs/ab18.jpg,0,0,400,l,0,2,2,0,0,19,19,17,,,['l'],0,[0.10065701033863661],2018_Jul_09_1122,60.1000064962,go-nogo,001,7,
logos/1.jpg,properties1.xlsx,frogs/ab4.jpg,0,0,400,l,0,2,2,0,0,20,20,3,,,['l'],0,[0.06710163948218906],2018_Jul_09_1122,60.1000064962,go-nogo,001,7,
logos/1.jpg,properties1.xlsx,frogs/ab11.jpg,0,0,400,l,0,2,2,0,0,21,21,10,,,['l'],0,[0.033885326693052775],2018_Jul_09_1122,60.1000064962,go-nogo,001,7,
logos/1.jpg,properties1.xlsx,frogs/ab16.jpg,0,0,400,l,0,2,2,0,0,22,22,15,,,['l'],0,[0.23389943514985134],2018_Jul_09_1122,60.1000064962,go-nogo,001,7,
logos/1.jpg,properties1.xlsx,frogs/ab63.jpg,0,0,400,l,0,2,2,0,0,23,23,61,,,['l'],0,[0.0669941193905288],2018_Jul_09_1122,60.1000064962,go-nogo,001,7,
logos/1.jpg,properties1.xlsx,frogs/ab44.jpg,0,0,400,l,0,2,2,0,0,24,24,43,,,['l'],0,[0.11719405556141282],2018_Jul_09_1122,60.1000064962,go-nogo,001,7,
logos/1.jpg,properties1.xlsx,frogs/ab42.jpg,0,0,400,l,0,2,2,0,0,25,25,41,,,['l'],0,[0.06710675948670541],2018_Jul_09_1122,60.1000064962,go-nogo,001,7,
logos/1.jpg,properties1.xlsx,logos/1.jpg,0,0,400,a,0,2,2,0,0,26,26,81,,,['a'],0,[0.08390037381695947],2018_Jul_09_1122,60.1000064962,go-nogo,001,7,
logos/1.jpg,properties1.xlsx,frogs/ab37.jpg,0,0,400,l,0,2,2,0,0,27,27,36,,,['l'],0,[0.40035987941791973],2018_Jul_09_1122,60.1000064962,go-nogo,001,7,
logos/1.jpg,properties1.xlsx,frogs/ab24.jpg,0,0,400,l,0,2,2,0,0,28,28,23,,,['l'],0,[0.0838491737736149],2018_Jul_09_1122,60.1000064962,go-nogo,001,7,
logos/1.jpg,properties1.xlsx,frogs/ab23.jpg,0,0,400,l,0,2,2,0,0,29,29,22,,,['l'],0,[0.31704375498839],2018_Jul_09_1122,60.1000064962,go-nogo,001,7,
logos/1.jpg,properties1.xlsx,frogs/ab58.jpg,0,0,400,l,0,2,2,0,0,30,30,57,,,['a'],0,[0.15035404830223342],2018_Jul_09_1122,60.1000064962,go-nogo,001,7,
logos/1.jpg,properties1.xlsx,logos/1.jpg,0,0,400,a,0,2,2,0,0,31,31,85,,,['l'],0,[0.5168160854609596],2018_Jul_09_1122,60.1000064962,go-nogo,001,7,
logos/1.jpg,properties1.xlsx,frogs/ab32.jpg,0,0,400,l,0,2,2,0,0,32,32,31,,,['l'],0,[0.10062117030747686],2018_Jul_09_1122,60.1000064962,go-nogo,001,7,
logos/1.jpg,properties1.xlsx,frogs/ab46.jpg,0,0,400,l,0,2,2,0,0,33,33,45,,,['l'],0,[0.08377066703997116],2018_Jul_09_1122,60.1000064962,go-nogo,001,7,
logos/1.jpg,properties1.xlsx,frogs/ab72.jpg,0,0,400,l,0,2,2,0,0,34,34,70,,,['l'],0,[0.017100814593050018],2018_Jul_09_1122,60.1000064962,go-nogo,001,7,
logos/1.jpg,properties1.xlsx,frogs/ab1.jpg,0,0,400,l,0,2,2,0,0,35,35,0,,,['l'],0,[0.58321514656609],2018_Jul_09_1122,60.1000064962,go-nogo,001,7,
logos/1.jpg,properties1.xlsx,frogs/ab65.jpg,0,0,400,l,0,2,2,0,0,36,36,63,,,['l'],0,[1.1665571554622147],2018_Jul_09_1122,60.1000064962,go-nogo,001,7,
logos/1.jpg,properties1.xlsx,frogs/ab77.jpg,0,0,400,l,0,2,2,0,0,37,37,75,,,['l'],0,[0.18405960595282522],2018_Jul_09_1122,60.1000064962,go-nogo,001,7,
logos/1.jpg,properties1.xlsx,frogs/ab81.jpg,0,0,400,l,0,2,2,0,0,38,38,79,,,['l'],0,[0.10068033480274607],2018_Jul_09_1122,60.1000064962,go-nogo,001,7,
logos/1.jpg,properties1.xlsx,frogs/ab21.jpg,0,0,400,l,0,2,2,0,0,39,39,20,,,['l'],0,[0.2668711255078051],2018_Jul_09_1122,60.1000064962,go-nogo,001,7,
logos/1.jpg,properties1.xlsx,frogs/ab80.jpg,0,0,400,l,0,2,2,0,0,40,40,78,,,['l'],0,[0.1339757232149168],2018_Jul_09_1122,60.1000064962,go-nogo,001,7,
logos/1.jpg,properties1.xlsx,frogs/ab50.jpg,0,0,400,l,0,2,2,0,0,41,41,49,,,['l'],0,[0.06742363086777914],2018_Jul_09_1122,60.1000064962,go-nogo,001,7,
logos/1.jpg,properties1.xlsx,frogs/ab17.jpg,0,0,400,l,0,2,2,0,0,42,42,16,,,['l'],0,[0.31682018146420887],2018_Jul_09_1122,60.1000064962,go-nogo,001,7,
logos/1.jpg,properties1.xlsx,frogs/ab39.jpg,0,0,400,l,0,2,2,0,0,43,43,38,,,['l'],0,[0.45017524637205497],2018_Jul_09_1122,60.1000064962,go-nogo,001,7,
logos/1.jpg,properties1.xlsx,frogs/ab43.jpg,0,0,400,l,0,2,2,0,0,44,44,42,,,['l'],0,[0.03392799339599151],2018_Jul_09_1122,60.1000064962,go-nogo,001,7,
logos/1.jpg,properties1.xlsx,frogs/ab40.jpg,0,0,400,l,0,2,2,0,0,45,45,39,,,['l'],0,[0.017485383809798805],2018_Jul_09_1122,60.1000064962,go-nogo,001,7,
logos/1.jpg,properties1.xlsx,frogs/ab6.jpg,0,0,400,l,0,2,2,0,0,46,46,5,,,['l'],0,[0.5002801780169648],2018_Jul_09_1122,60.1000064962,go-nogo,001,7,
logos/1.jpg,properties1.xlsx,frogs/ab64.jpg,0,0,400,l,0,2,2,0,0,47,47,62,,,['l'],0,[0.5002335290882911],2018_Jul_09_1122,60.1000064962,go-nogo,001,7,
logos/1.jpg,properties1.xlsx,frogs/ab61.jpg,0,0,400,l,0,2,2,0,0,48,48,59,,,['l'],0,[0.4837818172718471],2018_Jul_09_1122,60.1000064962,go-nogo,001,7,
logos/1.jpg,properties1.xlsx,frogs/ab10.jpg,0,0,400,l,0,2,2,0,0,49,49,9,,,['l'],0,[0.017290254754698253],2018_Jul_09_1122,60.1000064962,go-nogo,001,7,
logos/1.jpg,properties1.xlsx,frogs/ab19.jpg,0,0,400,l,0,2,2,0,0,50,50,18,,,['l'],0,[0.033670855399122956],2018_Jul_09_1122,60.1000064962,go-nogo,001,7,
logos/1.jpg,properties1.xlsx,frogs/ab57.jpg,0,0,400,l,0,2,2,0,0,51,51,56,,,['l'],0,[0.6001578099126164],2018_Jul_09_1122,60.1000064962,go-nogo,001,7,
logos/1.jpg,properties1.xlsx,frogs/ab15.jpg,0,0,400,l,0,2,2,0,0,52,52,14,,,['l'],0,[0.05036377631040523],2018_Jul_09_1122,60.1000064962,go-nogo,001,7,
logos/1.jpg,properties1.xlsx,frogs/ab25.jpg,0,0,400,l,0,2,2,0,0,53,53,24,,,['l'],0,[0.017866539690203354],2018_Jul_09_1122,60.1000064962,go-nogo,001,7,
logos/1.jpg,properties1.xlsx,frogs/ab52.jpg,0,0,400,l,0,2,2,0,0,54,54,51,,,['l'],0,[0.1338920964767567],2018_Jul_09_1122,60.1000064962,go-nogo,001,7,
logos/1.jpg,properties1.xlsx,frogs/ab8.jpg,0,0,400,l,0,2,2,0,0,55,55,7,,,['l'],0,[0.301391332743151],2018_Jul_09_1122,60.1000064962,go-nogo,001,7,
logos/1.jpg,properties1.xlsx,frogs/ab68.jpg,0,0,400,l,0,2,2,0,0,56,56,66,,,['l'],0,[0.35068275258299764],2018_Jul_09_1122,60.1000064962,go-nogo,001,7,
logos/1.jpg,properties1.xlsx,frogs/ab30.jpg,0,0,400,l,0,2,2,0,0,57,57,29,,,['l'],0,[0.3504210634705487],2018_Jul_09_1122,60.1000064962,go-nogo,001,7,
logos/1.jpg,properties1.xlsx,frogs/ab13.jpg,0,0,400,l,0,2,2,0,0,58,58,12,,,['l'],0,[0.35064122365838557],2018_Jul_09_1122,60.1000064962,go-nogo,001,7,
logos/1.jpg,properties1.xlsx,frogs/ab36.jpg,0,0,400,l,0,2,2,0,0,59,59,35,,,['l'],0,[0.3165323234406969],2018_Jul_09_1122,60.1000064962,go-nogo,001,7,
logos/1.jpg,properties1.xlsx,frogs/ab55.jpg,0,0,400,l,0,2,2,0,0,60,60,54,,,['l'],0,[0.3007342655150751],2018_Jul_09_1122,60.1000064962,go-nogo,001,7,
logos/1.jpg,properties1.xlsx,frogs/ab60.jpg,0,0,400,l,0,2,2,0,0,61,61,58,,,['l'],0,[0.3172149906899904],2018_Jul_09_1122,60.1000064962,go-nogo,001,7,
logos/1.jpg,properties1.xlsx,logos/1.jpg,0,0,400,a,0,2,2,0,0,62,62,82,,,['l'],0,[0.6332091447829953],2018_Jul_09_1122,60.1000064962,go-nogo,001,7,
logos/1.jpg,properties1.xlsx,frogs/ab31.jpg,0,0,400,l,0,2,2,0,0,63,63,30,,,['l'],0,[0.15057534626839697],2018_Jul_09_1122,60.1000064962,go-nogo,001,7,
logos/1.jpg,properties1.xlsx,frogs/ab47.jpg,0,0,400,l,0,2,2,0,0,64,64,46,,,['l'],0,[0.300395776338064],2018_Jul_09_1122,60.1000064962,go-nogo,001,7,
logos/1.jpg,properties1.xlsx,frogs/ab66.jpg,0,0,400,l,0,2,2,0,0,65,65,64,,,['l'],0,[0.3001949583881469],2018_Jul_09_1122,60.1000064962,go-nogo,001,7,
logos/1.jpg,properties1.xlsx,frogs/ab70.jpg,0,0,400,l,0,2,2,0,0,66,66,68,,,['l'],0,[0.4335210099379765],2018_Jul_09_1122,60.1000064962,go-nogo,001,7,
logos/1.jpg,properties1.xlsx,frogs/ab9.jpg,0,0,400,l,0,2,2,0,0,67,67,8,,,['l'],0,[0.11721396668917805],2018_Jul_09_1122,60.1000064962,go-nogo,001,7,
logos/1.jpg,properties1.xlsx,frogs/ab73.jpg,0,0,400,l,0,2,2,0,0,68,68,71,,,['l'],0,[0.2003759220988286],2018_Jul_09_1122,60.1000064962,go-nogo,001,7,
logos/1.jpg,properties1.xlsx,logos/1.jpg,0,0,400,a,0,2,2,0,0,69,69,80,,,['l'],0,[0.6338474386607231],2018_Jul_09_1122,60.1000064962,go-nogo,001,7,
logos/1.jpg,properties1.xlsx,logos/1.jpg,0,0,400,a,0,2,2,0,0,70,70,89,,,['l'],0,[1.2665730274757152],2018_Jul_09_1122,60.1000064962,go-nogo,001,7,
logos/1.jpg,properties1.xlsx,frogs/ab79.jpg,0,0,400,l,0,2,2,0,0,71,71,77,,,['l'],0,[0.15047237729186236],2018_Jul_09_1122,60.1000064962,go-nogo,001,7,
logos/1.jpg,properties1.xlsx,frogs/ab62.jpg,0,0,400,l,0,2,2,0,0,72,72,60,,,['l'],0,[0.10066326812147963],2018_Jul_09_1122,60.1000064962,go-nogo,001,7,
logos/1.jpg,properties1.xlsx,frogs/ab69.jpg,0,0,400,l,0,2,2,0,0,73,73,67,,,['l'],0,[0.2340763597453588],2018_Jul_09_1122,60.1000064962,go-nogo,001,7,
logos/1.jpg,properties1.xlsx,frogs/ab20.jpg,0,0,400,l,0,2,2,0,0,74,74,19,,,['l'],0,[0.20037023320446679],2018_Jul_09_1122,60.1000064962,go-nogo,001,7,
logos/1.jpg,properties1.xlsx,frogs/ab2.jpg,0,0,400,l,0,2,2,0,0,75,75,1,,,['l'],0,[0.1670828092442207],2018_Jul_09_1122,60.1000064962,go-nogo,001,7,
logos/1.jpg,properties1.xlsx,logos/1.jpg,0,0,400,a,0,2,2,0,0,76,76,86,,,['a'],0,[0.10049430797744208],2018_Jul_09_1122,60.1000064962,go-nogo,001,7,
logos/1.jpg,properties1.xlsx,frogs/ab22.jpg,0,0,400,l,0,2,2,0,0,77,77,21,,,['l'],0,[0.06735934636844831],2018_Jul_09_1122,60.1000064962,go-nogo,001,7,
logos/1.jpg,properties1.xlsx,frogs/ab48.jpg,0,0,400,l,0,2,2,0,0,78,78,47,,,['l'],0,[0.0005603560334748181],2018_Jul_09_1122,60.1000064962,go-nogo,001,7,
logos/1.jpg,properties1.xlsx,frogs/ab3.jpg,0,0,400,l,0,2,2,0,0,79,79,2,,,['l'],0,[0.050549803135709226],2018_Jul_09_1122,60.1000064962,go-nogo,001,7,
logos/1.jpg,properties1.xlsx,frogs/ab34.jpg,0,0,400,l,0,2,2,0,0,80,80,33,,,['l'],0,[0.0670305283106245],2018_Jul_09_1122,60.1000064962,go-nogo,001,7,
logos/1.jpg,properties1.xlsx,frogs/ab71.jpg,0,0,400,l,0,2,2,0,0,81,81,69,,,['l'],0,[0.08395043608197739],2018_Jul_09_1122,60.1000064962,go-nogo,001,7,
logos/1.jpg,properties1.xlsx,logos/1.jpg,0,0,400,a,0,2,2,0,0,82,82,87,,,['a'],0,[0.21696871848007504],2018_Jul_09_1122,60.1000064962,go-nogo,001,7,
logos/1.jpg,properties1.xlsx,frogs/ab26.jpg,0,0,400,l,0,2,2,0,0,83,83,25,,,['l'],0,[0.01728001474566554],2018_Jul_09_1122,60.1000064962,go-nogo,001,7,
logos/1.jpg,properties1.xlsx,frogs/ab41.jpg,0,0,400,l,0,2,2,0,0,84,84,40,,,['l'],0,[0.5168564766063355],2018_Jul_09_1122,60.1000064962,go-nogo,001,7,
logos/1.jpg,properties1.xlsx,frogs/ab78.jpg,0,0,400,l,0,2,2,0,0,85,85,76,,,['l'],0,[0.23397452854715084],2018_Jul_09_1122,60.1000064962,go-nogo,001,7,
logos/1.jpg,properties1.xlsx,frogs/ab14.jpg,0,0,400,l,0,2,2,0,0,86,86,13,,,['l'],0,[0.25053546712388197],2018_Jul_09_1122,60.1000064962,go-nogo,001,7,
logos/1.jpg,properties1.xlsx,frogs/ab67.jpg,0,0,400,l,0,2,2,0,0,87,87,65,,,['l'],0,[0.25072832062187445],2018_Jul_09_1122,60.1000064962,go-nogo,001,7,
logos/1.jpg,properties1.xlsx,logos/1.jpg,0,0,400,a,0,2,2,0,0,88,88,84,,,['a'],0,[0.05069316325852924],2018_Jul_09_1122,60.1000064962,go-nogo,001,7,
logos/1.jpg,properties1.xlsx,frogs/ab38.jpg,0,0,400,l,0,2,2,0,0,89,89,37,,,['l'],0,[0.20056081114535118],2018_Jul_09_1122,60.1000064962,go-nogo,001,7,
logos/1.jpg,properties1.xlsx,,,,,,0,2,2,0,,,,,,,,,,2018_Jul_09_1122,60.1000064962,go-nogo,001,7,
logos/3.jpg,properties3.xlsx,frogs/ab16.jpg,0,0,400,l,0,3,3,2,0,0,0,15,space,1.70118516723,['l'],0,[0.06739404862082665],2018_Jul_09_1122,60.1000064962,go-nogo,001,7,
logos/3.jpg,properties3.xlsx,frogs/ab47.jpg,0,0,400,l,0,3,3,2,0,1,1,46,,,['l'],0,[0.016903978868867853],2018_Jul_09_1122,60.1000064962,go-nogo,001,7,
logos/3.jpg,properties3.xlsx,frogs/ab2.jpg,0,0,400,l,0,3,3,2,0,2,2,1,,,['l'],0,[0.06730928410388515],2018_Jul_09_1122,60.1000064962,go-nogo,001,7,
logos/3.jpg,properties3.xlsx,frogs/ab36.jpg,0,0,400,l,0,3,3,2,0,3,3,35,,,['l'],0,[0.017294805869369156],2018_Jul_09_1122,60.1000064962,go-nogo,001,7,
logos/3.jpg,properties3.xlsx,frogs/ab46.jpg,0,0,400,l,0,3,3,2,0,4,4,45,,,['l'],0,[0.5002926935831056],2018_Jul_09_1122,60.1000064962,go-nogo,001,7,
logos/3.jpg,properties3.xlsx,frogs/ab28.jpg,0,0,400,l,0,3,3,2,0,5,5,27,,,['l'],0,[0.08391800938761662],2018_Jul_09_1122,60.1000064962,go-nogo,001,7,
logos/3.jpg,properties3.xlsx,logos/3.jpg,0,0,400,a,0,3,3,2,0,6,6,84,,,['a'],0,[0.06694291934672947],2018_Jul_09_1122,60.1000064962,go-nogo,001,7,
logos/3.jpg,properties3.xlsx,frogs/ab52.jpg,0,0,400,l,0,3,3,2,0,7,7,51,,,['l'],0,[0.43411948155971913],2018_Jul_09_1122,60.1000064962,go-nogo,001,7,
logos/3.jpg,properties3.xlsx,frogs/ab63.jpg,0,0,400,l,0,3,3,2,0,8,8,61,,,['l'],0,[0.017318130333933368],2018_Jul_09_1122,60.1000064962,go-nogo,001,7,
logos/3.jpg,properties3.xlsx,frogs/ab68.jpg,0,0,400,l,0,3,3,2,0,9,9,66,,,['l'],0,[0.11719803778714777],2018_Jul_09_1122,60.1000064962,go-nogo,001,7,
logos/3.jpg,properties3.xlsx,frogs/ab15.jpg,0,0,400,l,0,3,3,2,0,10,10,14,,,['l'],0,[0.1171075843762992],2018_Jul_09_1122,60.1000064962,go-nogo,001,7,
logos/3.jpg,properties3.xlsx,frogs/ab42.jpg,0,0,400,l,0,3,3,2,0,11,11,41,,,['l'],0,[0.3672158155800389],2018_Jul_09_1122,60.1000064962,go-nogo,001,7,
logos/3.jpg,properties3.xlsx,logos/3.jpg,0,0,400,a,0,3,3,2,0,12,12,86,,,['a'],0,[0.017584939450443926],2018_Jul_09_1122,60.1000064962,go-nogo,001,7,
logos/3.jpg,properties3.xlsx,frogs/ab23.jpg,0,0,400,l,0,3,3,2,0,13,13,22,,,['l'],0,[0.31741011974554567],2018_Jul_09_1122,60.1000064962,go-nogo,001,7,
logos/3.jpg,properties3.xlsx,logos/3.jpg,0,0,400,a,0,3,3,2,0,14,14,85,,,['l'],0,[0.03384265999011404],2018_Jul_09_1122,60.1000064962,go-nogo,001,7,
logos/3.jpg,properties3.xlsx,frogs/ab20.jpg,0,0,400,l,0,3,3,2,0,15,15,19,,,['l'],0,[0.28377965549225337],2018_Jul_09_1122,60.1000064962,go-nogo,001,7,
logos/3.jpg,properties3.xlsx,frogs/ab19.jpg,0,0,400,l,0,3,3,2,0,16,16,18,,,['l'],0,[0.08336448002637553],2018_Jul_09_1122,60.1000064962,go-nogo,001,7,
logos/3.jpg,properties3.xlsx,frogs/ab76.jpg,0,0,400,l,0,3,3,2,0,17,17,74,,,['l'],0,[0.03381762885783246],2018_Jul_09_1122,60.1000064962,go-nogo,001,7,
logos/3.jpg,properties3.xlsx,frogs/ab35.jpg,0,0,400,l,0,3,3,2,0,18,18,34,,,['l'],0,[0.6337689319270794],2018_Jul_09_1122,60.1000064962,go-nogo,001,7,
logos/3.jpg,properties3.xlsx,frogs/ab75.jpg,0,0,400,l,0,3,3,2,0,19,19,73,,,['l'],0,[0.7832815928450145],2018_Jul_09_1122,60.1000064962,go-nogo,001,7,
logos/3.jpg,properties3.xlsx,frogs/ab13.jpg,0,0,400,l,0,3,3,2,0,20,20,12,,,['l'],0,[0.3338163204120974],2018_Jul_09_1122,60.1000064962,go-nogo,001,7,
logos/3.jpg,properties3.xlsx,frogs/ab37.jpg,0,0,400,l,0,3,3,2,0,21,21,36,,,['l'],0,[0.40051973733216073],2018_Jul_09_1122,60.1000064962,go-nogo,001,7,
logos/3.jpg,properties3.xlsx,frogs/ab70.jpg,0,0,400,l,0,3,3,2,0,22,22,68,,,['l'],0,[0.3504347168154709],2018_Jul_09_1122,60.1000064962,go-nogo,001,7,
logos/3.jpg,properties3.xlsx,frogs/ab33.jpg,0,0,400,l,0,3,3,2,0,23,23,32,,,['l'],0,[0.36675899741203466],2018_Jul_09_1122,60.1000064962,go-nogo,001,7,
logos/3.jpg,properties3.xlsx,frogs/ab48.jpg,0,0,400,l,0,3,3,2,0,24,24,47,,,['l'],0,[0.40003845692172035],2018_Jul_09_1122,60.1000064962,go-nogo,001,7,
logos/3.jpg,properties3.xlsx,frogs/ab71.jpg,0,0,400,l,0,3,3,2,0,25,25,69,,,['l'],0,[0.41705792033371836],2018_Jul_09_1122,60.1000064962,go-nogo,001,7,
logos/3.jpg,properties3.xlsx,frogs/ab51.jpg,0,0,400,l,0,3,3,2,0,26,26,50,,,['l'],0,[0.06714089284878355],2018_Jul_09_1122,60.1000064962,go-nogo,001,7,
logos/3.jpg,properties3.xlsx,frogs/ab62.jpg,0,0,400,l,0,3,3,2,0,27,27,60,,,['l'],0,[0.4004156305768447],2018_Jul_09_1122,60.1000064962,go-nogo,001,7,
logos/3.jpg,properties3.xlsx,frogs/ab27.jpg,0,0,400,l,0,3,3,2,0,28,28,26,,,['l'],0,[0.4169856713833724],2018_Jul_09_1122,60.1000064962,go-nogo,001,7,
logos/3.jpg,properties3.xlsx,logos/3.jpg,0,0,400,a,0,3,3,2,0,29,29,81,,,['l'],0,[0.30071094105096563],2018_Jul_09_1122,60.1000064962,go-nogo,001,7,
logos/3.jpg,properties3.xlsx,frogs/ab41.jpg,0,0,400,l,0,3,3,2,0,30,30,40,,,['l'],0,[0.03350815303792842],2018_Jul_09_1122,60.1000064962,go-nogo,001,7,
logos/3.jpg,properties3.xlsx,frogs/ab30.jpg,0,0,400,l,0,3,3,2,0,31,31,29,,,['l'],0,[0.4002654437822457],2018_Jul_09_1122,60.1000064962,go-nogo,001,7,
logos/3.jpg,properties3.xlsx,frogs/ab65.jpg,0,0,400,l,0,3,3,2,0,32,32,63,,,['l'],0,[0.45083117582043997],2018_Jul_09_1122,60.1000064962,go-nogo,001,7,
logos/3.jpg,properties3.xlsx,frogs/ab8.jpg,0,0,400,l,0,3,3,2,0,33,33,7,,,['l'],0,[0.3170198616344351],2018_Jul_09_1122,60.1000064962,go-nogo,001,7,
logos/3.jpg,properties3.xlsx,frogs/ab12.jpg,0,0,400,l,0,3,3,2,0,34,34,11,,,['l'],0,[0.4004122172409552],2018_Jul_09_1122,60.1000064962,go-nogo,001,7,
logos/3.jpg,properties3.xlsx,frogs/ab1.jpg,0,0,400,l,0,3,3,2,0,35,35,0,,,['l'],0,[0.41708977813914316],2018_Jul_09_1122,60.1000064962,go-nogo,001,7,
logos/3.jpg,properties3.xlsx,frogs/ab7.jpg,0,0,400,l,0,3,3,2,0,36,36,6,,,['l'],0,[0.4005299773407387],2018_Jul_09_1122,60.1000064962,go-nogo,001,7,
logos/3.jpg,properties3.xlsx,frogs/ab43.jpg,0,0,400,l,0,3,3,2,0,37,37,42,,,['l'],0,[0.43372467233393763],2018_Jul_09_1122,60.1000064962,go-nogo,001,7,
logos/3.jpg,properties3.xlsx,frogs/ab22.jpg,0,0,400,l,0,3,3,2,0,38,38,21,,,['l'],0,[0.400568661818852],2018_Jul_09_1122,60.1000064962,go-nogo,001,7,
logos/3.jpg,properties3.xlsx,logos/3.jpg,0,0,400,a,0,3,3,2,0,39,39,82,,,['a'],0,[0.03364297981988784],2018_Jul_09_1122,60.1000064962,go-nogo,001,7,
logos/3.jpg,properties3.xlsx,logos/3.jpg,0,0,400,a,0,3,3,2,0,40,40,87,,,['l'],0,[0.6171010421485335],2018_Jul_09_1122,60.1000064962,go-nogo,001,7,
logos/3.jpg,properties3.xlsx,logos/3.jpg,0,0,400,a,0,3,3,2,0,41,41,88,,,['l'],0,[0.4667999005582715],2018_Jul_09_1122,60.1000064962,go-nogo,001,7,
logos/3.jpg,properties3.xlsx,frogs/ab26.jpg,0,0,400,l,0,3,3,2,0,42,42,25,,,['l'],0,[0.16687914684825955],2018_Jul_09_1122,60.1000064962,go-nogo,001,7,
logos/3.jpg,properties3.xlsx,frogs/ab6.jpg,0,0,400,l,0,3,3,2,0,43,43,5,,,['l'],0,[0.0839475916354786],2018_Jul_09_1122,60.1000064962,go-nogo,001,7,
logos/3.jpg,properties3.xlsx,logos/3.jpg,0,0,400,a,0,3,3,2,0,44,44,89,,,['l'],0,[0.31721328402181825],2018_Jul_09_1122,60.1000064962,go-nogo,001,7,
logos/3.jpg,properties3.xlsx,frogs/ab5.jpg,0,0,400,l,0,3,3,2,0,45,45,4,,,['l'],0,[0.08360796467877663],2018_Jul_09_1122,60.1000064962,go-nogo,001,7,
logos/3.jpg,properties3.xlsx,frogs/ab58.jpg,0,0,400,l,0,3,3,2,0,46,46,57,,,['l'],0,[0.10036801453634325],2018_Jul_09_1122,60.1000064962,go-nogo,001,7,
logos/3.jpg,properties3.xlsx,frogs/ab79.jpg,0,0,400,l,0,3,3,2,0,47,47,77,,,['l'],0,[0.03380966440681732],2018_Jul_09_1122,60.1000064962,go-nogo,001,7,
logos/3.jpg,properties3.xlsx,logos/3.jpg,0,0,400,a,0,3,3,2,0,48,48,80,,,['a'],0,[0.000576284936414595],2018_Jul_09_1122,60.1000064962,go-nogo,001,7,
logos/3.jpg,properties3.xlsx,frogs/ab73.jpg,0,0,400,l,0,3,3,2,0,49,49,71,,,['l'],0,[0.3836396518172478],2018_Jul_09_1122,60.1000064962,go-nogo,001,7,
logos/3.jpg,properties3.xlsx,frogs/ab55.jpg,0,0,400,l,0,3,3,2,0,50,50,54,,,['l'],0,[0.10067919702396466],2018_Jul_09_1122,60.1000064962,go-nogo,001,7,
logos/3.jpg,properties3.xlsx,frogs/ab45.jpg,0,0,400,l,0,3,3,2,0,51,51,44,,,['l'],0,[0.5335858064377135],2018_Jul_09_1122,60.1000064962,go-nogo,001,7,
logos/3.jpg,properties3.xlsx,frogs/ab60.jpg,0,0,400,l,0,3,3,2,0,52,52,58,,,['l'],0,[0.43334124089597026],2018_Jul_09_1122,60.1000064962,go-nogo,001,7,
logos/3.jpg,properties3.xlsx,frogs/ab74.jpg,0,0,400,l,0,3,3,2,0,53,53,72,,,['l'],0,[0.0005597871440841118],2018_Jul_09_1122,60.1000064962,go-nogo,001,7,
logos/3.jpg,properties3.xlsx,frogs/ab61.jpg,0,0,400,l,0,3,3,2,0,54,54,59,,,['l'],0,[0.08396352053796363],2018_Jul_09_1122,60.1000064962,go-nogo,001,7,
logos/3.jpg,properties3.xlsx,frogs/ab11.jpg,0,0,400,l,0,3,3,2,0,55,55,10,,,['l'],0,[0.33370140475835797],2018_Jul_09_1122,60.1000064962,go-nogo,001,7,
logos/3.jpg,properties3.xlsx,frogs/ab54.jpg,0,0,400,l,0,3,3,2,0,56,56,53,,,['l'],0,[0.2001233352161762],2018_Jul_09_1122,60.1000064962,go-nogo,001,7,
logos/3.jpg,properties3.xlsx,frogs/ab57.jpg,0,0,400,l,0,3,3,2,0,57,57,56,,,['l'],0,[0.08367395584627957],2018_Jul_09_1122,60.1000064962,go-nogo,001,7,
logos/3.jpg,properties3.xlsx,frogs/ab80.jpg,0,0,400,l,0,3,3,2,0,58,58,78,,,['l'],0,[0.3002541228838709],2018_Jul_09_1122,60.1000064962,go-nogo,001,7,
logos/3.jpg,properties3.xlsx,frogs/ab32.jpg,0,0,400,l,0,3,3,2,0,59,59,31,,,['l'],0,[0.067033941646514],2018_Jul_09_1122,60.1000064962,go-nogo,001,7,
logos/3.jpg,properties3.xlsx,frogs/ab49.jpg,0,0,400,l,0,3,3,2,0,60,60,48,,,['l'],0,[0.300412274129485],2018_Jul_09_1122,60.1000064962,go-nogo,001,7,
logos/3.jpg,properties3.xlsx,frogs/ab24.jpg,0,0,400,l,0,3,3,2,0,61,61,23,,,['l'],0,[0.350312405600107],2018_Jul_09_1122,60.1000064962,go-nogo,001,7,
logos/3.jpg,properties3.xlsx,frogs/ab4.jpg,0,0,400,l,0,3,3,2,0,62,62,3,,,['l'],0,[0.11712863328284584],2018_Jul_09_1122,60.1000064962,go-nogo,001,7,
logos/3.jpg,properties3.xlsx,frogs/ab3.jpg,0,0,400,l,0,3,3,2,0,63,63,2,,,['l'],0,[0.4005743507123043],2018_Jul_09_1122,60.1000064962,go-nogo,001,7,
logos/3.jpg,properties3.xlsx,frogs/ab21.jpg,0,0,400,l,0,3,3,2,0,64,64,20,,,['l'],0,[0.6500482702631416],2018_Jul_09_1122,60.1000064962,go-nogo,001,7,
logos/3.jpg,properties3.xlsx,frogs/ab69.jpg,0,0,400,l,0,3,3,2,0,65,65,67,,,['l'],0,[0.3336297246974027],2018_Jul_09_1122,60.1000064962,go-nogo,001,7,
logos/3.jpg,properties3.xlsx,frogs/ab9.jpg,0,0,400,l,0,3,3,2,0,66,66,8,,,['l'],0,[0.6332301936899967],2018_Jul_09_1122,60.1000064962,go-nogo,001,7,
logos/3.jpg,properties3.xlsx,frogs/ab31.jpg,0,0,400,l,0,3,3,2,0,67,67,30,,,['l'],0,[0.7503337958405609],2018_Jul_09_1122,60.1000064962,go-nogo,001,7,
logos/3.jpg,properties3.xlsx,frogs/ab50.jpg,0,0,400,l,0,3,3,2,0,68,68,49,,,['l'],0,[0.7342899777049752],2018_Jul_09_1122,60.1000064962,go-nogo,001,7,
logos/3.jpg,properties3.xlsx,frogs/ab66.jpg,0,0,400,l,0,3,3,2,0,69,69,64,,,['l'],0,[0.45031234871112247],2018_Jul_09_1122,60.1000064962,go-nogo,001,7,
logos/3.jpg,properties3.xlsx,frogs/ab10.jpg,0,0,400,l,0,3,3,2,0,70,70,9,,,['l'],0,[0.36719988667709913],2018_Jul_09_1122,60.1000064962,go-nogo,001,7,
logos/3.jpg,properties3.xlsx,frogs/ab39.jpg,0,0,400,l,0,3,3,2,0,71,71,38,,,['l'],0,[0.5171119079354867],2018_Jul_09_1122,60.1000064962,go-nogo,001,7,
logos/3.jpg,properties3.xlsx,frogs/ab29.jpg,0,0,400,l,0,3,3,2,0,72,72,28,,,['l'],0,[0.3835588695255865],2018_Jul_09_1122,60.1000064962,go-nogo,001,7,
logos/3.jpg,properties3.xlsx,frogs/ab72.jpg,0,0,400,l,0,3,3,2,0,73,73,70,,,['l'],0,[0.3832607714934966],2018_Jul_09_1122,60.1000064962,go-nogo,001,7,
logos/3.jpg,properties3.xlsx,frogs/ab34.jpg,0,0,400,l,0,3,3,2,0,74,74,33,,,['l'],0,[0.33375943147484577],2018_Jul_09_1122,60.1000064962,go-nogo,001,7,
logos/3.jpg,properties3.xlsx,frogs/ab81.jpg,0,0,400,l,0,3,3,2,0,75,75,79,,,['l'],0,[0.3334163911822543],2018_Jul_09_1122,60.1000064962,go-nogo,001,7,
logos/3.jpg,properties3.xlsx,frogs/ab56.jpg,0,0,400,l,0,3,3,2,0,76,76,55,,,['l'],0,[0.40060336407077557],2018_Jul_09_1122,60.1000064962,go-nogo,001,7,
logos/3.jpg,properties3.xlsx,logos/3.jpg,0,0,400,a,0,3,3,2,0,77,77,83,,,['a'],0,[0.05070624771360599],2018_Jul_09_1122,60.1000064962,go-nogo,001,7,
logos/3.jpg,properties3.xlsx,frogs/ab78.jpg,0,0,400,l,0,3,3,2,0,78,78,76,,,['l'],0,[0.30053856757058384],2018_Jul_09_1122,60.1000064962,go-nogo,001,7,
logos/3.jpg,properties3.xlsx,frogs/ab38.jpg,0,0,400,l,0,3,3,2,0,79,79,37,,,['l'],0,[0.41722688047821066],2018_Jul_09_1122,60.1000064962,go-nogo,001,7,
logos/3.jpg,properties3.xlsx,frogs/ab64.jpg,0,0,400,l,0,3,3,2,0,80,80,62,,,['l'],0,[0.350472832403284],2018_Jul_09_1122,60.1000064962,go-nogo,001,7,
logos/3.jpg,properties3.xlsx,frogs/ab67.jpg,0,0,400,l,0,3,3,2,0,81,81,65,,,['l'],0,[0.13354905618416524],2018_Jul_09_1122,60.1000064962,go-nogo,001,7,
logos/3.jpg,properties3.xlsx,frogs/ab25.jpg,0,0,400,l,0,3,3,2,0,82,82,24,,,['l'],0,[0.3669086153176977],2018_Jul_09_1122,60.1000064962,go-nogo,001,7,
logos/3.jpg,properties3.xlsx,frogs/ab44.jpg,0,0,400,l,0,3,3,2,0,83,83,43,,,['l'],0,[0.23364457270963612],2018_Jul_09_1122,60.1000064962,go-nogo,001,7,
logos/3.jpg,properties3.xlsx,frogs/ab53.jpg,0,0,400,l,0,3,3,2,0,84,84,52,,,['l'],0,[0.16704583143473428],2018_Jul_09_1122,60.1000064962,go-nogo,001,7,
logos/3.jpg,properties3.xlsx,frogs/ab77.jpg,0,0,400,l,0,3,3,2,0,85,85,75,,,['l'],0,[0.2672699169588668],2018_Jul_09_1122,60.1000064962,go-nogo,001,7,
logos/3.jpg,properties3.xlsx,frogs/ab17.jpg,0,0,400,l,0,3,3,2,0,86,86,16,,,['l'],0,[0.26694963224144885],2018_Jul_09_1122,60.1000064962,go-nogo,001,7,
logos/3.jpg,properties3.xlsx,frogs/ab40.jpg,0,0,400,l,0,3,3,2,0,87,87,39,,,['l'],0,[0.16704583143473428],2018_Jul_09_1122,60.1000064962,go-nogo,001,7,
logos/3.jpg,properties3.xlsx,frogs/ab18.jpg,0,0,400,l,0,3,3,2,0,88,88,17,,,['l'],0,[0.2337355950098754],2018_Jul_09_1122,60.1000064962,go-nogo,001,7,
logos/3.jpg,properties3.xlsx,frogs/ab14.jpg,0,0,400,l,0,3,3,2,0,89,89,13,,,['l'],0,[0.050565732038194255],2018_Jul_09_1122,60.1000064962,go-nogo,001,7,
logos/3.jpg,properties3.xlsx,,,,,,0,3,3,2,,,,,,,,,,2018_Jul_09_1122,60.1000064962,go-nogo,001,7,
