pix,source,image1,x,y,size,answer,trials_2.thisRepN,trials_2.thisTrialN,trials_2.thisN,trials_2.thisIndex,trials.thisRepN,trials.thisTrialN,trials.thisN,trials.thisIndex,key_resp_3.keys,key_resp_3.rt,key_resp_2.keys,key_resp_2.corr,key_resp_2.rt,date,frameRate,expName,session,participant,
logos/2.jpg,properties2.xlsx,frogs/ab39.jpg,0,0,400,l,0,0,0,1,0,0,0,38,space,39.5638148811,['l'],0,[1.2502550046619945],2018_Jul_09_1135,60.0283782399,go-nogo,001,8,
logos/2.jpg,properties2.xlsx,frogs/ab52.jpg,0,0,400,l,0,0,0,1,0,1,1,51,,,['l'],0,[2.13239989964859],2018_Jul_09_1135,60.0283782399,go-nogo,001,8,
logos/2.jpg,properties2.xlsx,frogs/ab19.jpg,0,0,400,l,0,0,0,1,0,2,2,18,,,['l'],0,[2.000022186685783],2018_Jul_09_1135,60.0283782399,go-nogo,001,8,
logos/2.jpg,properties2.xlsx,logos/2.jpg,0,0,400,a,0,0,0,1,0,3,3,87,,,['a'],0,[0.1673211738916507],2018_Jul_09_1135,60.0283782399,go-nogo,001,8,
logos/2.jpg,properties2.xlsx,logos/2.jpg,0,0,400,a,0,0,0,1,0,4,4,83,,,['a'],0,[2.0832467199261373],2018_Jul_09_1135,60.0283782399,go-nogo,001,8,
logos/2.jpg,properties2.xlsx,logos/2.jpg,0,0,400,a,0,0,0,1,0,5,5,82,,,['a'],0,[0.5999313919419365],2018_Jul_09_1135,60.0283782399,go-nogo,001,8,
logos/2.jpg,properties2.xlsx,logos/2.jpg,0,0,400,a,0,0,0,1,0,6,6,80,,,['a'],0,[2.416344533058691],2018_Jul_09_1135,60.0283782399,go-nogo,001,8,
logos/2.jpg,properties2.xlsx,frogs/ab48.jpg,0,0,400,l,0,0,0,1,0,7,7,47,,,['l'],0,[0.4176160008100851],2018_Jul_09_1135,60.0283782399,go-nogo,001,8,
logos/2.jpg,properties2.xlsx,frogs/ab53.jpg,0,0,400,l,0,0,0,1,0,8,8,52,,,['l'],0,[0.38371758966059133],2018_Jul_09_1135,60.0283782399,go-nogo,001,8,
logos/2.jpg,properties2.xlsx,frogs/ab76.jpg,0,0,400,l,0,0,0,1,0,9,9,74,,,['l'],0,[0.5341501446964685],2018_Jul_09_1135,60.0283782399,go-nogo,001,8,
logos/2.jpg,properties2.xlsx,frogs/ab81.jpg,0,0,400,l,0,0,0,1,0,10,10,79,,,['l'],0,[0.38508235527024226],2018_Jul_09_1135,60.0283782399,go-nogo,001,8,
logos/2.jpg,properties2.xlsx,frogs/ab62.jpg,0,0,400,l,0,0,0,1,0,11,11,60,,,['l'],0,[0.38434621242049616],2018_Jul_09_1135,60.0283782399,go-nogo,001,8,
logos/2.jpg,properties2.xlsx,frogs/ab24.jpg,0,0,400,l,0,0,0,1,0,12,12,23,,,['l'],0,[0.43420822830194084],2018_Jul_09_1135,60.0283782399,go-nogo,001,8,
logos/2.jpg,properties2.xlsx,logos/2.jpg,0,0,400,a,0,0,0,1,0,13,13,84,,,['a'],0,[0.4175960896818651],2018_Jul_09_1135,60.0283782399,go-nogo,001,8,
logos/2.jpg,properties2.xlsx,frogs/ab50.jpg,0,0,400,l,0,0,0,1,0,14,14,49,,,['l'],0,[0.3509302194606789],2018_Jul_09_1135,60.0283782399,go-nogo,001,8,
logos/2.jpg,properties2.xlsx,frogs/ab25.jpg,0,0,400,l,0,0,0,1,0,15,15,24,,,['l'],0,[0.3509552505929605],2018_Jul_09_1135,60.0283782399,go-nogo,001,8,
logos/2.jpg,properties2.xlsx,frogs/ab2.jpg,0,0,400,l,0,0,0,1,0,16,16,1,,,['l'],0,[0.3508534193952073],2018_Jul_09_1135,60.0283782399,go-nogo,001,8,
logos/2.jpg,properties2.xlsx,frogs/ab74.jpg,0,0,400,l,0,0,0,1,0,17,17,72,,,['l'],0,[0.38424836344802316],2018_Jul_09_1135,60.0283782399,go-nogo,001,8,
logos/2.jpg,properties2.xlsx,frogs/ab67.jpg,0,0,400,l,0,0,0,1,0,18,18,65,,,['l'],0,[0.3841175188908892],2018_Jul_09_1135,60.0283782399,go-nogo,001,8,
logos/2.jpg,properties2.xlsx,logos/2.jpg,0,0,400,a,0,0,0,1,0,19,19,89,,,['a'],0,[0.3509097394426135],2018_Jul_09_1135,60.0283782399,go-nogo,001,8,
logos/2.jpg,properties2.xlsx,frogs/ab23.jpg,0,0,400,l,0,0,0,1,0,20,20,22,,,['l'],0,[0.4506980557061979],2018_Jul_09_1135,60.0283782399,go-nogo,001,8,
logos/2.jpg,properties2.xlsx,frogs/ab31.jpg,0,0,400,l,0,0,0,1,0,21,21,30,,,['l'],0,[0.4173338316804802],2018_Jul_09_1135,60.0283782399,go-nogo,001,8,
logos/2.jpg,properties2.xlsx,frogs/ab32.jpg,0,0,400,l,0,0,0,1,0,22,22,31,,,['l'],0,[0.4006522885565573],2018_Jul_09_1135,60.0283782399,go-nogo,001,8,
logos/2.jpg,properties2.xlsx,frogs/ab28.jpg,0,0,400,l,0,0,0,1,0,23,23,27,,,['l'],0,[0.3175022798241116],2018_Jul_09_1135,60.0283782399,go-nogo,001,8,
logos/2.jpg,properties2.xlsx,frogs/ab17.jpg,0,0,400,l,0,0,0,1,0,24,24,16,,,['l'],0,[0.30070411437827715],2018_Jul_09_1135,60.0283782399,go-nogo,001,8,
logos/2.jpg,properties2.xlsx,frogs/ab27.jpg,0,0,400,l,0,0,0,1,0,25,25,26,,,['l'],0,[0.4674552611177205],2018_Jul_09_1135,60.0283782399,go-nogo,001,8,
logos/2.jpg,properties2.xlsx,frogs/ab55.jpg,0,0,400,l,0,0,0,1,0,26,26,54,,,['l'],0,[0.35068957925523137],2018_Jul_09_1135,60.0283782399,go-nogo,001,8,
logos/2.jpg,properties2.xlsx,frogs/ab12.jpg,0,0,400,l,0,0,0,1,0,27,27,11,,,['l'],0,[0.4675258033994396],2018_Jul_09_1135,60.0283782399,go-nogo,001,8,
logos/2.jpg,properties2.xlsx,frogs/ab80.jpg,0,0,400,l,0,0,0,1,0,28,28,78,,,['l'],0,[0.4673591188129649],2018_Jul_09_1135,60.0283782399,go-nogo,001,8,
logos/2.jpg,properties2.xlsx,frogs/ab15.jpg,0,0,400,l,0,0,0,1,0,29,29,14,,,['l'],0,[0.4674791544712207],2018_Jul_09_1135,60.0283782399,go-nogo,001,8,
logos/2.jpg,properties2.xlsx,frogs/ab70.jpg,0,0,400,l,0,0,0,1,0,30,30,68,,,['l'],0,[0.4007097463836544],2018_Jul_09_1135,60.0283782399,go-nogo,001,8,
logos/2.jpg,properties2.xlsx,frogs/ab38.jpg,0,0,400,l,0,0,0,1,0,31,31,37,,,['l'],0,[0.3841840789482376],2018_Jul_09_1135,60.0283782399,go-nogo,001,8,
logos/2.jpg,properties2.xlsx,frogs/ab37.jpg,0,0,400,l,0,0,0,1,0,32,32,36,,,['l'],0,[0.48415045758611086],2018_Jul_09_1135,60.0283782399,go-nogo,001,8,
logos/2.jpg,properties2.xlsx,frogs/ab51.jpg,0,0,400,l,0,0,0,1,0,33,33,50,,,['l'],0,[0.35012467210617615],2018_Jul_09_1135,60.0283782399,go-nogo,001,8,
logos/2.jpg,properties2.xlsx,frogs/ab73.jpg,0,0,400,l,0,0,0,1,0,34,34,71,,,['l'],0,[0.5507571633124826],2018_Jul_09_1135,60.0283782399,go-nogo,001,8,
logos/2.jpg,properties2.xlsx,logos/2.jpg,0,0,400,a,0,0,0,1,0,35,35,86,,,['a'],0,[0.5341114602197194],2018_Jul_09_1135,60.0283782399,go-nogo,001,8,
logos/2.jpg,properties2.xlsx,frogs/ab42.jpg,0,0,400,l,0,0,0,1,0,36,36,41,,,['l'],0,[0.3844747814182483],2018_Jul_09_1135,60.0283782399,go-nogo,001,8,
logos/2.jpg,properties2.xlsx,frogs/ab3.jpg,0,0,400,l,0,0,0,1,0,37,37,2,,,['l'],0,[0.4008286442622193],2018_Jul_09_1135,60.0283782399,go-nogo,001,8,
logos/2.jpg,properties2.xlsx,frogs/ab16.jpg,0,0,400,l,0,0,0,1,0,38,38,15,,,['l'],0,[0.4678597414622345],2018_Jul_09_1135,60.0283782399,go-nogo,001,8,
logos/2.jpg,properties2.xlsx,frogs/ab21.jpg,0,0,400,l,0,0,0,1,0,39,39,20,,,['l'],0,[0.4001175325447548],2018_Jul_09_1135,60.0283782399,go-nogo,001,8,
logos/2.jpg,properties2.xlsx,frogs/ab40.jpg,0,0,400,l,0,0,0,1,0,40,40,39,,,['l'],0,[0.45103938933152676],2018_Jul_09_1135,60.0283782399,go-nogo,001,8,
logos/2.jpg,properties2.xlsx,frogs/ab43.jpg,0,0,400,l,0,0,0,1,0,41,41,42,,,['l'],0,[0.5007466673032468],2018_Jul_09_1135,60.0283782399,go-nogo,001,8,
logos/2.jpg,properties2.xlsx,frogs/ab36.jpg,0,0,400,l,0,0,0,1,0,42,42,35,,,['l'],0,[0.4508704291865797],2018_Jul_09_1135,60.0283782399,go-nogo,001,8,
logos/2.jpg,properties2.xlsx,frogs/ab30.jpg,0,0,400,l,0,0,0,1,0,43,43,29,,,['l'],0,[0.5506570387824468],2018_Jul_09_1135,60.0283782399,go-nogo,001,8,
logos/2.jpg,properties2.xlsx,frogs/ab77.jpg,0,0,400,l,0,0,0,1,0,44,44,75,,,['l'],0,[0.9837633283668765],2018_Jul_09_1135,60.0283782399,go-nogo,001,8,
logos/2.jpg,properties2.xlsx,frogs/ab63.jpg,0,0,400,l,0,0,0,1,0,45,45,61,,,['l'],0,[0.38413344779382896],2018_Jul_09_1135,60.0283782399,go-nogo,001,8,
logos/2.jpg,properties2.xlsx,frogs/ab54.jpg,0,0,400,l,0,0,0,1,0,46,46,53,,,['l'],0,[0.3009669412695075],2018_Jul_09_1135,60.0283782399,go-nogo,001,8,
logos/2.jpg,properties2.xlsx,frogs/ab58.jpg,0,0,400,l,0,0,0,1,0,47,47,57,,,['l'],0,[0.40073420862700004],2018_Jul_09_1135,60.0283782399,go-nogo,001,8,
logos/2.jpg,properties2.xlsx,frogs/ab29.jpg,0,0,400,l,0,0,0,1,0,48,48,28,,,['l'],0,[0.40093388879631675],2018_Jul_09_1135,60.0283782399,go-nogo,001,8,
logos/2.jpg,properties2.xlsx,frogs/ab45.jpg,0,0,400,l,0,0,0,1,0,49,49,44,,,['l'],0,[0.3841209322281429],2018_Jul_09_1135,60.0283782399,go-nogo,001,8,
logos/2.jpg,properties2.xlsx,logos/2.jpg,0,0,400,a,0,0,0,1,0,50,50,88,,,['a'],0,[0.41682410680095927],2018_Jul_09_1135,60.0283782399,go-nogo,001,8,
logos/2.jpg,properties2.xlsx,frogs/ab34.jpg,0,0,400,l,0,0,0,1,0,51,51,33,,,['l'],0,[0.4675138567226895],2018_Jul_09_1135,60.0283782399,go-nogo,001,8,
logos/2.jpg,properties2.xlsx,frogs/ab10.jpg,0,0,400,l,0,0,0,1,0,52,52,9,,,['l'],0,[0.3861569872988184],2018_Jul_09_1135,60.0283782399,go-nogo,001,8,
logos/2.jpg,properties2.xlsx,frogs/ab64.jpg,0,0,400,l,0,0,0,1,0,53,53,62,,,['l'],0,[0.534170055825598],2018_Jul_09_1135,60.0283782399,go-nogo,001,8,
logos/2.jpg,properties2.xlsx,frogs/ab72.jpg,0,0,400,l,0,0,0,1,0,54,54,70,,,['l'],0,[0.38419375006742484],2018_Jul_09_1135,60.0283782399,go-nogo,001,8,
logos/2.jpg,properties2.xlsx,frogs/ab57.jpg,0,0,400,l,0,0,0,1,0,55,55,56,,,['l'],0,[0.4008024753520658],2018_Jul_09_1135,60.0283782399,go-nogo,001,8,
logos/2.jpg,properties2.xlsx,frogs/ab75.jpg,0,0,400,l,0,0,0,1,0,56,56,73,,,['l'],0,[0.4673039365443401],2018_Jul_09_1135,60.0283782399,go-nogo,001,8,
logos/2.jpg,properties2.xlsx,frogs/ab9.jpg,0,0,400,l,0,0,0,1,0,57,57,8,,,['l'],0,[0.4172428093797862],2018_Jul_09_1135,60.0283782399,go-nogo,001,8,
logos/2.jpg,properties2.xlsx,frogs/ab61.jpg,0,0,400,l,0,0,0,1,0,58,58,59,,,['l'],0,[0.35008029873552005],2018_Jul_09_1135,60.0283782399,go-nogo,001,8,
logos/2.jpg,properties2.xlsx,frogs/ab33.jpg,0,0,400,l,0,0,0,1,0,59,59,32,,,['l'],0,[0.4000782791772508],2018_Jul_09_1135,60.0283782399,go-nogo,001,8,
logos/2.jpg,properties2.xlsx,frogs/ab26.jpg,0,0,400,l,0,0,0,1,0,60,60,25,,,['l'],0,[0.46748996336918935],2018_Jul_09_1135,60.0283782399,go-nogo,001,8,
logos/2.jpg,properties2.xlsx,logos/2.jpg,0,0,400,a,0,0,0,1,0,61,61,85,,,['a'],0,[0.8005980165107758],2018_Jul_09_1135,60.0283782399,go-nogo,001,8,
logos/2.jpg,properties2.xlsx,frogs/ab56.jpg,0,0,400,l,0,0,0,1,0,62,62,55,,,['l'],0,[0.5344158160351071],2018_Jul_09_1135,60.0283782399,go-nogo,001,8,
logos/2.jpg,properties2.xlsx,frogs/ab44.jpg,0,0,400,l,0,0,0,1,0,63,63,43,,,['l'],0,[0.4342503261159436],2018_Jul_09_1135,60.0283782399,go-nogo,001,8,
logos/2.jpg,properties2.xlsx,frogs/ab4.jpg,0,0,400,l,0,0,0,1,0,64,64,3,,,['l'],0,[0.4673722032694059],2018_Jul_09_1135,60.0283782399,go-nogo,001,8,
logos/2.jpg,properties2.xlsx,frogs/ab6.jpg,0,0,400,l,0,0,0,1,0,65,65,5,,,['l'],0,[0.6339606476458357],2018_Jul_09_1135,60.0283782399,go-nogo,001,8,
logos/2.jpg,properties2.xlsx,frogs/ab41.jpg,0,0,400,l,0,0,0,1,0,66,66,40,,,['l'],0,[0.3840987455423601],2018_Jul_09_1135,60.0283782399,go-nogo,001,8,
logos/2.jpg,properties2.xlsx,frogs/ab79.jpg,0,0,400,l,0,0,0,1,0,67,67,77,,,['l'],0,[0.3339801605516186],2018_Jul_09_1135,60.0283782399,go-nogo,001,8,
logos/2.jpg,properties2.xlsx,frogs/ab1.jpg,0,0,400,l,0,0,0,1,0,68,68,0,,,['l'],0,[0.350661703676451],2018_Jul_09_1135,60.0283782399,go-nogo,001,8,
logos/2.jpg,properties2.xlsx,frogs/ab35.jpg,0,0,400,l,0,0,0,1,0,69,69,34,,,['l'],0,[0.6173405445751996],2018_Jul_09_1135,60.0283782399,go-nogo,001,8,
logos/2.jpg,properties2.xlsx,frogs/ab22.jpg,0,0,400,l,0,0,0,1,0,70,70,21,,,['l'],0,[0.3508056326872975],2018_Jul_09_1135,60.0283782399,go-nogo,001,8,
logos/2.jpg,properties2.xlsx,frogs/ab71.jpg,0,0,400,l,0,0,0,1,0,71,71,69,,,['l'],0,[0.31849100955696485],2018_Jul_09_1135,60.0283782399,go-nogo,001,8,
logos/2.jpg,properties2.xlsx,frogs/ab46.jpg,0,0,400,l,0,0,0,1,0,72,72,45,,,['l'],0,[0.25099228529143147],2018_Jul_09_1135,60.0283782399,go-nogo,001,8,
logos/2.jpg,properties2.xlsx,frogs/ab66.jpg,0,0,400,l,0,0,0,1,0,73,73,64,,,['l'],0,[0.3504278901427824],2018_Jul_09_1135,60.0283782399,go-nogo,001,8,
logos/2.jpg,properties2.xlsx,frogs/ab69.jpg,0,0,400,l,0,0,0,1,0,74,74,67,,,['l'],0,[0.3173117018832272],2018_Jul_09_1135,60.0283782399,go-nogo,001,8,
logos/2.jpg,properties2.xlsx,logos/2.jpg,0,0,400,a,0,0,0,1,0,75,75,81,,,['a'],0,[0.48430064438161935],2018_Jul_09_1135,60.0283782399,go-nogo,001,8,
logos/2.jpg,properties2.xlsx,frogs/ab18.jpg,0,0,400,l,0,0,0,1,0,76,76,17,,,['l'],0,[0.2336747238468888],2018_Jul_09_1135,60.0283782399,go-nogo,001,8,
logos/2.jpg,properties2.xlsx,frogs/ab49.jpg,0,0,400,l,0,0,0,1,0,77,77,48,,,['l'],0,[0.3341132806654059],2018_Jul_09_1135,60.0283782399,go-nogo,001,8,
logos/2.jpg,properties2.xlsx,frogs/ab60.jpg,0,0,400,l,0,0,0,1,0,78,78,58,,,['l'],0,[0.3008611278455646],2018_Jul_09_1135,60.0283782399,go-nogo,001,8,
logos/2.jpg,properties2.xlsx,frogs/ab68.jpg,0,0,400,l,0,0,0,1,0,79,79,66,,,['l'],0,[0.5339857356675566],2018_Jul_09_1135,60.0283782399,go-nogo,001,8,
logos/2.jpg,properties2.xlsx,frogs/ab5.jpg,0,0,400,l,0,0,0,1,0,80,80,4,,,['l'],0,[0.4675269411791305],2018_Jul_09_1135,60.0283782399,go-nogo,001,8,
logos/2.jpg,properties2.xlsx,frogs/ab7.jpg,0,0,400,l,0,0,0,1,0,81,81,6,,,['l'],0,[0.35093249501824175],2018_Jul_09_1135,60.0283782399,go-nogo,001,8,
logos/2.jpg,properties2.xlsx,frogs/ab13.jpg,0,0,400,l,0,0,0,1,0,82,82,12,,,['l'],0,[0.28434228708374576],2018_Jul_09_1135,60.0283782399,go-nogo,001,8,
logos/2.jpg,properties2.xlsx,frogs/ab20.jpg,0,0,400,l,0,0,0,1,0,83,83,19,,,['l'],0,[0.35096264615458495],2018_Jul_09_1135,60.0283782399,go-nogo,001,8,
logos/2.jpg,properties2.xlsx,frogs/ab8.jpg,0,0,400,l,0,0,0,1,0,84,84,7,,,['l'],0,[0.3175455154168958],2018_Jul_09_1135,60.0283782399,go-nogo,001,8,
logos/2.jpg,properties2.xlsx,frogs/ab65.jpg,0,0,400,l,0,0,0,1,0,85,85,63,,,['l'],0,[0.4674984967095952],2018_Jul_09_1135,60.0283782399,go-nogo,001,8,
logos/2.jpg,properties2.xlsx,frogs/ab14.jpg,0,0,400,l,0,0,0,1,0,86,86,13,,,['l'],0,[0.5841378851309855],2018_Jul_09_1135,60.0283782399,go-nogo,001,8,
logos/2.jpg,properties2.xlsx,frogs/ab78.jpg,0,0,400,l,0,0,0,1,0,87,87,76,,,['l'],0,[0.3841800967220479],2018_Jul_09_1135,60.0283782399,go-nogo,001,8,
logos/2.jpg,properties2.xlsx,frogs/ab47.jpg,0,0,400,l,0,0,0,1,0,88,88,46,,,['l'],0,[0.4341240326748448],2018_Jul_09_1135,60.0283782399,go-nogo,001,8,
logos/2.jpg,properties2.xlsx,frogs/ab11.jpg,0,0,400,l,0,0,0,1,0,89,89,10,,,['l'],0,[0.4508419847188634],2018_Jul_09_1135,60.0283782399,go-nogo,001,8,
logos/2.jpg,properties2.xlsx,,,,,,0,0,0,1,,,,,,,,,,2018_Jul_09_1135,60.0283782399,go-nogo,001,8,
logos/1.jpg,properties1.xlsx,frogs/ab26.jpg,0,0,400,l,0,1,1,0,0,0,0,25,space,18.7965913286,['l'],0,[0.20071953128081077],2018_Jul_09_1135,60.0283782399,go-nogo,001,8,
logos/1.jpg,properties1.xlsx,frogs/ab55.jpg,0,0,400,l,0,1,1,0,0,1,1,54,,,['l'],0,[0.7008466780553135],2018_Jul_09_1135,60.0283782399,go-nogo,001,8,
logos/1.jpg,properties1.xlsx,frogs/ab68.jpg,0,0,400,l,0,1,1,0,0,2,2,66,,,['l'],0,[0.10234319844403217],2018_Jul_09_1135,60.0283782399,go-nogo,001,8,
logos/1.jpg,properties1.xlsx,frogs/ab12.jpg,0,0,400,l,0,1,1,0,0,3,3,11,,,['l'],0,[0.0676693910781978],2018_Jul_09_1135,60.0283782399,go-nogo,001,8,
logos/1.jpg,properties1.xlsx,frogs/ab46.jpg,0,0,400,l,0,1,1,0,0,4,4,45,,,['l'],0,[0.10099493062625697],2018_Jul_09_1135,60.0283782399,go-nogo,001,8,
logos/1.jpg,properties1.xlsx,frogs/ab70.jpg,0,0,400,l,0,1,1,0,0,5,5,68,,,['l'],0,[0.0675846265612563],2018_Jul_09_1135,60.0283782399,go-nogo,001,8,
logos/1.jpg,properties1.xlsx,frogs/ab2.jpg,0,0,400,l,0,1,1,0,0,6,6,1,,,['l'],0,[0.9504906955298793],2018_Jul_09_1135,60.0283782399,go-nogo,001,8,
logos/1.jpg,properties1.xlsx,frogs/ab60.jpg,0,0,400,l,0,1,1,0,0,7,7,58,,,['l'],0,[0.334151396253219],2018_Jul_09_1135,60.0283782399,go-nogo,001,8,
logos/1.jpg,properties1.xlsx,frogs/ab65.jpg,0,0,400,l,0,1,1,0,0,8,8,63,,,['l'],0,[0.20102900710026006],2018_Jul_09_1135,60.0283782399,go-nogo,001,8,
logos/1.jpg,properties1.xlsx,frogs/ab77.jpg,0,0,400,l,0,1,1,0,0,9,9,75,,,['l'],0,[0.7505585071430687],2018_Jul_09_1135,60.0283782399,go-nogo,001,8,
logos/1.jpg,properties1.xlsx,logos/1.jpg,0,0,400,a,0,1,1,0,0,10,10,81,,,['a'],0,[0.43391809472086607],2018_Jul_09_1135,60.0283782399,go-nogo,001,8,
logos/1.jpg,properties1.xlsx,frogs/ab57.jpg,0,0,400,l,0,1,1,0,0,11,11,56,,,['l'],0,[0.1840089747984166],2018_Jul_09_1135,60.0283782399,go-nogo,001,8,
logos/1.jpg,properties1.xlsx,frogs/ab52.jpg,0,0,400,l,0,1,1,0,0,12,12,51,,,['l'],0,[0.8165525190133849],2018_Jul_09_1135,60.0283782399,go-nogo,001,8,
logos/1.jpg,properties1.xlsx,frogs/ab74.jpg,0,0,400,l,0,1,1,0,0,13,13,72,,,['l'],0,[0.334190649620723],2018_Jul_09_1135,60.0283782399,go-nogo,001,8,
logos/1.jpg,properties1.xlsx,frogs/ab14.jpg,0,0,400,l,0,1,1,0,0,14,14,13,,,['l'],0,[0.8673076912136821],2018_Jul_09_1135,60.0283782399,go-nogo,001,8,
logos/1.jpg,properties1.xlsx,frogs/ab20.jpg,0,0,400,l,0,1,1,0,0,15,15,19,,,['l'],0,[0.23423792432731716],2018_Jul_09_1135,60.0283782399,go-nogo,001,8,
logos/1.jpg,properties1.xlsx,frogs/ab10.jpg,0,0,400,l,0,1,1,0,0,16,16,9,,,['l'],0,[0.2837881888326592],2018_Jul_09_1135,60.0283782399,go-nogo,001,8,
logos/1.jpg,properties1.xlsx,frogs/ab42.jpg,0,0,400,l,0,1,1,0,0,17,17,41,,,['l'],0,[0.36737282904687163],2018_Jul_09_1135,60.0283782399,go-nogo,001,8,
logos/1.jpg,properties1.xlsx,frogs/ab28.jpg,0,0,400,l,0,1,1,0,0,18,18,27,,,['l'],0,[0.40082579981572053],2018_Jul_09_1135,60.0283782399,go-nogo,001,8,
logos/1.jpg,properties1.xlsx,frogs/ab19.jpg,0,0,400,l,0,1,1,0,0,19,19,18,,,['l'],0,[0.584099200653327],2018_Jul_09_1135,60.0283782399,go-nogo,001,8,
logos/1.jpg,properties1.xlsx,frogs/ab43.jpg,0,0,400,l,0,1,1,0,0,20,20,42,,,['l'],0,[1.2496235374565003],2018_Jul_09_1135,60.0283782399,go-nogo,001,8,
logos/1.jpg,properties1.xlsx,logos/1.jpg,0,0,400,a,0,1,1,0,0,21,21,87,,,['a'],0,[0.4008741554125663],2018_Jul_09_1135,60.0283782399,go-nogo,001,8,
logos/1.jpg,properties1.xlsx,frogs/ab33.jpg,0,0,400,l,0,1,1,0,0,22,22,32,,,['l'],0,[0.13417312782803492],2018_Jul_09_1135,60.0283782399,go-nogo,001,8,
logos/1.jpg,properties1.xlsx,frogs/ab51.jpg,0,0,400,l,0,1,1,0,0,23,23,50,,,['l'],0,[0.3840310477071398],2018_Jul_09_1135,60.0283782399,go-nogo,001,8,
logos/1.jpg,properties1.xlsx,frogs/ab47.jpg,0,0,400,l,0,1,1,0,0,24,24,46,,,['l'],0,[0.46753035451547476],2018_Jul_09_1135,60.0283782399,go-nogo,001,8,
logos/1.jpg,properties1.xlsx,logos/1.jpg,0,0,400,a,0,1,1,0,0,25,25,86,,,['a'],0,[0.45061784230529156],2018_Jul_09_1135,60.0283782399,go-nogo,001,8,
logos/1.jpg,properties1.xlsx,frogs/ab3.jpg,0,0,400,l,0,1,1,0,0,26,26,2,,,['l'],0,[1.2336542438288234],2018_Jul_09_1135,60.0283782399,go-nogo,001,8,
logos/1.jpg,properties1.xlsx,logos/1.jpg,0,0,400,a,0,1,1,0,0,27,27,88,,,['a'],0,[0.4333930098291603],2018_Jul_09_1135,60.0283782399,go-nogo,001,8,
logos/1.jpg,properties1.xlsx,frogs/ab31.jpg,0,0,400,l,0,1,1,0,0,28,28,30,,,['l'],0,[0.11785396723553276],2018_Jul_09_1135,60.0283782399,go-nogo,001,8,
logos/1.jpg,properties1.xlsx,logos/1.jpg,0,0,400,a,0,1,1,0,0,29,29,89,,,['a'],0,[0.750684800585077],2018_Jul_09_1135,60.0283782399,go-nogo,001,8,
logos/1.jpg,properties1.xlsx,frogs/ab56.jpg,0,0,400,l,0,1,1,0,0,30,30,55,,,['l'],0,[1.3002137317380402],2018_Jul_09_1135,60.0283782399,go-nogo,001,8,
logos/1.jpg,properties1.xlsx,frogs/ab58.jpg,0,0,400,l,0,1,1,0,0,31,31,57,,,['l'],0,[1.2670690990098592],2018_Jul_09_1135,60.0283782399,go-nogo,001,8,
logos/1.jpg,properties1.xlsx,frogs/ab37.jpg,0,0,400,l,0,1,1,0,0,32,32,36,,,['l'],0,[0.334562703271331],2018_Jul_09_1135,60.0283782399,go-nogo,001,8,
logos/1.jpg,properties1.xlsx,frogs/ab5.jpg,0,0,400,l,0,1,1,0,0,33,33,4,,,['l'],0,[0.7839215933909145],2018_Jul_09_1135,60.0283782399,go-nogo,001,8,
logos/1.jpg,properties1.xlsx,logos/1.jpg,0,0,400,a,0,1,1,0,0,34,34,82,,,['a'],0,[0.3009498745877863],2018_Jul_09_1135,60.0283782399,go-nogo,001,8,
logos/1.jpg,properties1.xlsx,frogs/ab16.jpg,0,0,400,l,0,1,1,0,0,35,35,15,,,['l'],0,[1.3837761852664698],2018_Jul_09_1135,60.0283782399,go-nogo,001,8,
logos/1.jpg,properties1.xlsx,frogs/ab81.jpg,0,0,400,l,0,1,1,0,0,36,36,79,,,['l'],0,[0.5840423117160753],2018_Jul_09_1135,60.0283782399,go-nogo,001,8,
logos/1.jpg,properties1.xlsx,frogs/ab22.jpg,0,0,400,l,0,1,1,0,0,37,37,21,,,['l'],0,[1.167062898115546],2018_Jul_09_1135,60.0283782399,go-nogo,001,8,
logos/1.jpg,properties1.xlsx,frogs/ab78.jpg,0,0,400,l,0,1,1,0,0,38,38,76,,,['l'],0,[0.4167649423061448],2018_Jul_09_1135,60.0283782399,go-nogo,001,8,
logos/1.jpg,properties1.xlsx,frogs/ab21.jpg,0,0,400,l,0,1,1,0,0,39,39,20,,,['l'],0,[0.5667958614440067],2018_Jul_09_1135,60.0283782399,go-nogo,001,8,
logos/1.jpg,properties1.xlsx,frogs/ab45.jpg,0,0,400,l,0,1,1,0,0,40,40,44,,,['l'],0,[0.5666212124060621],2018_Jul_09_1135,60.0283782399,go-nogo,001,8,
logos/1.jpg,properties1.xlsx,frogs/ab44.jpg,0,0,400,l,0,1,1,0,0,41,41,43,,,['l'],0,[0.6509385821345859],2018_Jul_09_1135,60.0283782399,go-nogo,001,8,
logos/1.jpg,properties1.xlsx,frogs/ab1.jpg,0,0,400,l,0,1,1,0,0,42,42,0,,,['l'],0,[0.6172773978541954],2018_Jul_09_1135,60.0283782399,go-nogo,001,8,
logos/1.jpg,properties1.xlsx,logos/1.jpg,0,0,400,a,0,1,1,0,0,43,43,80,,,['a'],0,[0.6173650068176357],2018_Jul_09_1135,60.0283782399,go-nogo,001,8,
logos/1.jpg,properties1.xlsx,frogs/ab63.jpg,0,0,400,l,0,1,1,0,0,44,44,61,,,['l'],0,[0.7507581873142044],2018_Jul_09_1135,60.0283782399,go-nogo,001,8,
logos/1.jpg,properties1.xlsx,frogs/ab35.jpg,0,0,400,l,0,1,1,0,0,45,45,34,,,['l'],0,[0.334223076314629],2018_Jul_09_1135,60.0283782399,go-nogo,001,8,
logos/1.jpg,properties1.xlsx,logos/1.jpg,0,0,400,a,0,1,1,0,0,46,46,85,,,['a'],0,[0.4342725128008169],2018_Jul_09_1135,60.0283782399,go-nogo,001,8,
logos/1.jpg,properties1.xlsx,frogs/ab54.jpg,0,0,400,l,0,1,1,0,0,47,47,53,,,['l'],0,[0.35087617496992607],2018_Jul_09_1135,60.0283782399,go-nogo,001,8,
logos/1.jpg,properties1.xlsx,frogs/ab9.jpg,0,0,400,l,0,1,1,0,0,48,48,8,,,['l'],0,[0.3667231573817844],2018_Jul_09_1135,60.0283782399,go-nogo,001,8,
logos/1.jpg,properties1.xlsx,frogs/ab76.jpg,0,0,400,l,0,1,1,0,0,49,49,74,,,['l'],0,[0.8172300662590715],2018_Jul_09_1135,60.0283782399,go-nogo,001,8,
logos/1.jpg,properties1.xlsx,frogs/ab11.jpg,0,0,400,l,0,1,1,0,0,50,50,10,,,['l'],0,[0.3009851457291006],2018_Jul_09_1135,60.0283782399,go-nogo,001,8,
logos/1.jpg,properties1.xlsx,frogs/ab71.jpg,0,0,400,l,0,1,1,0,0,51,51,69,,,['l'],0,[0.8005183719978959],2018_Jul_09_1135,60.0283782399,go-nogo,001,8,
logos/1.jpg,properties1.xlsx,frogs/ab13.jpg,0,0,400,l,0,1,1,0,0,52,52,12,,,['l'],0,[1.0669531593557622],2018_Jul_09_1135,60.0283782399,go-nogo,001,8,
logos/1.jpg,properties1.xlsx,frogs/ab36.jpg,0,0,400,l,0,1,1,0,0,53,53,35,,,['l'],0,[0.4834336569738298],2018_Jul_09_1135,60.0283782399,go-nogo,001,8,
logos/1.jpg,properties1.xlsx,logos/1.jpg,0,0,400,a,0,1,1,0,0,54,54,83,,,['a'],0,[0.3674610068992479],2018_Jul_09_1135,60.0283782399,go-nogo,001,8,
logos/1.jpg,properties1.xlsx,frogs/ab49.jpg,0,0,400,l,0,1,1,0,0,55,55,48,,,['l'],0,[0.41750279182451777],2018_Jul_09_1135,60.0283782399,go-nogo,001,8,
logos/1.jpg,properties1.xlsx,frogs/ab75.jpg,0,0,400,l,0,1,1,0,0,56,56,73,,,['l'],0,[0.36724710449561826],2018_Jul_09_1135,60.0283782399,go-nogo,001,8,
logos/1.jpg,properties1.xlsx,frogs/ab79.jpg,0,0,400,l,0,1,1,0,0,57,57,77,,,['l'],0,[1.1996352281339568],2018_Jul_09_1135,60.0283782399,go-nogo,001,8,
logos/1.jpg,properties1.xlsx,frogs/ab17.jpg,0,0,400,l,0,1,1,0,0,58,58,16,,,['l'],0,[0.9505538422508835],2018_Jul_09_1135,60.0283782399,go-nogo,001,8,
logos/1.jpg,properties1.xlsx,frogs/ab34.jpg,0,0,400,l,0,1,1,0,0,59,59,33,,,['l'],0,[0.4342298460987877],2018_Jul_09_1135,60.0283782399,go-nogo,001,8,
logos/1.jpg,properties1.xlsx,frogs/ab25.jpg,0,0,400,l,0,1,1,0,0,60,60,24,,,['l'],0,[0.567301604097338],2018_Jul_09_1135,60.0283782399,go-nogo,001,8,
logos/1.jpg,properties1.xlsx,frogs/ab23.jpg,0,0,400,l,0,1,1,0,0,61,61,22,,,['l'],0,[0.9669515095765746],2018_Jul_09_1135,60.0283782399,go-nogo,001,8,
logos/1.jpg,properties1.xlsx,frogs/ab72.jpg,0,0,400,l,0,1,1,0,0,62,62,70,,,['l'],0,[0.7504771559624714],2018_Jul_09_1135,60.0283782399,go-nogo,001,8,
logos/1.jpg,properties1.xlsx,frogs/ab32.jpg,0,0,400,l,0,1,1,0,0,63,63,31,,,['l'],0,[0.6314598099561408],2018_Jul_09_1135,60.0283782399,go-nogo,001,8,
logos/1.jpg,properties1.xlsx,frogs/ab6.jpg,0,0,400,l,0,1,1,0,0,64,64,5,,,['l'],0,[0.5841634851531126],2018_Jul_09_1135,60.0283782399,go-nogo,001,8,
logos/1.jpg,properties1.xlsx,frogs/ab66.jpg,0,0,400,l,0,1,1,0,0,65,65,64,,,['l'],0,[1.1002724411209783],2018_Jul_09_1135,60.0283782399,go-nogo,001,8,
logos/1.jpg,properties1.xlsx,frogs/ab73.jpg,0,0,400,l,0,1,1,0,0,66,66,71,,,['l'],0,[0.6173650068185452],2018_Jul_09_1135,60.0283782399,go-nogo,001,8,
logos/1.jpg,properties1.xlsx,frogs/ab7.jpg,0,0,400,l,0,1,1,0,0,67,67,6,,,['l'],0,[0.6171641888686281],2018_Jul_09_1135,60.0283782399,go-nogo,001,8,
logos/1.jpg,properties1.xlsx,logos/1.jpg,0,0,400,a,0,1,1,0,0,68,68,84,,,['a'],0,[1.0171861479984727],2018_Jul_09_1135,60.0283782399,go-nogo,001,8,
logos/1.jpg,properties1.xlsx,frogs/ab38.jpg,0,0,400,l,0,1,1,0,0,69,69,37,,,['l'],0,[0.03432849151613482],2018_Jul_09_1135,60.0283782399,go-nogo,001,8,
logos/1.jpg,properties1.xlsx,frogs/ab18.jpg,0,0,400,l,0,1,1,0,0,70,70,17,,,['l'],0,[0.9339331702894924],2018_Jul_09_1135,60.0283782399,go-nogo,001,8,
logos/1.jpg,properties1.xlsx,frogs/ab62.jpg,0,0,400,l,0,1,1,0,0,71,71,60,,,['l'],0,[0.9830812300069738],2018_Jul_09_1135,60.0283782399,go-nogo,001,8,
logos/1.jpg,properties1.xlsx,frogs/ab27.jpg,0,0,400,l,0,1,1,0,0,72,72,26,,,['l'],0,[0.5840423117160753],2018_Jul_09_1135,60.0283782399,go-nogo,001,8,
logos/1.jpg,properties1.xlsx,frogs/ab8.jpg,0,0,400,l,0,1,1,0,0,73,73,7,,,['l'],0,[0.36753439362928475],2018_Jul_09_1135,60.0283782399,go-nogo,001,8,
logos/1.jpg,properties1.xlsx,frogs/ab48.jpg,0,0,400,l,0,1,1,0,0,74,74,47,,,['l'],0,[0.41749368959517597],2018_Jul_09_1135,60.0283782399,go-nogo,001,8,
logos/1.jpg,properties1.xlsx,frogs/ab67.jpg,0,0,400,l,0,1,1,0,0,75,75,65,,,['l'],0,[0.43415702825859626],2018_Jul_09_1135,60.0283782399,go-nogo,001,8,
logos/1.jpg,properties1.xlsx,frogs/ab4.jpg,0,0,400,l,0,1,1,0,0,76,76,3,,,['l'],0,[0.40078654644912604],2018_Jul_09_1135,60.0283782399,go-nogo,001,8,
logos/1.jpg,properties1.xlsx,frogs/ab30.jpg,0,0,400,l,0,1,1,0,0,77,77,29,,,['l'],0,[0.4007478619714675],2018_Jul_09_1135,60.0283782399,go-nogo,001,8,
logos/1.jpg,properties1.xlsx,frogs/ab15.jpg,0,0,400,l,0,1,1,0,0,78,78,14,,,['l'],0,[0.4167535645183307],2018_Jul_09_1135,60.0283782399,go-nogo,001,8,
logos/1.jpg,properties1.xlsx,frogs/ab40.jpg,0,0,400,l,0,1,1,0,0,79,79,39,,,['l'],0,[0.33346133344275586],2018_Jul_09_1135,60.0283782399,go-nogo,001,8,
logos/1.jpg,properties1.xlsx,frogs/ab29.jpg,0,0,400,l,0,1,1,0,0,80,80,28,,,['l'],0,[0.33425095189431886],2018_Jul_09_1135,60.0283782399,go-nogo,001,8,
logos/1.jpg,properties1.xlsx,frogs/ab69.jpg,0,0,400,l,0,1,1,0,0,81,81,67,,,['l'],0,[0.36673567294837994],2018_Jul_09_1135,60.0283782399,go-nogo,001,8,
logos/1.jpg,properties1.xlsx,frogs/ab61.jpg,0,0,400,l,0,1,1,0,0,82,82,59,,,['l'],0,[0.3675491847525336],2018_Jul_09_1135,60.0283782399,go-nogo,001,8,
logos/1.jpg,properties1.xlsx,frogs/ab80.jpg,0,0,400,l,0,1,1,0,0,83,83,78,,,['l'],0,[0.3509552505929605],2018_Jul_09_1135,60.0283782399,go-nogo,001,8,
logos/1.jpg,properties1.xlsx,frogs/ab64.jpg,0,0,400,l,0,1,1,0,0,84,84,62,,,['l'],0,[0.48407650196713803],2018_Jul_09_1135,60.0283782399,go-nogo,001,8,
logos/1.jpg,properties1.xlsx,frogs/ab39.jpg,0,0,400,l,0,1,1,0,0,85,85,38,,,['l'],0,[0.5507253055075125],2018_Jul_09_1135,60.0283782399,go-nogo,001,8,
logos/1.jpg,properties1.xlsx,frogs/ab50.jpg,0,0,400,l,0,1,1,0,0,86,86,49,,,['l'],0,[0.45081922914323513],2018_Jul_09_1135,60.0283782399,go-nogo,001,8,
logos/1.jpg,properties1.xlsx,frogs/ab41.jpg,0,0,400,l,0,1,1,0,0,87,87,40,,,['l'],0,[0.3843860346760266],2018_Jul_09_1135,60.0283782399,go-nogo,001,8,
logos/1.jpg,properties1.xlsx,frogs/ab53.jpg,0,0,400,l,0,1,1,0,0,88,88,52,,,['l'],0,[0.3999781546481245],2018_Jul_09_1135,60.0283782399,go-nogo,001,8,
logos/1.jpg,properties1.xlsx,frogs/ab24.jpg,0,0,400,l,0,1,1,0,0,89,89,23,,,['l'],0,[1.1331326291619916],2018_Jul_09_1135,60.0283782399,go-nogo,001,8,
logos/1.jpg,properties1.xlsx,,,,,,0,1,1,0,,,,,,,,,,2018_Jul_09_1135,60.0283782399,go-nogo,001,8,
logos/4.jpg,properties4.xlsx,frogs/ab71.jpg,0,0,400,l,0,2,2,3,0,0,0,69,space,3.41537969668,['l'],0,[0.16762040970297676],2018_Jul_09_1135,60.0283782399,go-nogo,001,8,
logos/4.jpg,properties4.xlsx,logos/4.jpg,0,0,400,a,0,2,2,3,0,1,1,88,,,['a'],0,[0.5841890851743301],2018_Jul_09_1135,60.0283782399,go-nogo,001,8,
logos/4.jpg,properties4.xlsx,frogs/ab31.jpg,0,0,400,l,0,2,2,3,0,2,2,30,,,['l'],0,[0.23451895567814063],2018_Jul_09_1135,60.0283782399,go-nogo,001,8,
logos/4.jpg,properties4.xlsx,frogs/ab14.jpg,0,0,400,l,0,2,2,3,0,3,3,13,,,['l'],0,[0.7505880893904759],2018_Jul_09_1135,60.0283782399,go-nogo,001,8,
logos/4.jpg,properties4.xlsx,frogs/ab16.jpg,0,0,400,l,0,2,2,3,0,4,4,15,,,['l'],0,[0.26756573943384865],2018_Jul_09_1135,60.0283782399,go-nogo,001,8,
logos/4.jpg,properties4.xlsx,frogs/ab5.jpg,0,0,400,l,0,2,2,3,0,5,5,4,,,['l'],0,[0.3175927332340507],2018_Jul_09_1135,60.0283782399,go-nogo,001,8,
logos/4.jpg,properties4.xlsx,frogs/ab56.jpg,0,0,400,l,0,2,2,3,0,6,6,55,,,['l'],0,[0.3842165056430531],2018_Jul_09_1135,60.0283782399,go-nogo,001,8,
logos/4.jpg,properties4.xlsx,logos/4.jpg,0,0,400,a,0,2,2,3,0,7,7,83,,,['a'],0,[0.7842128647507707],2018_Jul_09_1135,60.0283782399,go-nogo,001,8,
logos/4.jpg,properties4.xlsx,logos/4.jpg,0,0,400,a,0,2,2,3,0,8,8,81,,,['a'],0,[1.083629582474714],2018_Jul_09_1135,60.0283782399,go-nogo,001,8,
logos/4.jpg,properties4.xlsx,frogs/ab37.jpg,0,0,400,l,0,2,2,3,0,9,9,36,,,['l'],0,[0.7340993997650003],2018_Jul_09_1135,60.0283782399,go-nogo,001,8,
logos/4.jpg,properties4.xlsx,frogs/ab42.jpg,0,0,400,l,0,2,2,3,0,10,10,41,,,['l'],0,[0.6507161463887314],2018_Jul_09_1135,60.0283782399,go-nogo,001,8,
logos/4.jpg,properties4.xlsx,frogs/ab61.jpg,0,0,400,l,0,2,2,3,0,11,11,59,,,['l'],0,[0.4841828842800169],2018_Jul_09_1135,60.0283782399,go-nogo,001,8,
logos/4.jpg,properties4.xlsx,logos/4.jpg,0,0,400,a,0,2,2,3,0,12,12,85,,,['a'],0,[0.4001357370043479],2018_Jul_09_1135,60.0283782399,go-nogo,001,8,
logos/4.jpg,properties4.xlsx,frogs/ab49.jpg,0,0,400,l,0,2,2,3,0,13,13,48,,,['l'],0,[0.45082548692698765],2018_Jul_09_1135,60.0283782399,go-nogo,001,8,
logos/4.jpg,properties4.xlsx,frogs/ab3.jpg,0,0,400,l,0,2,2,3,0,14,14,2,,,['l'],0,[0.4175079118294889],2018_Jul_09_1135,60.0283782399,go-nogo,001,8,
logos/4.jpg,properties4.xlsx,frogs/ab1.jpg,0,0,400,l,0,2,2,3,0,15,15,0,,,['l'],0,[0.5175311794046138],2018_Jul_09_1135,60.0283782399,go-nogo,001,8,
logos/4.jpg,properties4.xlsx,frogs/ab51.jpg,0,0,400,l,0,2,2,3,0,16,16,50,,,['l'],0,[0.4833756302587062],2018_Jul_09_1135,60.0283782399,go-nogo,001,8,
logos/4.jpg,properties4.xlsx,frogs/ab35.jpg,0,0,400,l,0,2,2,3,0,17,17,34,,,['l'],0,[0.6504857461923166],2018_Jul_09_1135,60.0283782399,go-nogo,001,8,
logos/4.jpg,properties4.xlsx,frogs/ab53.jpg,0,0,400,l,0,2,2,3,0,18,18,52,,,['l'],0,[0.5004315025898904],2018_Jul_09_1135,60.0283782399,go-nogo,001,8,
logos/4.jpg,properties4.xlsx,frogs/ab21.jpg,0,0,400,l,0,2,2,3,0,19,19,20,,,['l'],0,[0.6006931348129001],2018_Jul_09_1135,60.0283782399,go-nogo,001,8,
logos/4.jpg,properties4.xlsx,frogs/ab12.jpg,0,0,400,l,0,2,2,3,0,20,20,11,,,['l'],0,[0.4841498886962654],2018_Jul_09_1135,60.0283782399,go-nogo,001,8,
logos/4.jpg,properties4.xlsx,frogs/ab60.jpg,0,0,400,l,0,2,2,3,0,21,21,58,,,['l'],0,[0.5006869339194964],2018_Jul_09_1135,60.0283782399,go-nogo,001,8,
logos/4.jpg,properties4.xlsx,frogs/ab19.jpg,0,0,400,l,0,2,2,3,0,22,22,18,,,['l'],0,[0.45068212680416764],2018_Jul_09_1135,60.0283782399,go-nogo,001,8,
logos/4.jpg,properties4.xlsx,frogs/ab52.jpg,0,0,400,l,0,2,2,3,0,23,23,51,,,['l'],0,[0.4508402780502365],2018_Jul_09_1135,60.0283782399,go-nogo,001,8,
logos/4.jpg,properties4.xlsx,frogs/ab39.jpg,0,0,400,l,0,2,2,3,0,24,24,38,,,['l'],0,[0.46736366992809053],2018_Jul_09_1135,60.0283782399,go-nogo,001,8,
logos/4.jpg,properties4.xlsx,frogs/ab58.jpg,0,0,400,l,0,2,2,3,0,25,25,57,,,['l'],0,[0.7178837770388782],2018_Jul_09_1135,60.0283782399,go-nogo,001,8,
logos/4.jpg,properties4.xlsx,frogs/ab78.jpg,0,0,400,l,0,2,2,3,0,26,26,76,,,['l'],0,[1.2503346491739649],2018_Jul_09_1135,60.0283782399,go-nogo,001,8,
logos/4.jpg,properties4.xlsx,frogs/ab54.jpg,0,0,400,l,0,2,2,3,0,27,27,53,,,['l'],0,[0.4342161927534107],2018_Jul_09_1135,60.0283782399,go-nogo,001,8,
logos/4.jpg,properties4.xlsx,frogs/ab63.jpg,0,0,400,l,0,2,2,3,0,28,28,61,,,['l'],0,[0.6673487650259631],2018_Jul_09_1135,60.0283782399,go-nogo,001,8,
logos/4.jpg,properties4.xlsx,frogs/ab24.jpg,0,0,400,l,0,2,2,3,0,29,29,23,,,['l'],0,[0.45071341572020174],2018_Jul_09_1135,60.0283782399,go-nogo,001,8,
logos/4.jpg,properties4.xlsx,logos/4.jpg,0,0,400,a,0,2,2,3,0,30,30,82,,,['a'],0,[0.6007215792824354],2018_Jul_09_1135,60.0283782399,go-nogo,001,8,
logos/4.jpg,properties4.xlsx,frogs/ab41.jpg,0,0,400,l,0,2,2,3,0,31,31,40,,,['l'],0,[0.16768753864835162],2018_Jul_09_1135,60.0283782399,go-nogo,001,8,
logos/4.jpg,properties4.xlsx,frogs/ab13.jpg,0,0,400,l,0,2,2,3,0,32,32,12,,,['l'],0,[1.5340807401935308],2018_Jul_09_1135,60.0283782399,go-nogo,001,8,
logos/4.jpg,properties4.xlsx,frogs/ab30.jpg,0,0,400,l,0,2,2,3,0,33,33,29,,,['l'],0,[0.43361829002151353],2018_Jul_09_1135,60.0283782399,go-nogo,001,8,
logos/4.jpg,properties4.xlsx,frogs/ab80.jpg,0,0,400,l,0,2,2,3,0,34,34,78,,,['l'],0,[0.8671882244452718],2018_Jul_09_1135,60.0283782399,go-nogo,001,8,
logos/4.jpg,properties4.xlsx,frogs/ab45.jpg,0,0,400,l,0,2,2,3,0,35,35,44,,,['l'],0,[0.46740007884818624],2018_Jul_09_1135,60.0283782399,go-nogo,001,8,
logos/4.jpg,properties4.xlsx,frogs/ab65.jpg,0,0,400,l,0,2,2,3,0,36,36,63,,,['l'],0,[0.6671559115284253],2018_Jul_09_1135,60.0283782399,go-nogo,001,8,
logos/4.jpg,properties4.xlsx,frogs/ab68.jpg,0,0,400,l,0,2,2,3,0,37,37,66,,,['l'],0,[0.3175352754078631],2018_Jul_09_1135,60.0283782399,go-nogo,001,8,
logos/4.jpg,properties4.xlsx,frogs/ab36.jpg,0,0,400,l,0,2,2,3,0,38,38,35,,,['l'],0,[0.4177462764764641],2018_Jul_09_1135,60.0283782399,go-nogo,001,8,
logos/4.jpg,properties4.xlsx,frogs/ab62.jpg,0,0,400,l,0,2,2,3,0,39,39,60,,,['l'],0,[1.7668645832800394],2018_Jul_09_1135,60.0283782399,go-nogo,001,8,
logos/4.jpg,properties4.xlsx,frogs/ab7.jpg,0,0,400,l,0,2,2,3,0,40,40,6,,,['l'],0,[0.4338782724653356],2018_Jul_09_1135,60.0283782399,go-nogo,001,8,
logos/4.jpg,properties4.xlsx,frogs/ab6.jpg,0,0,400,l,0,2,2,3,0,41,41,5,,,['l'],0,[1.0338978422596483],2018_Jul_09_1135,60.0283782399,go-nogo,001,8,
logos/4.jpg,properties4.xlsx,frogs/ab48.jpg,0,0,400,l,0,2,2,3,0,42,42,47,,,['l'],0,[0.3674775046920331],2018_Jul_09_1135,60.0283782399,go-nogo,001,8,
logos/4.jpg,properties4.xlsx,frogs/ab25.jpg,0,0,400,l,0,2,2,3,0,43,43,24,,,['l'],0,[0.5509653768231146],2018_Jul_09_1135,60.0283782399,go-nogo,001,8,
logos/4.jpg,properties4.xlsx,frogs/ab81.jpg,0,0,400,l,0,2,2,3,0,44,44,79,,,['l'],0,[0.48403326637435384],2018_Jul_09_1135,60.0283782399,go-nogo,001,8,
logos/4.jpg,properties4.xlsx,frogs/ab2.jpg,0,0,400,l,0,2,2,3,0,45,45,1,,,['l'],0,[0.4176381874958679],2018_Jul_09_1135,60.0283782399,go-nogo,001,8,
logos/4.jpg,properties4.xlsx,frogs/ab74.jpg,0,0,400,l,0,2,2,3,0,46,46,72,,,['l'],0,[0.4508459669441436],2018_Jul_09_1135,60.0283782399,go-nogo,001,8,
logos/4.jpg,properties4.xlsx,frogs/ab57.jpg,0,0,400,l,0,2,2,3,0,47,47,56,,,['l'],0,[0.36763508704825654],2018_Jul_09_1135,60.0283782399,go-nogo,001,8,
logos/4.jpg,properties4.xlsx,frogs/ab4.jpg,0,0,400,l,0,2,2,3,0,48,48,3,,,['l'],0,[0.45060987785382167],2018_Jul_09_1135,60.0283782399,go-nogo,001,8,
logos/4.jpg,properties4.xlsx,frogs/ab34.jpg,0,0,400,l,0,2,2,3,0,49,49,33,,,['l'],0,[0.5015971569182511],2018_Jul_09_1135,60.0283782399,go-nogo,001,8,
logos/4.jpg,properties4.xlsx,frogs/ab70.jpg,0,0,400,l,0,2,2,3,0,50,50,68,,,['l'],0,[0.43434248619450955],2018_Jul_09_1135,60.0283782399,go-nogo,001,8,
logos/4.jpg,properties4.xlsx,frogs/ab9.jpg,0,0,400,l,0,2,2,3,0,51,51,8,,,['l'],0,[0.31767920441961905],2018_Jul_09_1135,60.0283782399,go-nogo,001,8,
logos/4.jpg,properties4.xlsx,frogs/ab75.jpg,0,0,400,l,0,2,2,3,0,52,52,73,,,['l'],0,[0.5005094404341435],2018_Jul_09_1135,60.0283782399,go-nogo,001,8,
logos/4.jpg,properties4.xlsx,frogs/ab76.jpg,0,0,400,l,0,2,2,3,0,53,53,74,,,['l'],0,[0.3997062255275523],2018_Jul_09_1135,60.0283782399,go-nogo,001,8,
logos/4.jpg,properties4.xlsx,frogs/ab11.jpg,0,0,400,l,0,2,2,3,0,54,54,10,,,['l'],0,[0.3675924203453178],2018_Jul_09_1135,60.0283782399,go-nogo,001,8,
logos/4.jpg,properties4.xlsx,frogs/ab20.jpg,0,0,400,l,0,2,2,3,0,55,55,19,,,['l'],0,[0.3511042996087781],2018_Jul_09_1135,60.0283782399,go-nogo,001,8,
logos/4.jpg,properties4.xlsx,frogs/ab26.jpg,0,0,400,l,0,2,2,3,0,56,56,25,,,['l'],0,[0.40098622661935224],2018_Jul_09_1135,60.0283782399,go-nogo,001,8,
logos/4.jpg,properties4.xlsx,frogs/ab40.jpg,0,0,400,l,0,2,2,3,0,57,57,39,,,['l'],0,[0.43424349944325513],2018_Jul_09_1135,60.0283782399,go-nogo,001,8,
logos/4.jpg,properties4.xlsx,frogs/ab77.jpg,0,0,400,l,0,2,2,3,0,58,58,75,,,['l'],0,[0.48376816392647015],2018_Jul_09_1135,60.0283782399,go-nogo,001,8,
logos/4.jpg,properties4.xlsx,logos/4.jpg,0,0,400,a,0,2,2,3,0,59,59,87,,,['a'],0,[0.551006336858336],2018_Jul_09_1135,60.0283782399,go-nogo,001,8,
logos/4.jpg,properties4.xlsx,frogs/ab66.jpg,0,0,400,l,0,2,2,3,0,60,60,64,,,['l'],0,[0.25114645431131066],2018_Jul_09_1135,60.0283782399,go-nogo,001,8,
logos/4.jpg,properties4.xlsx,frogs/ab50.jpg,0,0,400,l,0,2,2,3,0,61,61,49,,,['l'],0,[1.0505981587321003],2018_Jul_09_1135,60.0283782399,go-nogo,001,8,
logos/4.jpg,properties4.xlsx,frogs/ab33.jpg,0,0,400,l,0,2,2,3,0,62,62,32,,,['l'],0,[1.9667040426984386],2018_Jul_09_1135,60.0283782399,go-nogo,001,8,
logos/4.jpg,properties4.xlsx,logos/4.jpg,0,0,400,a,0,2,2,3,0,63,63,86,,,['a'],0,[0.4008696042974407],2018_Jul_09_1135,60.0283782399,go-nogo,001,8,
logos/4.jpg,properties4.xlsx,frogs/ab47.jpg,0,0,400,l,0,2,2,3,0,64,64,46,,,['l'],0,[1.5327648990705711],2018_Jul_09_1135,60.0283782399,go-nogo,001,8,
logos/4.jpg,properties4.xlsx,frogs/ab46.jpg,0,0,400,l,0,2,2,3,0,65,65,45,,,['l'],0,[0.7173347987918532],2018_Jul_09_1135,60.0283782399,go-nogo,001,8,
logos/4.jpg,properties4.xlsx,frogs/ab73.jpg,0,0,400,l,0,2,2,3,0,66,66,71,,,['l'],0,[0.5174657571260468],2018_Jul_09_1135,60.0283782399,go-nogo,001,8,
logos/4.jpg,properties4.xlsx,frogs/ab44.jpg,0,0,400,l,0,2,2,3,0,67,67,43,,,['l'],0,[0.45056038447819446],2018_Jul_09_1135,60.0283782399,go-nogo,001,8,
logos/4.jpg,properties4.xlsx,frogs/ab28.jpg,0,0,400,l,0,2,2,3,0,68,68,27,,,['l'],0,[0.4683171285196295],2018_Jul_09_1135,60.0283782399,go-nogo,001,8,
logos/4.jpg,properties4.xlsx,frogs/ab32.jpg,0,0,400,l,0,2,2,3,0,69,69,31,,,['l'],0,[0.4508874958683009],2018_Jul_09_1135,60.0283782399,go-nogo,001,8,
logos/4.jpg,properties4.xlsx,logos/4.jpg,0,0,400,a,0,2,2,3,0,70,70,80,,,['a'],0,[0.4677607547109801],2018_Jul_09_1135,60.0283782399,go-nogo,001,8,
logos/4.jpg,properties4.xlsx,frogs/ab43.jpg,0,0,400,l,0,2,2,3,0,71,71,42,,,['l'],0,[0.5522596001510465],2018_Jul_09_1135,60.0283782399,go-nogo,001,8,
logos/4.jpg,properties4.xlsx,frogs/ab27.jpg,0,0,400,l,0,2,2,3,0,72,72,26,,,['l'],0,[0.3510309128796507],2018_Jul_09_1135,60.0283782399,go-nogo,001,8,
logos/4.jpg,properties4.xlsx,frogs/ab55.jpg,0,0,400,l,0,2,2,3,0,73,73,54,,,['l'],0,[0.36760379813313193],2018_Jul_09_1135,60.0283782399,go-nogo,001,8,
logos/4.jpg,properties4.xlsx,frogs/ab22.jpg,0,0,400,l,0,2,2,3,0,74,74,21,,,['l'],0,[0.9838429728797564],2018_Jul_09_1135,60.0283782399,go-nogo,001,8,
logos/4.jpg,properties4.xlsx,frogs/ab72.jpg,0,0,400,l,0,2,2,3,0,75,75,70,,,['l'],0,[0.4008405909389694],2018_Jul_09_1135,60.0283782399,go-nogo,001,8,
logos/4.jpg,properties4.xlsx,logos/4.jpg,0,0,400,a,0,2,2,3,0,76,76,84,,,['a'],0,[0.4506889534768561],2018_Jul_09_1135,60.0283782399,go-nogo,001,8,
logos/4.jpg,properties4.xlsx,frogs/ab8.jpg,0,0,400,l,0,2,2,3,0,77,77,7,,,['l'],0,[0.6007420592995913],2018_Jul_09_1135,60.0283782399,go-nogo,001,8,
logos/4.jpg,properties4.xlsx,frogs/ab10.jpg,0,0,400,l,0,2,2,3,0,78,78,9,,,['l'],0,[1.1170199754133137],2018_Jul_09_1135,60.0283782399,go-nogo,001,8,
logos/4.jpg,properties4.xlsx,frogs/ab23.jpg,0,0,400,l,0,2,2,3,0,79,79,22,,,['l'],0,[0.5174612060109212],2018_Jul_09_1135,60.0283782399,go-nogo,001,8,
logos/4.jpg,properties4.xlsx,frogs/ab18.jpg,0,0,400,l,0,2,2,3,0,80,80,17,,,['l'],0,[0.48397580854816624],2018_Jul_09_1135,60.0283782399,go-nogo,001,8,
logos/4.jpg,properties4.xlsx,frogs/ab67.jpg,0,0,400,l,0,2,2,3,0,81,81,65,,,['l'],0,[0.5341501446964685],2018_Jul_09_1135,60.0283782399,go-nogo,001,8,
logos/4.jpg,properties4.xlsx,frogs/ab38.jpg,0,0,400,l,0,2,2,3,0,82,82,37,,,['l'],0,[0.5174486904452351],2018_Jul_09_1135,60.0283782399,go-nogo,001,8,
logos/4.jpg,properties4.xlsx,logos/4.jpg,0,0,400,a,0,2,2,3,0,83,83,89,,,['a'],0,[0.8834778027903667],2018_Jul_09_1135,60.0283782399,go-nogo,001,8,
logos/4.jpg,properties4.xlsx,frogs/ab64.jpg,0,0,400,l,0,2,2,3,0,84,84,62,,,['l'],0,[1.266992867834233],2018_Jul_09_1135,60.0283782399,go-nogo,001,8,
logos/4.jpg,properties4.xlsx,frogs/ab29.jpg,0,0,400,l,0,2,2,3,0,85,85,28,,,['l'],0,[0.3342190940893488],2018_Jul_09_1135,60.0283782399,go-nogo,001,8,
logos/4.jpg,properties4.xlsx,frogs/ab15.jpg,0,0,400,l,0,2,2,3,0,86,86,14,,,['l'],0,[0.4174777606922362],2018_Jul_09_1135,60.0283782399,go-nogo,001,8,
logos/4.jpg,properties4.xlsx,frogs/ab79.jpg,0,0,400,l,0,2,2,3,0,87,87,77,,,['l'],0,[1.6334566116611313],2018_Jul_09_1135,60.0283782399,go-nogo,001,8,
logos/4.jpg,properties4.xlsx,frogs/ab69.jpg,0,0,400,l,0,2,2,3,0,88,88,67,,,['l'],0,[0.2674775615805629],2018_Jul_09_1135,60.0283782399,go-nogo,001,8,
logos/4.jpg,properties4.xlsx,frogs/ab17.jpg,0,0,400,l,0,2,2,3,0,89,89,16,,,['l'],0,[0.35084090382861177],2018_Jul_09_1135,60.0283782399,go-nogo,001,8,
logos/4.jpg,properties4.xlsx,,,,,,0,2,2,3,,,,,,,,,,2018_Jul_09_1135,60.0283782399,go-nogo,001,8,
logos/3.jpg,properties3.xlsx,frogs/ab3.jpg,0,0,400,l,0,3,3,2,0,0,0,2,space,3.4057040262,['l'],0,[0.9672223009183654],2018_Jul_09_1135,60.0283782399,go-nogo,001,8,
logos/3.jpg,properties3.xlsx,frogs/ab50.jpg,0,0,400,l,0,3,3,2,0,1,1,49,,,['l'],0,[0.666676906675093],2018_Jul_09_1135,60.0283782399,go-nogo,001,8,
logos/3.jpg,properties3.xlsx,frogs/ab78.jpg,0,0,400,l,0,3,3,2,0,2,2,76,,,['l'],0,[2.566148465335573],2018_Jul_09_1135,60.0283782399,go-nogo,001,8,
logos/3.jpg,properties3.xlsx,frogs/ab49.jpg,0,0,400,l,0,3,3,2,0,3,3,48,,,['l'],0,[0.40091682211641455],2018_Jul_09_1135,60.0283782399,go-nogo,001,8,
logos/3.jpg,properties3.xlsx,frogs/ab38.jpg,0,0,400,l,0,3,3,2,0,4,4,37,,,['l'],0,[0.7173871366148887],2018_Jul_09_1135,60.0283782399,go-nogo,001,8,
logos/3.jpg,properties3.xlsx,frogs/ab58.jpg,0,0,400,l,0,3,3,2,0,5,5,57,,,['l'],0,[0.4509068381075849],2018_Jul_09_1135,60.0283782399,go-nogo,001,8,
logos/3.jpg,properties3.xlsx,frogs/ab62.jpg,0,0,400,l,0,3,3,2,0,6,6,60,,,['l'],0,[0.6007130459411201],2018_Jul_09_1135,60.0283782399,go-nogo,001,8,
logos/3.jpg,properties3.xlsx,frogs/ab29.jpg,0,0,400,l,0,3,3,2,0,7,7,28,,,['l'],0,[2.183304689752731],2018_Jul_09_1135,60.0283782399,go-nogo,001,8,
logos/3.jpg,properties3.xlsx,frogs/ab77.jpg,0,0,400,l,0,3,3,2,0,8,8,75,,,['l'],0,[0.9505765978256022],2018_Jul_09_1135,60.0283782399,go-nogo,001,8,
logos/3.jpg,properties3.xlsx,frogs/ab35.jpg,0,0,400,l,0,3,3,2,0,9,9,34,,,['l'],0,[0.23346309699991252],2018_Jul_09_1135,60.0283782399,go-nogo,001,8,
logos/3.jpg,properties3.xlsx,frogs/ab22.jpg,0,0,400,l,0,3,3,2,0,10,10,21,,,['l'],0,[0.4005783329375845],2018_Jul_09_1135,60.0283782399,go-nogo,001,8,
logos/3.jpg,properties3.xlsx,frogs/ab51.jpg,0,0,400,l,0,3,3,2,0,11,11,50,,,['l'],0,[0.3841618922633643],2018_Jul_09_1135,60.0283782399,go-nogo,001,8,
logos/3.jpg,properties3.xlsx,frogs/ab81.jpg,0,0,400,l,0,3,3,2,0,12,12,79,,,['l'],0,[0.9508223580351114],2018_Jul_09_1135,60.0283782399,go-nogo,001,8,
logos/3.jpg,properties3.xlsx,frogs/ab55.jpg,0,0,400,l,0,3,3,2,0,13,13,54,,,['l'],0,[0.4666895360196577],2018_Jul_09_1135,60.0283782399,go-nogo,001,8,
logos/3.jpg,properties3.xlsx,frogs/ab42.jpg,0,0,400,l,0,3,3,2,0,14,14,41,,,['l'],0,[0.5176455261689625],2018_Jul_09_1135,60.0283782399,go-nogo,001,8,
logos/3.jpg,properties3.xlsx,frogs/ab16.jpg,0,0,400,l,0,3,3,2,0,15,15,15,,,['l'],0,[0.3672647400653659],2018_Jul_09_1135,60.0283782399,go-nogo,001,8,
logos/3.jpg,properties3.xlsx,frogs/ab36.jpg,0,0,400,l,0,3,3,2,0,16,16,35,,,['l'],0,[0.4840179063612595],2018_Jul_09_1135,60.0283782399,go-nogo,001,8,
logos/3.jpg,properties3.xlsx,frogs/ab19.jpg,0,0,400,l,0,3,3,2,0,17,17,18,,,['l'],0,[0.3671020377050809],2018_Jul_09_1135,60.0283782399,go-nogo,001,8,
logos/3.jpg,properties3.xlsx,frogs/ab54.jpg,0,0,400,l,0,3,3,2,0,18,18,53,,,['l'],0,[0.6344817503131708],2018_Jul_09_1135,60.0283782399,go-nogo,001,8,
logos/3.jpg,properties3.xlsx,frogs/ab8.jpg,0,0,400,l,0,3,3,2,0,19,19,7,,,['l'],0,[0.417538631854768],2018_Jul_09_1135,60.0283782399,go-nogo,001,8,
logos/3.jpg,properties3.xlsx,frogs/ab56.jpg,0,0,400,l,0,3,3,2,0,20,20,55,,,['l'],0,[0.5185950025343118],2018_Jul_09_1135,60.0283782399,go-nogo,001,8,
logos/3.jpg,properties3.xlsx,frogs/ab75.jpg,0,0,400,l,0,3,3,2,0,21,21,73,,,['l'],0,[0.5340409179370909],2018_Jul_09_1135,60.0283782399,go-nogo,001,8,
logos/3.jpg,properties3.xlsx,frogs/ab26.jpg,0,0,400,l,0,3,3,2,0,22,22,25,,,['l'],0,[1.0505338742332242],2018_Jul_09_1135,60.0283782399,go-nogo,001,8,
logos/3.jpg,properties3.xlsx,frogs/ab57.jpg,0,0,400,l,0,3,3,2,0,23,23,56,,,['l'],0,[0.20080315801806137],2018_Jul_09_1135,60.0283782399,go-nogo,001,8,
logos/3.jpg,properties3.xlsx,logos/3.jpg,0,0,400,a,0,3,3,2,0,24,24,83,,,['a'],0,[0.9504309621452194],2018_Jul_09_1135,60.0283782399,go-nogo,001,8,
logos/3.jpg,properties3.xlsx,frogs/ab39.jpg,0,0,400,l,0,3,3,2,0,25,25,38,,,['l'],0,[0.08430542305177369],2018_Jul_09_1135,60.0283782399,go-nogo,001,8,
logos/3.jpg,properties3.xlsx,frogs/ab2.jpg,0,0,400,l,0,3,3,2,0,26,26,1,,,['l'],0,[0.484240342107114],2018_Jul_09_1135,60.0283782399,go-nogo,001,8,
logos/3.jpg,properties3.xlsx,frogs/ab80.jpg,0,0,400,l,0,3,3,2,0,27,27,78,,,['l'],0,[0.3843001323803037],2018_Jul_09_1135,60.0283782399,go-nogo,001,8,
logos/3.jpg,properties3.xlsx,frogs/ab44.jpg,0,0,400,l,0,3,3,2,0,28,28,43,,,['l'],0,[0.3176797733094645],2018_Jul_09_1135,60.0283782399,go-nogo,001,8,
logos/3.jpg,properties3.xlsx,logos/3.jpg,0,0,400,a,0,3,3,2,0,29,29,82,,,['a'],0,[0.7168922028595262],2018_Jul_09_1135,60.0283782399,go-nogo,001,8,
logos/3.jpg,properties3.xlsx,frogs/ab6.jpg,0,0,400,l,0,3,3,2,0,30,30,5,,,['l'],0,[0.11690050864399382],2018_Jul_09_1135,60.0283782399,go-nogo,001,8,
logos/3.jpg,properties3.xlsx,frogs/ab34.jpg,0,0,400,l,0,3,3,2,0,31,31,33,,,['l'],0,[0.7172813231918553],2018_Jul_09_1135,60.0283782399,go-nogo,001,8,
logos/3.jpg,properties3.xlsx,frogs/ab45.jpg,0,0,400,l,0,3,3,2,0,32,32,44,,,['l'],0,[0.18447148186078266],2018_Jul_09_1135,60.0283782399,go-nogo,001,8,
logos/3.jpg,properties3.xlsx,frogs/ab68.jpg,0,0,400,l,0,3,3,2,0,33,33,66,,,['l'],0,[0.38423129676630197],2018_Jul_09_1135,60.0283782399,go-nogo,001,8,
logos/3.jpg,properties3.xlsx,frogs/ab64.jpg,0,0,400,l,0,3,3,2,0,34,34,62,,,['l'],0,[0.46736480770687194],2018_Jul_09_1135,60.0283782399,go-nogo,001,8,
logos/3.jpg,properties3.xlsx,frogs/ab13.jpg,0,0,400,l,0,3,3,2,0,35,35,12,,,['l'],0,[0.45326829789974],2018_Jul_09_1135,60.0283782399,go-nogo,001,8,
logos/3.jpg,properties3.xlsx,frogs/ab10.jpg,0,0,400,l,0,3,3,2,0,36,36,9,,,['l'],0,[1.0336640287268892],2018_Jul_09_1135,60.0283782399,go-nogo,001,8,
logos/3.jpg,properties3.xlsx,logos/3.jpg,0,0,400,a,0,3,3,2,0,37,37,86,,,['a'],0,[0.5674597553443164],2018_Jul_09_1135,60.0283782399,go-nogo,001,8,
logos/3.jpg,properties3.xlsx,frogs/ab71.jpg,0,0,400,l,0,3,3,2,0,38,38,69,,,['l'],0,[0.0674384219919375],2018_Jul_09_1135,60.0283782399,go-nogo,001,8,
logos/3.jpg,properties3.xlsx,logos/3.jpg,0,0,400,a,0,3,3,2,0,39,39,81,,,['a'],0,[0.7839813267755744],2018_Jul_09_1135,60.0283782399,go-nogo,001,8,
logos/3.jpg,properties3.xlsx,frogs/ab21.jpg,0,0,400,l,0,3,3,2,0,40,40,20,,,['l'],0,[0.4674268166481852],2018_Jul_09_1135,60.0283782399,go-nogo,001,8,
logos/3.jpg,properties3.xlsx,frogs/ab61.jpg,0,0,400,l,0,3,3,2,0,41,41,59,,,['l'],0,[0.13434607019735267],2018_Jul_09_1135,60.0283782399,go-nogo,001,8,
logos/3.jpg,properties3.xlsx,frogs/ab43.jpg,0,0,400,l,0,3,3,2,0,42,42,42,,,['l'],0,[0.31900926777689165],2018_Jul_09_1135,60.0283782399,go-nogo,001,8,
logos/3.jpg,properties3.xlsx,frogs/ab14.jpg,0,0,400,l,0,3,3,2,0,43,43,13,,,['l'],0,[0.43341292095647077],2018_Jul_09_1135,60.0283782399,go-nogo,001,8,
logos/3.jpg,properties3.xlsx,frogs/ab73.jpg,0,0,400,l,0,3,3,2,0,44,44,71,,,['l'],0,[0.40088155097419076],2018_Jul_09_1135,60.0283782399,go-nogo,001,8,
logos/3.jpg,properties3.xlsx,frogs/ab63.jpg,0,0,400,l,0,3,3,2,0,45,45,61,,,['l'],0,[0.700743140189843],2018_Jul_09_1135,60.0283782399,go-nogo,001,8,
logos/3.jpg,properties3.xlsx,frogs/ab74.jpg,0,0,400,l,0,3,3,2,0,46,46,72,,,['l'],0,[0.3503237833874664],2018_Jul_09_1135,60.0283782399,go-nogo,001,8,
logos/3.jpg,properties3.xlsx,frogs/ab66.jpg,0,0,400,l,0,3,3,2,0,47,47,64,,,['l'],0,[0.4675417323023794],2018_Jul_09_1135,60.0283782399,go-nogo,001,8,
logos/3.jpg,properties3.xlsx,frogs/ab65.jpg,0,0,400,l,0,3,3,2,0,48,48,63,,,['l'],0,[0.5175624683197384],2018_Jul_09_1135,60.0283782399,go-nogo,001,8,
logos/3.jpg,properties3.xlsx,logos/3.jpg,0,0,400,a,0,3,3,2,0,49,49,89,,,['a'],0,[0.567347684136621],2018_Jul_09_1135,60.0283782399,go-nogo,001,8,
logos/3.jpg,properties3.xlsx,frogs/ab15.jpg,0,0,400,l,0,3,3,2,0,50,50,14,,,['l'],0,[0.10091813056078536],2018_Jul_09_1135,60.0283782399,go-nogo,001,8,
logos/3.jpg,properties3.xlsx,frogs/ab1.jpg,0,0,400,l,0,3,3,2,0,51,51,0,,,['l'],0,[0.40087643097012915],2018_Jul_09_1135,60.0283782399,go-nogo,001,8,
logos/3.jpg,properties3.xlsx,frogs/ab7.jpg,0,0,400,l,0,3,3,2,0,52,52,6,,,['l'],0,[0.3009265501241316],2018_Jul_09_1135,60.0283782399,go-nogo,001,8,
logos/3.jpg,properties3.xlsx,frogs/ab47.jpg,0,0,400,l,0,3,3,2,0,53,53,46,,,['l'],0,[0.9505544111398194],2018_Jul_09_1135,60.0283782399,go-nogo,001,8,
logos/3.jpg,properties3.xlsx,logos/3.jpg,0,0,400,a,0,3,3,2,0,54,54,85,,,['a'],0,[0.4208922347170301],2018_Jul_09_1135,60.0283782399,go-nogo,001,8,
logos/3.jpg,properties3.xlsx,frogs/ab23.jpg,0,0,400,l,0,3,3,2,0,55,55,22,,,['l'],0,[0.11756440254339395],2018_Jul_09_1135,60.0283782399,go-nogo,001,8,
logos/3.jpg,properties3.xlsx,frogs/ab17.jpg,0,0,400,l,0,3,3,2,0,56,56,16,,,['l'],0,[0.2675816683367884],2018_Jul_09_1135,60.0283782399,go-nogo,001,8,
logos/3.jpg,properties3.xlsx,frogs/ab53.jpg,0,0,400,l,0,3,3,2,0,57,57,52,,,['l'],0,[0.2175427278589268],2018_Jul_09_1135,60.0283782399,go-nogo,001,8,
logos/3.jpg,properties3.xlsx,frogs/ab33.jpg,0,0,400,l,0,3,3,2,0,58,58,32,,,['l'],0,[0.31756883988146],2018_Jul_09_1135,60.0283782399,go-nogo,001,8,
logos/3.jpg,properties3.xlsx,frogs/ab37.jpg,0,0,400,l,0,3,3,2,0,59,59,36,,,['l'],0,[0.20097951372463285],2018_Jul_09_1135,60.0283782399,go-nogo,001,8,
logos/3.jpg,properties3.xlsx,frogs/ab52.jpg,0,0,400,l,0,3,3,2,0,60,60,51,,,['l'],0,[0.36760209146450507],2018_Jul_09_1135,60.0283782399,go-nogo,001,8,
logos/3.jpg,properties3.xlsx,frogs/ab79.jpg,0,0,400,l,0,3,3,2,0,61,61,77,,,['l'],0,[0.5507491988610127],2018_Jul_09_1135,60.0283782399,go-nogo,001,8,
logos/3.jpg,properties3.xlsx,frogs/ab72.jpg,0,0,400,l,0,3,3,2,0,62,62,70,,,['l'],0,[0.2175910834548631],2018_Jul_09_1135,60.0283782399,go-nogo,001,8,
logos/3.jpg,properties3.xlsx,frogs/ab30.jpg,0,0,400,l,0,3,3,2,0,63,63,29,,,['a'],0,[0.4674996344892861],2018_Jul_09_1135,60.0283782399,go-nogo,001,8,
logos/3.jpg,properties3.xlsx,frogs/ab27.jpg,0,0,400,l,0,3,3,2,0,64,64,26,,,['l'],0,[0.25092060523002147],2018_Jul_09_1135,60.0283782399,go-nogo,001,8,
logos/3.jpg,properties3.xlsx,frogs/ab40.jpg,0,0,400,l,0,3,3,2,0,65,65,39,,,['l'],0,[0.2008941803187554],2018_Jul_09_1135,60.0283782399,go-nogo,001,8,
logos/3.jpg,properties3.xlsx,frogs/ab70.jpg,0,0,400,l,0,3,3,2,0,66,66,68,,,['l'],0,[0.26732453033855563],2018_Jul_09_1135,60.0283782399,go-nogo,001,8,
logos/3.jpg,properties3.xlsx,frogs/ab60.jpg,0,0,400,l,0,3,3,2,0,67,67,58,,,['l'],0,[0.20105005600726145],2018_Jul_09_1135,60.0283782399,go-nogo,001,8,
logos/3.jpg,properties3.xlsx,frogs/ab9.jpg,0,0,400,l,0,3,3,2,0,68,68,8,,,['l'],0,[0.11764234038855648],2018_Jul_09_1135,60.0283782399,go-nogo,001,8,
logos/3.jpg,properties3.xlsx,frogs/ab41.jpg,0,0,400,l,0,3,3,2,0,69,69,40,,,['l'],0,[0.18407325929820217],2018_Jul_09_1135,60.0283782399,go-nogo,001,8,
logos/3.jpg,properties3.xlsx,logos/3.jpg,0,0,400,a,0,3,3,2,0,70,70,80,,,['a'],0,[0.16777742316935473],2018_Jul_09_1135,60.0283782399,go-nogo,001,8,
logos/3.jpg,properties3.xlsx,frogs/ab20.jpg,0,0,400,l,0,3,3,2,0,71,71,19,,,['l'],0,[0.26759304612369306],2018_Jul_09_1135,60.0283782399,go-nogo,001,8,
logos/3.jpg,properties3.xlsx,frogs/ab24.jpg,0,0,400,l,0,3,3,2,0,72,72,23,,,['l'],0,[0.23443362227226316],2018_Jul_09_1135,60.0283782399,go-nogo,001,8,
logos/3.jpg,properties3.xlsx,frogs/ab48.jpg,0,0,400,l,0,3,3,2,0,73,73,47,,,['l'],0,[1.3672829445258685],2018_Jul_09_1135,60.0283782399,go-nogo,001,8,
logos/3.jpg,properties3.xlsx,frogs/ab4.jpg,0,0,400,l,0,3,3,2,0,74,74,3,,,['l'],0,[0.2676550550650063],2018_Jul_09_1135,60.0283782399,go-nogo,001,8,
logos/3.jpg,properties3.xlsx,frogs/ab11.jpg,0,0,400,l,0,3,3,2,0,75,75,10,,,['l'],0,[0.5840815650826698],2018_Jul_09_1135,60.0283782399,go-nogo,001,8,
logos/3.jpg,properties3.xlsx,frogs/ab76.jpg,0,0,400,l,0,3,3,2,0,76,76,74,,,['l'],0,[0.5005742938237745],2018_Jul_09_1135,60.0283782399,go-nogo,001,8,
logos/3.jpg,properties3.xlsx,frogs/ab28.jpg,0,0,400,l,0,3,3,2,0,77,77,27,,,['l'],0,[0.9504895577510979],2018_Jul_09_1135,60.0283782399,go-nogo,001,8,
logos/3.jpg,properties3.xlsx,frogs/ab12.jpg,0,0,400,l,0,3,3,2,0,78,78,11,,,['l'],0,[0.6006715170178722],2018_Jul_09_1135,60.0283782399,go-nogo,001,8,
logos/3.jpg,properties3.xlsx,frogs/ab31.jpg,0,0,400,l,0,3,3,2,0,79,79,30,,,['l'],0,[0.2676482283932273],2018_Jul_09_1135,60.0283782399,go-nogo,001,8,
logos/3.jpg,properties3.xlsx,frogs/ab5.jpg,0,0,400,l,0,3,3,2,0,80,80,4,,,['l'],0,[0.6837737390424081],2018_Jul_09_1135,60.0283782399,go-nogo,001,8,
logos/3.jpg,properties3.xlsx,frogs/ab25.jpg,0,0,400,l,0,3,3,2,0,81,81,24,,,['l'],0,[0.3674746602455343],2018_Jul_09_1135,60.0283782399,go-nogo,001,8,
logos/3.jpg,properties3.xlsx,logos/3.jpg,0,0,400,a,0,3,3,2,0,82,82,84,,,['a'],0,[0.9171071292648776],2018_Jul_09_1135,60.0283782399,go-nogo,001,8,
logos/3.jpg,properties3.xlsx,frogs/ab69.jpg,0,0,400,l,0,3,3,2,0,83,83,67,,,['l'],0,[0.13352402505097416],2018_Jul_09_1135,60.0283782399,go-nogo,001,8,
logos/3.jpg,properties3.xlsx,logos/3.jpg,0,0,400,a,0,3,3,2,0,84,84,88,,,['a'],0,[0.7998675625531178],2018_Jul_09_1135,60.0283782399,go-nogo,001,8,
logos/3.jpg,properties3.xlsx,frogs/ab67.jpg,0,0,400,l,0,3,3,2,0,85,85,65,,,['l'],0,[0.7838066777367203],2018_Jul_09_1135,60.0283782399,go-nogo,001,8,
logos/3.jpg,properties3.xlsx,frogs/ab18.jpg,0,0,400,l,0,3,3,2,0,86,86,17,,,['l'],0,[1.1504769284074428],2018_Jul_09_1135,60.0283782399,go-nogo,001,8,
logos/3.jpg,properties3.xlsx,logos/3.jpg,0,0,400,a,0,3,3,2,0,87,87,87,,,['a'],0,[0.4344295262690139],2018_Jul_09_1135,60.0283782399,go-nogo,001,8,
logos/3.jpg,properties3.xlsx,frogs/ab46.jpg,0,0,400,l,0,3,3,2,0,88,88,45,,,['l'],0,[0.6006009747343342],2018_Jul_09_1135,60.0283782399,go-nogo,001,8,
logos/3.jpg,properties3.xlsx,frogs/ab32.jpg,0,0,400,l,0,3,3,2,0,89,89,31,,,['l'],0,[0.9673576965897155],2018_Jul_09_1135,60.0283782399,go-nogo,001,8,
logos/3.jpg,properties3.xlsx,,,,,,0,3,3,2,,,,,,,,,,2018_Jul_09_1135,60.0283782399,go-nogo,001,8,
