pix,source,image1,x,y,size,answer,trials_2.thisRepN,trials_2.thisTrialN,trials_2.thisN,trials_2.thisIndex,trials.thisRepN,trials.thisTrialN,trials.thisN,trials.thisIndex,key_resp_3.keys,key_resp_3.rt,key_resp_2.keys,key_resp_2.corr,key_resp_2.rt,date,frameRate,expName,session,participant,
logos/4.jpg,properties4.xlsx,frogs/ab23.jpg,0,0,400,l,0,0,0,3,0,0,0,22,space,15.5780231648,['l'],0,[0.9674452955368906],2018_Jul_09_0443,60.0038826108,go-nogo,001,9,
logos/4.jpg,properties4.xlsx,frogs/ab20.jpg,0,0,400,l,0,0,0,3,0,1,1,19,,,['l'],0,[0.13430734458233928],2018_Jul_09_0443,60.0038826108,go-nogo,001,9,
logos/4.jpg,properties4.xlsx,frogs/ab38.jpg,0,0,400,l,0,0,0,3,0,2,2,37,,,['l'],0,[3.9829707194221555],2018_Jul_09_0443,60.0038826108,go-nogo,001,9,
logos/4.jpg,properties4.xlsx,frogs/ab11.jpg,0,0,400,l,0,0,0,3,0,3,3,10,,,['l'],0,[0.9507328512336244],2018_Jul_09_0443,60.0038826108,go-nogo,001,9,
logos/4.jpg,properties4.xlsx,frogs/ab62.jpg,0,0,400,l,0,0,0,3,0,4,4,60,,,['l'],0,[0.4511565639768378],2018_Jul_09_0443,60.0038826108,go-nogo,001,9,
logos/4.jpg,properties4.xlsx,logos/4.jpg,0,0,400,a,0,0,0,3,0,5,5,86,,,['a'],0,[0.3680142620942206],2018_Jul_09_0443,60.0038826108,go-nogo,001,9,
logos/4.jpg,properties4.xlsx,frogs/ab25.jpg,0,0,400,l,0,0,0,3,0,6,6,24,,,['l'],0,[0.9674220906308619],2018_Jul_09_0443,60.0038826108,go-nogo,001,9,
logos/4.jpg,properties4.xlsx,frogs/ab28.jpg,0,0,400,l,0,0,0,3,0,7,7,27,,,['l'],0,[0.7173351837773225],2018_Jul_09_0443,60.0038826108,go-nogo,001,9,
logos/4.jpg,properties4.xlsx,frogs/ab69.jpg,0,0,400,l,0,0,0,3,0,8,8,67,,,['l'],0,[0.5008793322340352],2018_Jul_09_0443,60.0038826108,go-nogo,001,9,
logos/4.jpg,properties4.xlsx,frogs/ab45.jpg,0,0,400,l,0,0,0,3,0,9,9,44,,,['l'],0,[0.7674805491551524],2018_Jul_09_0443,60.0038826108,go-nogo,001,9,
logos/4.jpg,properties4.xlsx,frogs/ab39.jpg,0,0,400,l,0,0,0,3,0,10,10,38,,,['l'],0,[0.6840762995343539],2018_Jul_09_0443,60.0038826108,go-nogo,001,9,
logos/4.jpg,properties4.xlsx,frogs/ab73.jpg,0,0,400,l,0,0,0,3,0,11,11,71,,,['l'],0,[0.5508091596930171],2018_Jul_09_0443,60.0038826108,go-nogo,001,9,
logos/4.jpg,properties4.xlsx,frogs/ab31.jpg,0,0,400,l,0,0,0,3,0,12,12,30,,,['l'],0,[0.46754235454136506],2018_Jul_09_0443,60.0038826108,go-nogo,001,9,
logos/4.jpg,properties4.xlsx,frogs/ab66.jpg,0,0,400,l,0,0,0,3,0,13,13,64,,,['l'],0,[1.9503807613436948],2018_Jul_09_0443,60.0038826108,go-nogo,001,9,
logos/4.jpg,properties4.xlsx,frogs/ab54.jpg,0,0,400,l,0,0,0,3,0,14,14,53,,,['l'],0,[0.38419299345696345],2018_Jul_09_0443,60.0038826108,go-nogo,001,9,
logos/4.jpg,properties4.xlsx,frogs/ab40.jpg,0,0,400,l,0,0,0,3,0,15,15,39,,,['l'],0,[0.4341902044034214],2018_Jul_09_0443,60.0038826108,go-nogo,001,9,
logos/4.jpg,properties4.xlsx,frogs/ab48.jpg,0,0,400,l,0,0,0,3,0,16,16,47,,,['l'],0,[0.4343102451894083],2018_Jul_09_0443,60.0038826108,go-nogo,001,9,
logos/4.jpg,properties4.xlsx,logos/4.jpg,0,0,400,a,0,0,0,3,0,17,17,87,,,['a'],0,[0.684091025723319],2018_Jul_09_0443,60.0038826108,go-nogo,001,9,
logos/4.jpg,properties4.xlsx,frogs/ab10.jpg,0,0,400,l,0,0,0,3,0,18,18,9,,,['l'],0,[0.3008012387799681],2018_Jul_09_0443,60.0038826108,go-nogo,001,9,
logos/4.jpg,properties4.xlsx,logos/4.jpg,0,0,400,a,0,0,0,3,0,19,19,83,,,['a'],0,[0.33501197060832055],2018_Jul_09_0443,60.0038826108,go-nogo,001,9,
logos/4.jpg,properties4.xlsx,frogs/ab36.jpg,0,0,400,l,0,0,0,3,0,20,20,35,,,['l'],0,[0.3343193932741997],2018_Jul_09_0443,60.0038826108,go-nogo,001,9,
logos/4.jpg,properties4.xlsx,frogs/ab26.jpg,0,0,400,l,0,0,0,3,0,21,21,25,,,['l'],0,[1.2172207210969646],2018_Jul_09_0443,60.0038826108,go-nogo,001,9,
logos/4.jpg,properties4.xlsx,frogs/ab42.jpg,0,0,400,l,0,0,0,3,0,22,22,41,,,['l'],0,[0.4002253553844639],2018_Jul_09_0443,60.0038826108,go-nogo,001,9,
logos/4.jpg,properties4.xlsx,frogs/ab37.jpg,0,0,400,l,0,0,0,3,0,23,23,36,,,['l'],0,[0.2848822239175206],2018_Jul_09_0443,60.0038826108,go-nogo,001,9,
logos/4.jpg,properties4.xlsx,frogs/ab78.jpg,0,0,400,l,0,0,0,3,0,24,24,76,,,['l'],0,[1.0006733886548318],2018_Jul_09_0443,60.0038826108,go-nogo,001,9,
logos/4.jpg,properties4.xlsx,frogs/ab27.jpg,0,0,400,l,0,0,0,3,0,25,25,26,,,['l'],0,[0.4509066649407032],2018_Jul_09_0443,60.0038826108,go-nogo,001,9,
logos/4.jpg,properties4.xlsx,frogs/ab51.jpg,0,0,400,l,0,0,0,3,0,26,26,50,,,['l'],0,[0.3008284599345643],2018_Jul_09_0443,60.0038826108,go-nogo,001,9,
logos/4.jpg,properties4.xlsx,frogs/ab50.jpg,0,0,400,l,0,0,0,3,0,27,27,49,,,['l'],0,[0.2672273032585508],2018_Jul_09_0443,60.0038826108,go-nogo,001,9,
logos/4.jpg,properties4.xlsx,frogs/ab75.jpg,0,0,400,l,0,0,0,3,0,28,28,73,,,['l'],0,[0.3174110459804069],2018_Jul_09_0443,60.0038826108,go-nogo,001,9,
logos/4.jpg,properties4.xlsx,frogs/ab56.jpg,0,0,400,l,0,0,0,3,0,29,29,55,,,['l'],0,[0.4461996380923665],2018_Jul_09_0443,60.0038826108,go-nogo,001,9,
logos/4.jpg,properties4.xlsx,frogs/ab70.jpg,0,0,400,l,0,0,0,3,0,30,30,68,,,['l'],0,[0.417539342364762],2018_Jul_09_0443,60.0038826108,go-nogo,001,9,
logos/4.jpg,properties4.xlsx,logos/4.jpg,0,0,400,a,0,0,0,3,0,31,31,89,,,['a'],0,[0.3842795656164526],2018_Jul_09_0443,60.0038826108,go-nogo,001,9,
logos/4.jpg,properties4.xlsx,frogs/ab44.jpg,0,0,400,l,0,0,0,3,0,32,32,43,,,['l'],0,[0.600112454565533],2018_Jul_09_0443,60.0038826108,go-nogo,001,9,
logos/4.jpg,properties4.xlsx,frogs/ab12.jpg,0,0,400,l,0,0,0,3,0,33,33,11,,,['l'],0,[0.48414368301746435],2018_Jul_09_0443,60.0038826108,go-nogo,001,9,
logos/4.jpg,properties4.xlsx,frogs/ab53.jpg,0,0,400,l,0,0,0,3,0,34,34,52,,,['l'],0,[0.4175286324098124],2018_Jul_09_0443,60.0038826108,go-nogo,001,9,
logos/4.jpg,properties4.xlsx,frogs/ab58.jpg,0,0,400,l,0,0,0,3,0,35,35,57,,,['l'],0,[0.3513187752250815],2018_Jul_09_0443,60.0038826108,go-nogo,001,9,
logos/4.jpg,properties4.xlsx,frogs/ab9.jpg,0,0,400,l,0,0,0,3,0,36,36,8,,,['l'],0,[0.8007621920623933],2018_Jul_09_0443,60.0038826108,go-nogo,001,9,
logos/4.jpg,properties4.xlsx,frogs/ab57.jpg,0,0,400,l,0,0,0,3,0,37,37,56,,,['l'],0,[0.4011178519431269],2018_Jul_09_0443,60.0038826108,go-nogo,001,9,
logos/4.jpg,properties4.xlsx,frogs/ab5.jpg,0,0,400,l,0,0,0,3,0,38,38,4,,,['l'],0,[0.4681345260105445],2018_Jul_09_0443,60.0038826108,go-nogo,001,9,
logos/4.jpg,properties4.xlsx,frogs/ab55.jpg,0,0,400,l,0,0,0,3,0,39,39,54,,,['l'],0,[0.3845062597465585],2018_Jul_09_0443,60.0038826108,go-nogo,001,9,
logos/4.jpg,properties4.xlsx,frogs/ab29.jpg,0,0,400,l,0,0,0,3,0,40,40,28,,,['l'],0,[0.33432251701742643],2018_Jul_09_0443,60.0038826108,go-nogo,001,9,
logos/4.jpg,properties4.xlsx,frogs/ab8.jpg,0,0,400,l,0,0,0,3,0,41,41,7,,,['l'],0,[0.3513366251572734],2018_Jul_09_0443,60.0038826108,go-nogo,001,9,
logos/4.jpg,properties4.xlsx,frogs/ab4.jpg,0,0,400,l,0,0,0,3,0,42,42,3,,,['l'],0,[0.5342372835948481],2018_Jul_09_0443,60.0038826108,go-nogo,001,9,
logos/4.jpg,properties4.xlsx,logos/4.jpg,0,0,400,a,0,0,0,3,0,43,43,88,,,['a'],0,[0.3342725372131099],2018_Jul_09_0443,60.0038826108,go-nogo,001,9,
logos/4.jpg,properties4.xlsx,frogs/ab71.jpg,0,0,400,l,0,0,0,3,0,44,44,69,,,['l'],0,[0.3357737164187711],2018_Jul_09_0443,60.0038826108,go-nogo,001,9,
logos/4.jpg,properties4.xlsx,frogs/ab33.jpg,0,0,400,l,0,0,0,3,0,45,45,32,,,['l'],0,[0.4342718678381061],2018_Jul_09_0443,60.0038826108,go-nogo,001,9,
logos/4.jpg,properties4.xlsx,frogs/ab77.jpg,0,0,400,l,0,0,0,3,0,46,46,75,,,['l'],0,[0.4008599204389611],2018_Jul_09_0443,60.0038826108,go-nogo,001,9,
logos/4.jpg,properties4.xlsx,frogs/ab76.jpg,0,0,400,l,0,0,0,3,0,47,47,74,,,['l'],0,[0.33425736477511236],2018_Jul_09_0443,60.0038826108,go-nogo,001,9,
logos/4.jpg,properties4.xlsx,frogs/ab17.jpg,0,0,400,l,0,0,0,3,0,48,48,16,,,['l'],0,[0.5342421923269285],2018_Jul_09_0443,60.0038826108,go-nogo,001,9,
logos/4.jpg,properties4.xlsx,logos/4.jpg,0,0,400,a,0,0,0,3,0,49,49,82,,,['a'],0,[0.3843228517071111],2018_Jul_09_0443,60.0038826108,go-nogo,001,9,
logos/4.jpg,properties4.xlsx,frogs/ab80.jpg,0,0,400,l,0,0,0,3,0,50,50,78,,,['l'],0,[0.15107646241085604],2018_Jul_09_0443,60.0038826108,go-nogo,001,9,
logos/4.jpg,properties4.xlsx,frogs/ab63.jpg,0,0,400,l,0,0,0,3,0,51,51,61,,,['l'],0,[0.5175324255105807],2018_Jul_09_0443,60.0038826108,go-nogo,001,9,
logos/4.jpg,properties4.xlsx,frogs/ab64.jpg,0,0,400,l,0,0,0,3,0,52,52,62,,,['l'],0,[0.4674995147070149],2018_Jul_09_0443,60.0038826108,go-nogo,001,9,
logos/4.jpg,properties4.xlsx,logos/4.jpg,0,0,400,a,0,0,0,3,0,53,53,84,,,['a'],0,[0.4008282368085929],2018_Jul_09_0443,60.0038826108,go-nogo,001,9,
logos/4.jpg,properties4.xlsx,frogs/ab67.jpg,0,0,400,l,0,0,0,3,0,54,54,65,,,['l'],0,[0.36765458597801626],2018_Jul_09_0443,60.0038826108,go-nogo,001,9,
logos/4.jpg,properties4.xlsx,frogs/ab43.jpg,0,0,400,l,0,0,0,3,0,55,55,42,,,['l'],0,[0.3841497073735809],2018_Jul_09_0443,60.0038826108,go-nogo,001,9,
logos/4.jpg,properties4.xlsx,frogs/ab24.jpg,0,0,400,l,0,0,0,3,0,56,56,23,,,['l'],0,[4.616183193844336],2018_Jul_09_0443,60.0038826108,go-nogo,001,9,
logos/4.jpg,properties4.xlsx,frogs/ab32.jpg,0,0,400,l,0,0,0,3,0,57,57,31,,,['l'],0,[0.3014067976982915],2018_Jul_09_0443,60.0038826108,go-nogo,001,9,
logos/4.jpg,properties4.xlsx,frogs/ab34.jpg,0,0,400,l,0,0,0,3,0,58,58,33,,,['l'],0,[0.28436145217710873],2018_Jul_09_0443,60.0038826108,go-nogo,001,9,
logos/4.jpg,properties4.xlsx,frogs/ab13.jpg,0,0,400,l,0,0,0,3,0,59,59,12,,,['l'],0,[0.300844971119659],2018_Jul_09_0443,60.0038826108,go-nogo,001,9,
logos/4.jpg,properties4.xlsx,frogs/ab41.jpg,0,0,400,l,0,0,0,3,0,60,60,40,,,['l'],0,[0.3675822937657358],2018_Jul_09_0443,60.0038826108,go-nogo,001,9,
logos/4.jpg,properties4.xlsx,frogs/ab15.jpg,0,0,400,l,0,0,0,3,0,61,61,14,,,['l'],0,[0.26757582316349726],2018_Jul_09_0443,60.0038826108,go-nogo,001,9,
logos/4.jpg,properties4.xlsx,frogs/ab72.jpg,0,0,400,l,0,0,0,3,0,62,62,70,,,['l'],0,[0.33516235628485447],2018_Jul_09_0443,60.0038826108,go-nogo,001,9,
logos/4.jpg,properties4.xlsx,frogs/ab47.jpg,0,0,400,l,0,0,0,3,0,63,63,46,,,['l'],0,[0.9288327706890414],2018_Jul_09_0443,60.0038826108,go-nogo,001,9,
logos/4.jpg,properties4.xlsx,frogs/ab52.jpg,0,0,400,l,0,0,0,3,0,64,64,51,,,['l'],0,[0.2842039265378844],2018_Jul_09_0443,60.0038826108,go-nogo,001,9,
logos/4.jpg,properties4.xlsx,frogs/ab1.jpg,0,0,400,l,0,0,0,3,0,65,65,0,,,['l'],0,[0.25094236480799736],2018_Jul_09_0443,60.0038826108,go-nogo,001,9,
logos/4.jpg,properties4.xlsx,frogs/ab79.jpg,0,0,400,l,0,0,0,3,0,66,66,77,,,['l'],0,[0.3008699610218173],2018_Jul_09_0443,60.0038826108,go-nogo,001,9,
logos/4.jpg,properties4.xlsx,frogs/ab18.jpg,0,0,400,l,0,0,0,3,0,67,67,17,,,['l'],0,[0.30084675610851264],2018_Jul_09_0443,60.0038826108,go-nogo,001,9,
logos/4.jpg,properties4.xlsx,frogs/ab3.jpg,0,0,400,l,0,0,0,3,0,68,68,2,,,['l'],0,[0.33431894703244325],2018_Jul_09_0443,60.0038826108,go-nogo,001,9,
logos/4.jpg,properties4.xlsx,frogs/ab19.jpg,0,0,400,l,0,0,0,3,0,69,69,18,,,['l'],0,[0.25100394706532825],2018_Jul_09_0443,60.0038826108,go-nogo,001,9,
logos/4.jpg,properties4.xlsx,frogs/ab7.jpg,0,0,400,l,0,0,0,3,0,70,70,6,,,['l'],0,[0.9673957619816065],2018_Jul_09_0443,60.0038826108,go-nogo,001,9,
logos/4.jpg,properties4.xlsx,frogs/ab81.jpg,0,0,400,l,0,0,0,3,0,71,71,79,,,['l'],0,[0.5007882975842222],2018_Jul_09_0443,60.0038826108,go-nogo,001,9,
logos/4.jpg,properties4.xlsx,frogs/ab30.jpg,0,0,400,l,0,0,0,3,0,72,72,29,,,['l'],0,[0.36753722267894773],2018_Jul_09_0443,60.0038826108,go-nogo,001,9,
logos/4.jpg,properties4.xlsx,frogs/ab46.jpg,0,0,400,l,0,0,0,3,0,73,73,45,,,['l'],0,[0.5175185918196803],2018_Jul_09_0443,60.0038826108,go-nogo,001,9,
logos/4.jpg,properties4.xlsx,logos/4.jpg,0,0,400,a,0,0,0,3,0,74,74,80,,,['a'],0,[0.3508430745569058],2018_Jul_09_0443,60.0038826108,go-nogo,001,9,
logos/4.jpg,properties4.xlsx,frogs/ab65.jpg,0,0,400,l,0,0,0,3,0,75,75,63,,,['l'],0,[0.28429986991977785],2018_Jul_09_0443,60.0038826108,go-nogo,001,9,
logos/4.jpg,properties4.xlsx,logos/4.jpg,0,0,400,a,0,0,0,3,0,76,76,81,,,['a'],0,[0.3009900018078042],2018_Jul_09_0443,60.0038826108,go-nogo,001,9,
logos/4.jpg,properties4.xlsx,frogs/ab68.jpg,0,0,400,l,0,0,0,3,0,77,77,66,,,['l'],0,[0.25098832837102236],2018_Jul_09_0443,60.0038826108,go-nogo,001,9,
logos/4.jpg,properties4.xlsx,logos/4.jpg,0,0,400,a,0,0,0,3,0,78,78,85,,,['a'],0,[0.28427934250066755],2018_Jul_09_0443,60.0038826108,go-nogo,001,9,
logos/4.jpg,properties4.xlsx,frogs/ab21.jpg,0,0,400,l,0,0,0,3,0,79,79,20,,,['l'],0,[0.2842186527341255],2018_Jul_09_0443,60.0038826108,go-nogo,001,9,
logos/4.jpg,properties4.xlsx,frogs/ab6.jpg,0,0,400,l,0,0,0,3,0,80,80,5,,,['l'],0,[0.2170868466128013],2018_Jul_09_0443,60.0038826108,go-nogo,001,9,
logos/4.jpg,properties4.xlsx,frogs/ab14.jpg,0,0,400,l,0,0,0,3,0,81,81,13,,,['l'],0,[0.23369129883212736],2018_Jul_09_0443,60.0038826108,go-nogo,001,9,
logos/4.jpg,properties4.xlsx,frogs/ab35.jpg,0,0,400,l,0,0,0,3,0,82,82,34,,,['l'],0,[0.25092585362290265],2018_Jul_09_0443,60.0038826108,go-nogo,001,9,
logos/4.jpg,properties4.xlsx,frogs/ab61.jpg,0,0,400,l,0,0,0,3,0,83,83,59,,,['l'],0,[0.33415695891017094],2018_Jul_09_0443,60.0038826108,go-nogo,001,9,
logos/4.jpg,properties4.xlsx,frogs/ab2.jpg,0,0,400,l,0,0,0,3,0,84,84,1,,,['l'],0,[0.20682804491661955],2018_Jul_09_0443,60.0038826108,go-nogo,001,9,
logos/4.jpg,properties4.xlsx,frogs/ab60.jpg,0,0,400,l,0,0,0,3,0,85,85,58,,,['l'],0,[0.2703644286521012],2018_Jul_09_0443,60.0038826108,go-nogo,001,9,
logos/4.jpg,properties4.xlsx,frogs/ab16.jpg,0,0,400,l,0,0,0,3,0,86,86,15,,,['l'],0,[0.2681742421045783],2018_Jul_09_0443,60.0038826108,go-nogo,001,9,
logos/4.jpg,properties4.xlsx,frogs/ab22.jpg,0,0,400,l,0,0,0,3,0,87,87,21,,,['l'],0,[0.3705364573688712],2018_Jul_09_0443,60.0038826108,go-nogo,001,9,
logos/4.jpg,properties4.xlsx,frogs/ab74.jpg,0,0,400,l,0,0,0,3,0,88,88,72,,,['l'],0,[0.2669461668410804],2018_Jul_09_0443,60.0038826108,go-nogo,001,9,
logos/4.jpg,properties4.xlsx,frogs/ab49.jpg,0,0,400,l,0,0,0,3,0,89,89,48,,,['l'],0,[0.9341444639576366],2018_Jul_09_0443,60.0038826108,go-nogo,001,9,
logos/4.jpg,properties4.xlsx,,,,,,0,0,0,3,,,,,,,,,,2018_Jul_09_0443,60.0038826108,go-nogo,001,9,
logos/1.jpg,properties1.xlsx,frogs/ab30.jpg,0,0,400,l,0,1,1,0,0,0,0,29,space,11.594426359,['l'],0,[0.43415495079534594],2018_Jul_09_0443,60.0038826108,go-nogo,001,9,
logos/1.jpg,properties1.xlsx,frogs/ab29.jpg,0,0,400,l,0,1,1,0,0,1,1,28,,,['l'],0,[0.20090231401991332],2018_Jul_09_0443,60.0038826108,go-nogo,001,9,
logos/1.jpg,properties1.xlsx,frogs/ab42.jpg,0,0,400,l,0,1,1,0,0,2,2,41,,,['l'],0,[0.23409515351522714],2018_Jul_09_0443,60.0038826108,go-nogo,001,9,
logos/1.jpg,properties1.xlsx,frogs/ab16.jpg,0,0,400,l,0,1,1,0,0,3,3,15,,,['l'],0,[0.3168447569187265],2018_Jul_09_0443,60.0038826108,go-nogo,001,9,
logos/1.jpg,properties1.xlsx,frogs/ab54.jpg,0,0,400,l,0,1,1,0,0,4,4,53,,,['l'],0,[0.7840662589442218],2018_Jul_09_0443,60.0038826108,go-nogo,001,9,
logos/1.jpg,properties1.xlsx,frogs/ab51.jpg,0,0,400,l,0,1,1,0,0,5,5,50,,,['l'],0,[0.3342051537183579],2018_Jul_09_0443,60.0038826108,go-nogo,001,9,
logos/1.jpg,properties1.xlsx,frogs/ab70.jpg,0,0,400,l,0,1,1,0,0,6,6,68,,,['l'],0,[0.38336029416677775],2018_Jul_09_0443,60.0038826108,go-nogo,001,9,
logos/1.jpg,properties1.xlsx,frogs/ab18.jpg,0,0,400,l,0,1,1,0,0,7,7,17,,,['l'],0,[0.40086304416763596],2018_Jul_09_0443,60.0038826108,go-nogo,001,9,
logos/1.jpg,properties1.xlsx,frogs/ab31.jpg,0,0,400,l,0,1,1,0,0,8,8,30,,,['l'],0,[0.3341877500351984],2018_Jul_09_0443,60.0038826108,go-nogo,001,9,
logos/1.jpg,properties1.xlsx,frogs/ab36.jpg,0,0,400,l,0,1,1,0,0,9,9,35,,,['l'],0,[0.2509316548384959],2018_Jul_09_0443,60.0038826108,go-nogo,001,9,
logos/1.jpg,properties1.xlsx,frogs/ab71.jpg,0,0,400,l,0,1,1,0,0,10,10,69,,,['l'],0,[0.23435263877763646],2018_Jul_09_0443,60.0038826108,go-nogo,001,9,
logos/1.jpg,properties1.xlsx,frogs/ab60.jpg,0,0,400,l,0,1,1,0,0,11,11,58,,,['l'],0,[0.4842034802932176],2018_Jul_09_0443,60.0038826108,go-nogo,001,9,
logos/1.jpg,properties1.xlsx,frogs/ab32.jpg,0,0,400,l,0,1,1,0,0,12,12,31,,,['l'],0,[0.2843422635050956],2018_Jul_09_0443,60.0038826108,go-nogo,001,9,
logos/1.jpg,properties1.xlsx,frogs/ab22.jpg,0,0,400,l,0,1,1,0,0,13,13,21,,,['l'],0,[0.23432586387934862],2018_Jul_09_0443,60.0038826108,go-nogo,001,9,
logos/1.jpg,properties1.xlsx,logos/1.jpg,0,0,400,a,0,1,1,0,0,14,14,89,,,['a'],0,[0.4175795047049178],2018_Jul_09_0443,60.0038826108,go-nogo,001,9,
logos/1.jpg,properties1.xlsx,frogs/ab45.jpg,0,0,400,l,0,1,1,0,0,15,15,44,,,['l'],0,[0.384057780232979],2018_Jul_09_0443,60.0038826108,go-nogo,001,9,
logos/1.jpg,properties1.xlsx,frogs/ab72.jpg,0,0,400,l,0,1,1,0,0,16,16,70,,,['l'],0,[0.26758296313346364],2018_Jul_09_0443,60.0038826108,go-nogo,001,9,
logos/1.jpg,properties1.xlsx,frogs/ab28.jpg,0,0,400,l,0,1,1,0,0,17,17,27,,,['l'],0,[0.41743536651483737],2018_Jul_09_0443,60.0038826108,go-nogo,001,9,
logos/1.jpg,properties1.xlsx,frogs/ab8.jpg,0,0,400,l,0,1,1,0,0,18,18,7,,,['l'],0,[0.6845073753647739],2018_Jul_09_0443,60.0038826108,go-nogo,001,9,
logos/1.jpg,properties1.xlsx,frogs/ab74.jpg,0,0,400,l,0,1,1,0,0,19,19,72,,,['l'],0,[0.2841829528697417],2018_Jul_09_0443,60.0038826108,go-nogo,001,9,
logos/1.jpg,properties1.xlsx,frogs/ab57.jpg,0,0,400,l,0,1,1,0,0,20,20,56,,,['l'],0,[0.31808086465025553],2018_Jul_09_0443,60.0038826108,go-nogo,001,9,
logos/1.jpg,properties1.xlsx,frogs/ab69.jpg,0,0,400,l,0,1,1,0,0,21,21,67,,,['l'],0,[0.26761732425075024],2018_Jul_09_0443,60.0038826108,go-nogo,001,9,
logos/1.jpg,properties1.xlsx,frogs/ab61.jpg,0,0,400,l,0,1,1,0,0,22,22,59,,,['l'],0,[0.2509204986417899],2018_Jul_09_0443,60.0038826108,go-nogo,001,9,
logos/1.jpg,properties1.xlsx,logos/1.jpg,0,0,400,a,0,1,1,0,0,23,23,81,,,['a'],0,[0.38562589668435976],2018_Jul_09_0443,60.0038826108,go-nogo,001,9,
logos/1.jpg,properties1.xlsx,frogs/ab73.jpg,0,0,400,l,0,1,1,0,0,24,24,71,,,['l'],0,[0.1340101432215306],2018_Jul_09_0443,60.0038826108,go-nogo,001,9,
logos/1.jpg,properties1.xlsx,frogs/ab39.jpg,0,0,400,l,0,1,1,0,0,25,25,38,,,['l'],0,[0.251218146244355],2018_Jul_09_0443,60.0038826108,go-nogo,001,9,
logos/1.jpg,properties1.xlsx,frogs/ab67.jpg,0,0,400,l,0,1,1,0,0,26,26,65,,,['l'],0,[0.2513127508718753],2018_Jul_09_0443,60.0038826108,go-nogo,001,9,
logos/1.jpg,properties1.xlsx,frogs/ab50.jpg,0,0,400,l,0,1,1,0,0,27,27,49,,,['l'],0,[0.3177296672583907],2018_Jul_09_0443,60.0038826108,go-nogo,001,9,
logos/1.jpg,properties1.xlsx,frogs/ab66.jpg,0,0,400,l,0,1,1,0,0,28,28,64,,,['l'],0,[0.28479475925996667],2018_Jul_09_0443,60.0038826108,go-nogo,001,9,
logos/1.jpg,properties1.xlsx,frogs/ab11.jpg,0,0,400,l,0,1,1,0,0,29,29,10,,,['l'],0,[0.28432396732387133],2018_Jul_09_0443,60.0038826108,go-nogo,001,9,
logos/1.jpg,properties1.xlsx,frogs/ab20.jpg,0,0,400,l,0,1,1,0,0,30,30,19,,,['l'],0,[0.6176642918799189],2018_Jul_09_0443,60.0038826108,go-nogo,001,9,
logos/1.jpg,properties1.xlsx,logos/1.jpg,0,0,400,a,0,1,1,0,0,31,31,87,,,['a'],0,[0.3367045903360122],2018_Jul_09_0443,60.0038826108,go-nogo,001,9,
logos/1.jpg,properties1.xlsx,frogs/ab40.jpg,0,0,400,l,0,1,1,0,0,32,32,39,,,['l'],0,[0.13457152355840662],2018_Jul_09_0443,60.0038826108,go-nogo,001,9,
logos/1.jpg,properties1.xlsx,frogs/ab65.jpg,0,0,400,l,0,1,1,0,0,33,33,63,,,['l'],0,[0.21770445422589546],2018_Jul_09_0443,60.0038826108,go-nogo,001,9,
logos/1.jpg,properties1.xlsx,frogs/ab78.jpg,0,0,400,l,0,1,1,0,0,34,34,76,,,['l'],0,[0.05118423137173522],2018_Jul_09_0443,60.0038826108,go-nogo,001,9,
logos/1.jpg,properties1.xlsx,frogs/ab17.jpg,0,0,400,l,0,1,1,0,0,35,35,16,,,['l'],0,[0.5843661377875833],2018_Jul_09_0443,60.0038826108,go-nogo,001,9,
logos/1.jpg,properties1.xlsx,frogs/ab62.jpg,0,0,400,l,0,1,1,0,0,36,36,60,,,['l'],0,[0.11779794323956594],2018_Jul_09_0443,60.0038826108,go-nogo,001,9,
logos/1.jpg,properties1.xlsx,logos/1.jpg,0,0,400,a,0,1,1,0,0,37,37,83,,,['a'],0,[0.2843288760559517],2018_Jul_09_0443,60.0038826108,go-nogo,001,9,
logos/1.jpg,properties1.xlsx,frogs/ab46.jpg,0,0,400,l,0,1,1,0,0,38,38,45,,,['l'],0,[1.4508281252492452],2018_Jul_09_0443,60.0038826108,go-nogo,001,9,
logos/1.jpg,properties1.xlsx,frogs/ab1.jpg,0,0,400,l,0,1,1,0,0,39,39,0,,,['l'],0,[0.20157793391263112],2018_Jul_09_0443,60.0038826108,go-nogo,001,9,
logos/1.jpg,properties1.xlsx,frogs/ab68.jpg,0,0,400,l,0,1,1,0,0,40,40,66,,,['l'],0,[0.01768928178353235],2018_Jul_09_0443,60.0038826108,go-nogo,001,9,
logos/1.jpg,properties1.xlsx,frogs/ab58.jpg,0,0,400,l,0,1,1,0,0,41,41,57,,,['l'],0,[0.6535805846287985],2018_Jul_09_0443,60.0038826108,go-nogo,001,9,
logos/1.jpg,properties1.xlsx,frogs/ab41.jpg,0,0,400,l,0,1,1,0,0,42,42,40,,,['l'],0,[0.18426394693233306],2018_Jul_09_0443,60.0038826108,go-nogo,001,9,
logos/1.jpg,properties1.xlsx,frogs/ab10.jpg,0,0,400,l,0,1,1,0,0,43,43,9,,,['l'],0,[0.000964788778219372],2018_Jul_09_0443,60.0038826108,go-nogo,001,9,
logos/1.jpg,properties1.xlsx,frogs/ab64.jpg,0,0,400,l,0,1,1,0,0,44,44,62,,,['l'],0,[0.5508176384028047],2018_Jul_09_0443,60.0038826108,go-nogo,001,9,
logos/1.jpg,properties1.xlsx,frogs/ab3.jpg,0,0,400,l,0,1,1,0,0,45,45,2,,,['l'],0,[0.4506063398512197],2018_Jul_09_0443,60.0038826108,go-nogo,001,9,
logos/1.jpg,properties1.xlsx,frogs/ab33.jpg,0,0,400,l,0,1,1,0,0,46,46,32,,,['l'],0,[0.017843237445049454],2018_Jul_09_0443,60.0038826108,go-nogo,001,9,
logos/1.jpg,properties1.xlsx,frogs/ab47.jpg,0,0,400,l,0,1,1,0,0,47,47,46,,,['l'],0,[0.6147868829721119],2018_Jul_09_0443,60.0038826108,go-nogo,001,9,
logos/1.jpg,properties1.xlsx,frogs/ab23.jpg,0,0,400,l,0,1,1,0,0,48,48,22,,,['l'],0,[0.5174346971398336],2018_Jul_09_0443,60.0038826108,go-nogo,001,9,
logos/1.jpg,properties1.xlsx,frogs/ab38.jpg,0,0,400,l,0,1,1,0,0,49,49,37,,,['l'],0,[0.28423204017599346],2018_Jul_09_0443,60.0038826108,go-nogo,001,9,
logos/1.jpg,properties1.xlsx,logos/1.jpg,0,0,400,a,0,1,1,0,0,50,50,80,,,['a'],0,[0.40071265850565396],2018_Jul_09_0443,60.0038826108,go-nogo,001,9,
logos/1.jpg,properties1.xlsx,frogs/ab12.jpg,0,0,400,l,0,1,1,0,0,51,51,11,,,['l'],0,[0.20081841934734257],2018_Jul_09_0443,60.0038826108,go-nogo,001,9,
logos/1.jpg,properties1.xlsx,frogs/ab81.jpg,0,0,400,l,0,1,1,0,0,52,52,79,,,['l'],0,[0.5341404477221658],2018_Jul_09_0443,60.0038826108,go-nogo,001,9,
logos/1.jpg,properties1.xlsx,logos/1.jpg,0,0,400,a,0,1,1,0,0,53,53,84,,,['a'],0,[0.2843502959731268],2018_Jul_09_0443,60.0038826108,go-nogo,001,9,
logos/1.jpg,properties1.xlsx,frogs/ab48.jpg,0,0,400,l,0,1,1,0,0,54,54,47,,,['l'],0,[0.7509024255850818],2018_Jul_09_0443,60.0038826108,go-nogo,001,9,
logos/1.jpg,properties1.xlsx,logos/1.jpg,0,0,400,a,0,1,1,0,0,55,55,82,,,['a'],0,[1.3838190374008263],2018_Jul_09_0443,60.0038826108,go-nogo,001,9,
logos/1.jpg,properties1.xlsx,frogs/ab52.jpg,0,0,400,l,0,1,1,0,0,56,56,51,,,['l'],0,[0.05091558990534395],2018_Jul_09_0443,60.0038826108,go-nogo,001,9,
logos/1.jpg,properties1.xlsx,frogs/ab7.jpg,0,0,400,l,0,1,1,0,0,57,57,6,,,['l'],0,[0.7502946354288724],2018_Jul_09_0443,60.0038826108,go-nogo,001,9,
logos/1.jpg,properties1.xlsx,frogs/ab49.jpg,0,0,400,l,0,1,1,0,0,58,58,48,,,['l'],0,[0.46752673584705917],2018_Jul_09_0443,60.0038826108,go-nogo,001,9,
logos/1.jpg,properties1.xlsx,frogs/ab5.jpg,0,0,400,l,0,1,1,0,0,59,59,4,,,['l'],0,[0.23419288189325016],2018_Jul_09_0443,60.0038826108,go-nogo,001,9,
logos/1.jpg,properties1.xlsx,frogs/ab19.jpg,0,0,400,l,0,1,1,0,0,60,60,18,,,['l'],0,[0.15091804427356692],2018_Jul_09_0443,60.0038826108,go-nogo,001,9,
logos/1.jpg,properties1.xlsx,logos/1.jpg,0,0,400,a,0,1,1,0,0,61,61,86,,,['a'],0,[0.37028923582693096],2018_Jul_09_0443,60.0038826108,go-nogo,001,9,
logos/1.jpg,properties1.xlsx,frogs/ab24.jpg,0,0,400,l,0,1,1,0,0,62,62,23,,,['l'],0,[0.11689429047692101],2018_Jul_09_0443,60.0038826108,go-nogo,001,9,
logos/1.jpg,properties1.xlsx,logos/1.jpg,0,0,400,a,0,1,1,0,0,63,63,85,,,['l'],0,[0.45398220808419865],2018_Jul_09_0443,60.0038826108,go-nogo,001,9,
logos/1.jpg,properties1.xlsx,frogs/ab79.jpg,0,0,400,l,0,1,1,0,0,64,64,77,,,['l'],0,[0.6008643829190987],2018_Jul_09_0443,60.0038826108,go-nogo,001,9,
logos/1.jpg,properties1.xlsx,frogs/ab14.jpg,0,0,400,l,0,1,1,0,0,65,65,13,,,['l'],0,[0.31756455539289163],2018_Jul_09_0443,60.0038826108,go-nogo,001,9,
logos/1.jpg,properties1.xlsx,frogs/ab44.jpg,0,0,400,l,0,1,1,0,0,66,66,43,,,['l'],0,[0.6507513705437304],2018_Jul_09_0443,60.0038826108,go-nogo,001,9,
logos/1.jpg,properties1.xlsx,frogs/ab34.jpg,0,0,400,l,0,1,1,0,0,67,67,33,,,['l'],0,[0.1010185616905801],2018_Jul_09_0443,60.0038826108,go-nogo,001,9,
logos/1.jpg,properties1.xlsx,frogs/ab6.jpg,0,0,400,l,0,1,1,0,0,68,68,5,,,['l'],0,[0.45102625947765773],2018_Jul_09_0443,60.0038826108,go-nogo,001,9,
logos/1.jpg,properties1.xlsx,frogs/ab13.jpg,0,0,400,l,0,1,1,0,0,69,69,12,,,['l'],0,[0.217499626269273],2018_Jul_09_0443,60.0038826108,go-nogo,001,9,
logos/1.jpg,properties1.xlsx,frogs/ab35.jpg,0,0,400,l,0,1,1,0,0,70,70,34,,,['l'],0,[0.5841532773629297],2018_Jul_09_0443,60.0038826108,go-nogo,001,9,
logos/1.jpg,properties1.xlsx,frogs/ab53.jpg,0,0,400,l,0,1,1,0,0,71,71,52,,,['l'],0,[0.48417581289686495],2018_Jul_09_0443,60.0038826108,go-nogo,001,9,
logos/1.jpg,properties1.xlsx,frogs/ab21.jpg,0,0,400,l,0,1,1,0,0,72,72,20,,,['l'],0,[0.7508453058035229],2018_Jul_09_0443,60.0038826108,go-nogo,001,9,
logos/1.jpg,properties1.xlsx,logos/1.jpg,0,0,400,a,0,1,1,0,0,73,73,88,,,['a'],0,[0.5535941952039138],2018_Jul_09_0443,60.0038826108,go-nogo,001,9,
logos/1.jpg,properties1.xlsx,frogs/ab26.jpg,0,0,400,l,0,1,1,0,0,74,74,25,,,['l'],0,[0.0846443735936191],2018_Jul_09_0443,60.0038826108,go-nogo,001,9,
logos/1.jpg,properties1.xlsx,frogs/ab4.jpg,0,0,400,l,0,1,1,0,0,75,75,3,,,['l'],0,[0.6343655799792032],2018_Jul_09_0443,60.0038826108,go-nogo,001,9,
logos/1.jpg,properties1.xlsx,frogs/ab2.jpg,0,0,400,l,0,1,1,0,0,76,76,1,,,['l'],0,[1.1872560416450142],2018_Jul_09_0443,60.0038826108,go-nogo,001,9,
logos/1.jpg,properties1.xlsx,frogs/ab25.jpg,0,0,400,l,0,1,1,0,0,77,77,24,,,['l'],0,[0.30072180659044534],2018_Jul_09_0443,60.0038826108,go-nogo,001,9,
logos/1.jpg,properties1.xlsx,frogs/ab77.jpg,0,0,400,l,0,1,1,0,0,78,78,75,,,['l'],0,[0.4174777601074311],2018_Jul_09_0443,60.0038826108,go-nogo,001,9,
logos/1.jpg,properties1.xlsx,frogs/ab37.jpg,0,0,400,l,0,1,1,0,0,79,79,36,,,['l'],0,[4.432935354241636],2018_Jul_09_0443,60.0038826108,go-nogo,001,9,
logos/1.jpg,properties1.xlsx,frogs/ab9.jpg,0,0,400,l,0,1,1,0,0,80,80,8,,,['l'],0,[0.5673921919951681],2018_Jul_09_0443,60.0038826108,go-nogo,001,9,
logos/1.jpg,properties1.xlsx,frogs/ab55.jpg,0,0,400,l,0,1,1,0,0,81,81,54,,,['l'],0,[0.650662120882771],2018_Jul_09_0443,60.0038826108,go-nogo,001,9,
logos/1.jpg,properties1.xlsx,frogs/ab15.jpg,0,0,400,l,0,1,1,0,0,82,82,14,,,['l'],0,[0.40037931103870505],2018_Jul_09_0443,60.0038826108,go-nogo,001,9,
logos/1.jpg,properties1.xlsx,frogs/ab76.jpg,0,0,400,l,0,1,1,0,0,83,83,74,,,['l'],0,[0.38416086357756285],2018_Jul_09_0443,60.0038826108,go-nogo,001,9,
logos/1.jpg,properties1.xlsx,frogs/ab56.jpg,0,0,400,l,0,1,1,0,0,84,84,55,,,['l'],0,[1.1551971190201584],2018_Jul_09_0443,60.0038826108,go-nogo,001,9,
logos/1.jpg,properties1.xlsx,frogs/ab80.jpg,0,0,400,l,0,1,1,0,0,85,85,78,,,['l'],0,[1.1166890162712662],2018_Jul_09_0443,60.0038826108,go-nogo,001,9,
logos/1.jpg,properties1.xlsx,frogs/ab75.jpg,0,0,400,l,0,1,1,0,0,86,86,73,,,['l'],0,[1.6170297268326976],2018_Jul_09_0443,60.0038826108,go-nogo,001,9,
logos/1.jpg,properties1.xlsx,frogs/ab63.jpg,0,0,400,l,0,1,1,0,0,87,87,61,,,['l'],0,[0.6338162483516498],2018_Jul_09_0443,60.0038826108,go-nogo,001,9,
logos/1.jpg,properties1.xlsx,frogs/ab27.jpg,0,0,400,l,0,1,1,0,0,88,88,26,,,['l'],0,[0.3836851629166631],2018_Jul_09_0443,60.0038826108,go-nogo,001,9,
logos/1.jpg,properties1.xlsx,frogs/ab43.jpg,0,0,400,l,0,1,1,0,0,89,89,42,,,['l'],0,[0.6341330846189521],2018_Jul_09_0443,60.0038826108,go-nogo,001,9,
logos/1.jpg,properties1.xlsx,,,,,,0,1,1,0,,,,,,,,,,2018_Jul_09_0443,60.0038826108,go-nogo,001,9,
logos/2.jpg,properties2.xlsx,frogs/ab51.jpg,0,0,400,l,0,2,2,1,0,0,0,50,space,3.19061673743,['l'],0,[0.2843221823350177],2018_Jul_09_0443,60.0038826108,go-nogo,001,9,
logos/2.jpg,properties2.xlsx,logos/2.jpg,0,0,400,a,0,2,2,1,0,1,1,84,,,['a'],0,[0.2843110261237598],2018_Jul_09_0443,60.0038826108,go-nogo,001,9,
logos/2.jpg,properties2.xlsx,frogs/ab28.jpg,0,0,400,l,0,2,2,1,0,2,2,27,,,['l'],0,[0.250902648709598],2018_Jul_09_0443,60.0038826108,go-nogo,001,9,
logos/2.jpg,properties2.xlsx,frogs/ab79.jpg,0,0,400,l,0,2,2,1,0,3,3,77,,,['l'],0,[0.317530194275605],2018_Jul_09_0443,60.0038826108,go-nogo,001,9,
logos/2.jpg,properties2.xlsx,frogs/ab34.jpg,0,0,400,l,0,2,2,1,0,4,4,33,,,['l'],0,[0.2675838556315284],2018_Jul_09_0443,60.0038826108,go-nogo,001,9,
logos/2.jpg,properties2.xlsx,frogs/ab10.jpg,0,0,400,l,0,2,2,1,0,5,5,9,,,['l'],0,[0.40092730392643716],2018_Jul_09_0443,60.0038826108,go-nogo,001,9,
logos/2.jpg,properties2.xlsx,frogs/ab62.jpg,0,0,400,l,0,2,2,1,0,6,6,60,,,['l'],0,[0.33486158494633855],2018_Jul_09_0443,60.0038826108,go-nogo,001,9,
logos/2.jpg,properties2.xlsx,frogs/ab38.jpg,0,0,400,l,0,2,2,1,0,7,7,37,,,['l'],0,[0.8173563805685262],2018_Jul_09_0443,60.0038826108,go-nogo,001,9,
logos/2.jpg,properties2.xlsx,frogs/ab15.jpg,0,0,400,l,0,2,2,1,0,8,8,14,,,['l'],0,[0.28422757770022145],2018_Jul_09_0443,60.0038826108,go-nogo,001,9,
logos/2.jpg,properties2.xlsx,frogs/ab23.jpg,0,0,400,l,0,2,2,1,0,9,9,22,,,['l'],0,[0.1680133695990662],2018_Jul_09_0443,60.0038826108,go-nogo,001,9,
logos/2.jpg,properties2.xlsx,frogs/ab61.jpg,0,0,400,l,0,2,2,1,0,10,10,59,,,['l'],0,[0.46747541729564546],2018_Jul_09_0443,60.0038826108,go-nogo,001,9,
logos/2.jpg,properties2.xlsx,frogs/ab58.jpg,0,0,400,l,0,2,2,1,0,11,11,57,,,['l'],0,[0.3792820311500691],2018_Jul_09_0443,60.0038826108,go-nogo,001,9,
logos/2.jpg,properties2.xlsx,frogs/ab44.jpg,0,0,400,l,0,2,2,1,0,12,12,43,,,['l'],0,[0.4507857316566515],2018_Jul_09_0443,60.0038826108,go-nogo,001,9,
logos/2.jpg,properties2.xlsx,frogs/ab66.jpg,0,0,400,l,0,2,2,1,0,13,13,64,,,['l'],0,[0.4842231152142631],2018_Jul_09_0443,60.0038826108,go-nogo,001,9,
logos/2.jpg,properties2.xlsx,frogs/ab25.jpg,0,0,400,l,0,2,2,1,0,14,14,24,,,['l'],0,[0.31752573179255705],2018_Jul_09_0443,60.0038826108,go-nogo,001,9,
logos/2.jpg,properties2.xlsx,frogs/ab37.jpg,0,0,400,l,0,2,2,1,0,15,15,36,,,['l'],0,[0.33423148236761335],2018_Jul_09_0443,60.0038826108,go-nogo,001,9,
logos/2.jpg,properties2.xlsx,frogs/ab35.jpg,0,0,400,l,0,2,2,1,0,16,16,34,,,['l'],0,[0.29972221044590697],2018_Jul_09_0443,60.0038826108,go-nogo,001,9,
logos/2.jpg,properties2.xlsx,logos/2.jpg,0,0,400,a,0,2,2,1,0,17,17,81,,,['a'],0,[1.050691127027676],2018_Jul_09_0443,60.0038826108,go-nogo,001,9,
logos/2.jpg,properties2.xlsx,frogs/ab21.jpg,0,0,400,l,0,2,2,1,0,18,18,20,,,['l'],0,[0.3675372226862237],2018_Jul_09_0443,60.0038826108,go-nogo,001,9,
logos/2.jpg,properties2.xlsx,frogs/ab42.jpg,0,0,400,l,0,2,2,1,0,19,19,41,,,['l'],0,[0.43414334833505563],2018_Jul_09_0443,60.0038826108,go-nogo,001,9,
logos/2.jpg,properties2.xlsx,frogs/ab56.jpg,0,0,400,l,0,2,2,1,0,20,20,55,,,['l'],0,[1.4822573915444082],2018_Jul_09_0443,60.0038826108,go-nogo,001,9,
logos/2.jpg,properties2.xlsx,frogs/ab68.jpg,0,0,400,l,0,2,2,1,0,21,21,66,,,['l'],0,[0.41754291234974517],2018_Jul_09_0443,60.0038826108,go-nogo,001,9,
logos/2.jpg,properties2.xlsx,logos/2.jpg,0,0,400,a,0,2,2,1,0,22,22,85,,,['a'],0,[0.3676304885739228],2018_Jul_09_0443,60.0038826108,go-nogo,001,9,
logos/2.jpg,properties2.xlsx,logos/2.jpg,0,0,400,a,0,2,2,1,0,23,23,88,,,['a'],0,[0.35094705041410634],2018_Jul_09_0443,60.0038826108,go-nogo,001,9,
logos/2.jpg,properties2.xlsx,frogs/ab11.jpg,0,0,400,l,0,2,2,1,0,24,24,10,,,['l'],0,[0.4342000218675821],2018_Jul_09_0443,60.0038826108,go-nogo,001,9,
logos/2.jpg,properties2.xlsx,frogs/ab77.jpg,0,0,400,l,0,2,2,1,0,25,25,75,,,['l'],0,[0.36707714071235387],2018_Jul_09_0443,60.0038826108,go-nogo,001,9,
logos/2.jpg,properties2.xlsx,frogs/ab63.jpg,0,0,400,l,0,2,2,1,0,26,26,61,,,['l'],0,[0.6006247475888813],2018_Jul_09_0443,60.0038826108,go-nogo,001,9,
logos/2.jpg,properties2.xlsx,frogs/ab4.jpg,0,0,400,l,0,2,2,1,0,27,27,3,,,['l'],0,[0.5008311374185723],2018_Jul_09_0443,60.0038826108,go-nogo,001,9,
logos/2.jpg,properties2.xlsx,frogs/ab46.jpg,0,0,400,l,0,2,2,1,0,28,28,45,,,['l'],0,[0.5175074356156983],2018_Jul_09_0443,60.0038826108,go-nogo,001,9,
logos/2.jpg,properties2.xlsx,frogs/ab36.jpg,0,0,400,l,0,2,2,1,0,29,29,35,,,['l'],0,[0.36750955528987106],2018_Jul_09_0443,60.0038826108,go-nogo,001,9,
logos/2.jpg,properties2.xlsx,frogs/ab22.jpg,0,0,400,l,0,2,2,1,0,30,30,21,,,['l'],0,[0.5345023550762562],2018_Jul_09_0443,60.0038826108,go-nogo,001,9,
logos/2.jpg,properties2.xlsx,frogs/ab27.jpg,0,0,400,l,0,2,2,1,0,31,31,26,,,['l'],0,[0.3509956914713257],2018_Jul_09_0443,60.0038826108,go-nogo,001,9,
logos/2.jpg,properties2.xlsx,frogs/ab13.jpg,0,0,400,l,0,2,2,1,0,32,32,12,,,['l'],0,[0.38467271035915473],2018_Jul_09_0443,60.0038826108,go-nogo,001,9,
logos/2.jpg,properties2.xlsx,frogs/ab45.jpg,0,0,400,l,0,2,2,1,0,33,33,44,,,['l'],0,[0.33456616858165944],2018_Jul_09_0443,60.0038826108,go-nogo,001,9,
logos/2.jpg,properties2.xlsx,frogs/ab2.jpg,0,0,400,l,0,2,2,1,0,34,34,1,,,['l'],0,[0.3355965558512253],2018_Jul_09_0443,60.0038826108,go-nogo,001,9,
logos/2.jpg,properties2.xlsx,frogs/ab19.jpg,0,0,400,l,0,2,2,1,0,35,35,18,,,['l'],0,[0.28429942367074545],2018_Jul_09_0443,60.0038826108,go-nogo,001,9,
logos/2.jpg,properties2.xlsx,frogs/ab24.jpg,0,0,400,l,0,2,2,1,0,36,36,23,,,['l'],0,[0.23432274014339782],2018_Jul_09_0443,60.0038826108,go-nogo,001,9,
logos/2.jpg,properties2.xlsx,frogs/ab16.jpg,0,0,400,l,0,2,2,1,0,37,37,15,,,['l'],0,[0.4507915328795207],2018_Jul_09_0443,60.0038826108,go-nogo,001,9,
logos/2.jpg,properties2.xlsx,frogs/ab55.jpg,0,0,400,l,0,2,2,1,0,38,38,54,,,['l'],0,[0.2504581854227581],2018_Jul_09_0443,60.0038826108,go-nogo,001,9,
logos/2.jpg,properties2.xlsx,frogs/ab7.jpg,0,0,400,l,0,2,2,1,0,39,39,6,,,['l'],0,[0.36755284138052957],2018_Jul_09_0443,60.0038826108,go-nogo,001,9,
logos/2.jpg,properties2.xlsx,frogs/ab64.jpg,0,0,400,l,0,2,2,1,0,40,40,62,,,['l'],0,[0.6674526586357388],2018_Jul_09_0443,60.0038826108,go-nogo,001,9,
logos/2.jpg,properties2.xlsx,frogs/ab18.jpg,0,0,400,l,0,2,2,1,0,41,41,17,,,['l'],0,[0.5508176384100807],2018_Jul_09_0443,60.0038826108,go-nogo,001,9,
logos/2.jpg,properties2.xlsx,frogs/ab76.jpg,0,0,400,l,0,2,2,1,0,42,42,74,,,['l'],0,[1.6172363397854497],2018_Jul_09_0443,60.0038826108,go-nogo,001,9,
logos/2.jpg,properties2.xlsx,frogs/ab67.jpg,0,0,400,l,0,2,2,1,0,43,43,65,,,['l'],0,[1.800415010897268],2018_Jul_09_0443,60.0038826108,go-nogo,001,9,
logos/2.jpg,properties2.xlsx,logos/2.jpg,0,0,400,a,0,2,2,1,0,44,44,89,,,['a'],0,[0.3675724763015751],2018_Jul_09_0443,60.0038826108,go-nogo,001,9,
logos/2.jpg,properties2.xlsx,frogs/ab32.jpg,0,0,400,l,0,2,2,1,0,45,45,31,,,['l'],0,[0.20091436272923602],2018_Jul_09_0443,60.0038826108,go-nogo,001,9,
logos/2.jpg,properties2.xlsx,logos/2.jpg,0,0,400,a,0,2,2,1,0,46,46,82,,,['a'],0,[0.2676423141529085],2018_Jul_09_0443,60.0038826108,go-nogo,001,9,
logos/2.jpg,properties2.xlsx,frogs/ab72.jpg,0,0,400,l,0,2,2,1,0,47,47,70,,,['l'],0,[0.23431381517730188],2018_Jul_09_0443,60.0038826108,go-nogo,001,9,
logos/2.jpg,properties2.xlsx,frogs/ab57.jpg,0,0,400,l,0,2,2,1,0,48,48,56,,,['l'],0,[0.28431995108985575],2018_Jul_09_0443,60.0038826108,go-nogo,001,9,
logos/2.jpg,properties2.xlsx,frogs/ab52.jpg,0,0,400,l,0,2,2,1,0,49,49,51,,,['l'],0,[0.3508194234018447],2018_Jul_09_0443,60.0038826108,go-nogo,001,9,
logos/2.jpg,properties2.xlsx,frogs/ab1.jpg,0,0,400,l,0,2,2,1,0,50,50,0,,,['l'],0,[0.3842715331556974],2018_Jul_09_0443,60.0038826108,go-nogo,001,9,
logos/2.jpg,properties2.xlsx,frogs/ab26.jpg,0,0,400,l,0,2,2,1,0,51,51,25,,,['l'],0,[0.3178247181349434],2018_Jul_09_0443,60.0038826108,go-nogo,001,9,
logos/2.jpg,properties2.xlsx,logos/2.jpg,0,0,400,a,0,2,2,1,0,52,52,87,,,['a'],0,[0.36774606687686173],2018_Jul_09_0443,60.0038826108,go-nogo,001,9,
logos/2.jpg,properties2.xlsx,frogs/ab48.jpg,0,0,400,l,0,2,2,1,0,53,53,47,,,['l'],0,[0.21757995095686056],2018_Jul_09_0443,60.0038826108,go-nogo,001,9,
logos/2.jpg,properties2.xlsx,frogs/ab47.jpg,0,0,400,l,0,2,2,1,0,54,54,46,,,['l'],0,[0.313379639032064],2018_Jul_09_0443,60.0038826108,go-nogo,001,9,
logos/2.jpg,properties2.xlsx,frogs/ab73.jpg,0,0,400,l,0,2,2,1,0,55,55,71,,,['l'],0,[0.3008851334598148],2018_Jul_09_0443,60.0038826108,go-nogo,001,9,
logos/2.jpg,properties2.xlsx,frogs/ab70.jpg,0,0,400,l,0,2,2,1,0,56,56,68,,,['l'],0,[0.6675378920554067],2018_Jul_09_0443,60.0038826108,go-nogo,001,9,
logos/2.jpg,properties2.xlsx,frogs/ab81.jpg,0,0,400,l,0,2,2,1,0,57,57,79,,,['l'],0,[0.45086382510635303],2018_Jul_09_0443,60.0038826108,go-nogo,001,9,
logos/2.jpg,properties2.xlsx,frogs/ab41.jpg,0,0,400,l,0,2,2,1,0,58,58,40,,,['l'],0,[0.28439045832055854],2018_Jul_09_0443,60.0038826108,go-nogo,001,9,
logos/2.jpg,properties2.xlsx,frogs/ab14.jpg,0,0,400,l,0,2,2,1,0,59,59,13,,,['l'],0,[0.46749728346185293],2018_Jul_09_0443,60.0038826108,go-nogo,001,9,
logos/2.jpg,properties2.xlsx,frogs/ab71.jpg,0,0,400,l,0,2,2,1,0,60,60,69,,,['l'],0,[0.8674348087079125],2018_Jul_09_0443,60.0038826108,go-nogo,001,9,
logos/2.jpg,properties2.xlsx,frogs/ab80.jpg,0,0,400,l,0,2,2,1,0,61,61,78,,,['l'],0,[0.48421017401415156],2018_Jul_09_0443,60.0038826108,go-nogo,001,9,
logos/2.jpg,properties2.xlsx,frogs/ab5.jpg,0,0,400,l,0,2,2,1,0,62,62,4,,,['l'],0,[0.650625082278566],2018_Jul_09_0443,60.0038826108,go-nogo,001,9,
logos/2.jpg,properties2.xlsx,frogs/ab69.jpg,0,0,400,l,0,2,2,1,0,63,63,67,,,['l'],0,[0.36762111735879444],2018_Jul_09_0443,60.0038826108,go-nogo,001,9,
logos/2.jpg,properties2.xlsx,frogs/ab29.jpg,0,0,400,l,0,2,2,1,0,64,64,28,,,['l'],0,[0.33418775004247436],2018_Jul_09_0443,60.0038826108,go-nogo,001,9,
logos/2.jpg,properties2.xlsx,logos/2.jpg,0,0,400,a,0,2,2,1,0,65,65,83,,,['a'],0,[0.13436580310371937],2018_Jul_09_0443,60.0038826108,go-nogo,001,9,
logos/2.jpg,properties2.xlsx,frogs/ab65.jpg,0,0,400,l,0,2,2,1,0,66,66,63,,,['l'],0,[0.11813753818569239],2018_Jul_09_0443,60.0038826108,go-nogo,001,9,
logos/2.jpg,properties2.xlsx,frogs/ab6.jpg,0,0,400,l,0,2,2,1,0,67,67,5,,,['l'],0,[0.2343071214563679],2018_Jul_09_0443,60.0038826108,go-nogo,001,9,
logos/2.jpg,properties2.xlsx,frogs/ab31.jpg,0,0,400,l,0,2,2,1,0,68,68,30,,,['l'],0,[0.3008547885765438],2018_Jul_09_0443,60.0038826108,go-nogo,001,9,
logos/2.jpg,properties2.xlsx,logos/2.jpg,0,0,400,a,0,2,2,1,0,69,69,86,,,['a'],0,[0.6842275777016766],2018_Jul_09_0443,60.0038826108,go-nogo,001,9,
logos/2.jpg,properties2.xlsx,frogs/ab75.jpg,0,0,400,l,0,2,2,1,0,70,70,73,,,['l'],0,[0.6175031962484354],2018_Jul_09_0443,60.0038826108,go-nogo,001,9,
logos/2.jpg,properties2.xlsx,frogs/ab40.jpg,0,0,400,l,0,2,2,1,0,71,71,39,,,['l'],0,[0.23392914915893925],2018_Jul_09_0443,60.0038826108,go-nogo,001,9,
logos/2.jpg,properties2.xlsx,frogs/ab78.jpg,0,0,400,l,0,2,2,1,0,72,72,76,,,['l'],0,[0.2840972732010414],2018_Jul_09_0443,60.0038826108,go-nogo,001,9,
logos/2.jpg,properties2.xlsx,frogs/ab20.jpg,0,0,400,l,0,2,2,1,0,73,73,19,,,['l'],0,[0.7175020806389512],2018_Jul_09_0443,60.0038826108,go-nogo,001,9,
logos/2.jpg,properties2.xlsx,frogs/ab49.jpg,0,0,400,l,0,2,2,1,0,74,74,48,,,['l'],0,[0.6174683888893924],2018_Jul_09_0443,60.0038826108,go-nogo,001,9,
logos/2.jpg,properties2.xlsx,logos/2.jpg,0,0,400,a,0,2,2,1,0,75,75,80,,,['a'],0,[0.03497515512572136],2018_Jul_09_0443,60.0038826108,go-nogo,001,9,
logos/2.jpg,properties2.xlsx,frogs/ab60.jpg,0,0,400,l,0,2,2,1,0,76,76,58,,,['l'],0,[0.9506587740179384],2018_Jul_09_0443,60.0038826108,go-nogo,001,9,
logos/2.jpg,properties2.xlsx,frogs/ab53.jpg,0,0,400,l,0,2,2,1,0,77,77,52,,,['l'],0,[0.0843132573645562],2018_Jul_09_0443,60.0038826108,go-nogo,001,9,
logos/2.jpg,properties2.xlsx,frogs/ab3.jpg,0,0,400,l,0,2,2,1,0,78,78,2,,,['l'],0,[0.03435933250148082],2018_Jul_09_0443,60.0038826108,go-nogo,001,9,
logos/2.jpg,properties2.xlsx,frogs/ab8.jpg,0,0,400,l,0,2,2,1,0,79,79,7,,,['l'],0,[0.15090688806958497],2018_Jul_09_0443,60.0038826108,go-nogo,001,9,
logos/2.jpg,properties2.xlsx,frogs/ab17.jpg,0,0,400,l,0,2,2,1,0,80,80,16,,,['l'],0,[0.117399443523027],2018_Jul_09_0443,60.0038826108,go-nogo,001,9,
logos/2.jpg,properties2.xlsx,frogs/ab39.jpg,0,0,400,l,0,2,2,1,0,81,81,38,,,['l'],0,[0.1842184296110645],2018_Jul_09_0443,60.0038826108,go-nogo,001,9,
logos/2.jpg,properties2.xlsx,frogs/ab74.jpg,0,0,400,l,0,2,2,1,0,82,82,72,,,['l'],0,[0.18446565115300473],2018_Jul_09_0443,60.0038826108,go-nogo,001,9,
logos/2.jpg,properties2.xlsx,frogs/ab43.jpg,0,0,400,l,0,2,2,1,0,83,83,42,,,['l'],0,[0.30128318692732137],2018_Jul_09_0443,60.0038826108,go-nogo,001,9,
logos/2.jpg,properties2.xlsx,frogs/ab54.jpg,0,0,400,l,0,2,2,1,0,84,84,53,,,['l'],0,[0.26787034702283563],2018_Jul_09_0443,60.0038826108,go-nogo,001,9,
logos/2.jpg,properties2.xlsx,frogs/ab9.jpg,0,0,400,l,0,2,2,1,0,85,85,8,,,['l'],0,[0.48408968697913224],2018_Jul_09_0443,60.0038826108,go-nogo,001,9,
logos/2.jpg,properties2.xlsx,frogs/ab30.jpg,0,0,400,l,0,2,2,1,0,86,86,29,,,['l'],0,[0.5842028109182138],2018_Jul_09_0443,60.0038826108,go-nogo,001,9,
logos/2.jpg,properties2.xlsx,frogs/ab12.jpg,0,0,400,l,0,2,2,1,0,87,87,11,,,['l'],0,[0.3687425392854493],2018_Jul_09_0443,60.0038826108,go-nogo,001,9,
logos/2.jpg,properties2.xlsx,frogs/ab33.jpg,0,0,400,l,0,2,2,1,0,88,88,32,,,['l'],0,[0.3849310881123529],2018_Jul_09_0443,60.0038826108,go-nogo,001,9,
logos/2.jpg,properties2.xlsx,frogs/ab50.jpg,0,0,400,l,0,2,2,1,0,89,89,49,,,['l'],0,[0.7341890887837508],2018_Jul_09_0443,60.0038826108,go-nogo,001,9,
logos/2.jpg,properties2.xlsx,,,,,,0,2,2,1,,,,,,,,,,2018_Jul_09_0443,60.0038826108,go-nogo,001,9,
logos/3.jpg,properties3.xlsx,frogs/ab33.jpg,0,0,400,l,0,3,3,2,0,0,0,32,space,2.38772549483,['l'],0,[0.16791474873025436],2018_Jul_09_0443,60.0038826108,go-nogo,001,9,
logos/3.jpg,properties3.xlsx,frogs/ab72.jpg,0,0,400,l,0,3,3,2,0,1,1,70,,,['l'],0,[0.13458892724156613],2018_Jul_09_0443,60.0038826108,go-nogo,001,9,
logos/3.jpg,properties3.xlsx,frogs/ab69.jpg,0,0,400,l,0,3,3,2,0,2,2,67,,,['l'],0,[0.21811634138430236],2018_Jul_09_0443,60.0038826108,go-nogo,001,9,
logos/3.jpg,properties3.xlsx,logos/3.jpg,0,0,400,a,0,3,3,2,0,3,3,82,,,['a'],0,[0.1011702861142112],2018_Jul_09_0443,60.0038826108,go-nogo,001,9,
logos/3.jpg,properties3.xlsx,frogs/ab49.jpg,0,0,400,l,0,3,3,2,0,4,4,48,,,['l'],0,[0.15104031630471582],2018_Jul_09_0443,60.0038826108,go-nogo,001,9,
logos/3.jpg,properties3.xlsx,frogs/ab31.jpg,0,0,400,l,0,3,3,2,0,5,5,30,,,['l'],0,[0.4346395764150657],2018_Jul_09_0443,60.0038826108,go-nogo,001,9,
logos/3.jpg,properties3.xlsx,frogs/ab56.jpg,0,0,400,l,0,3,3,2,0,6,6,55,,,['l'],0,[1.7513027102904744],2018_Jul_09_0443,60.0038826108,go-nogo,001,9,
logos/3.jpg,properties3.xlsx,frogs/ab78.jpg,0,0,400,l,0,3,3,2,0,7,7,76,,,['l'],0,[0.9673502446603379],2018_Jul_09_0443,60.0038826108,go-nogo,001,9,
logos/3.jpg,properties3.xlsx,frogs/ab47.jpg,0,0,400,l,0,3,3,2,0,8,8,46,,,['l'],0,[0.758416800359555],2018_Jul_09_0443,60.0038826108,go-nogo,001,9,
logos/3.jpg,properties3.xlsx,frogs/ab30.jpg,0,0,400,l,0,3,3,2,0,9,9,29,,,['l'],0,[0.5337986215381534],2018_Jul_09_0443,60.0038826108,go-nogo,001,9,
logos/3.jpg,properties3.xlsx,frogs/ab61.jpg,0,0,400,l,0,3,3,2,0,10,10,59,,,['l'],0,[0.4343039977175067],2018_Jul_09_0443,60.0038826108,go-nogo,001,9,
logos/3.jpg,properties3.xlsx,frogs/ab24.jpg,0,0,400,l,0,3,3,2,0,11,11,23,,,['l'],0,[0.3841809447549167],2018_Jul_09_0443,60.0038826108,go-nogo,001,9,
logos/3.jpg,properties3.xlsx,frogs/ab18.jpg,0,0,400,l,0,3,3,2,0,12,12,17,,,['l'],0,[0.45083035647985525],2018_Jul_09_0443,60.0038826108,go-nogo,001,9,
logos/3.jpg,properties3.xlsx,frogs/ab63.jpg,0,0,400,l,0,3,3,2,0,13,13,61,,,['l'],0,[0.4512034200524795],2018_Jul_09_0443,60.0038826108,go-nogo,001,9,
logos/3.jpg,properties3.xlsx,logos/3.jpg,0,0,400,a,0,3,3,2,0,14,14,87,,,['a'],0,[0.5174628107852186],2018_Jul_09_0443,60.0038826108,go-nogo,001,9,
logos/3.jpg,properties3.xlsx,frogs/ab73.jpg,0,0,400,l,0,3,3,2,0,15,15,71,,,['l'],0,[0.28423828766244696],2018_Jul_09_0443,60.0038826108,go-nogo,001,9,
logos/3.jpg,properties3.xlsx,frogs/ab54.jpg,0,0,400,l,0,3,3,2,0,16,16,53,,,['l'],0,[0.4178423449411639],2018_Jul_09_0443,60.0038826108,go-nogo,001,9,
logos/3.jpg,properties3.xlsx,frogs/ab77.jpg,0,0,400,l,0,3,3,2,0,17,17,75,,,['l'],0,[0.500812841244624],2018_Jul_09_0443,60.0038826108,go-nogo,001,9,
logos/3.jpg,properties3.xlsx,frogs/ab12.jpg,0,0,400,l,0,3,3,2,0,18,18,11,,,['l'],0,[0.600780488239252],2018_Jul_09_0443,60.0038826108,go-nogo,001,9,
logos/3.jpg,properties3.xlsx,frogs/ab6.jpg,0,0,400,l,0,3,3,2,0,19,19,5,,,['l'],0,[2.0338465932291],2018_Jul_09_0443,60.0038826108,go-nogo,001,9,
logos/3.jpg,properties3.xlsx,frogs/ab79.jpg,0,0,400,l,0,3,3,2,0,20,20,77,,,['l'],0,[0.4174612489150604],2018_Jul_09_0443,60.0038826108,go-nogo,001,9,
logos/3.jpg,properties3.xlsx,frogs/ab23.jpg,0,0,400,l,0,3,3,2,0,21,21,22,,,['l'],0,[0.300923510811117],2018_Jul_09_0443,60.0038826108,go-nogo,001,9,
logos/3.jpg,properties3.xlsx,frogs/ab19.jpg,0,0,400,l,0,3,3,2,0,22,22,18,,,['l'],0,[0.2675615432090126],2018_Jul_09_0443,60.0038826108,go-nogo,001,9,
logos/3.jpg,properties3.xlsx,frogs/ab58.jpg,0,0,400,l,0,3,3,2,0,23,23,57,,,['l'],0,[0.3538222280694754],2018_Jul_09_0443,60.0038826108,go-nogo,001,9,
logos/3.jpg,properties3.xlsx,frogs/ab4.jpg,0,0,400,l,0,3,3,2,0,24,24,3,,,['l'],0,[0.5008690685208421],2018_Jul_09_0443,60.0038826108,go-nogo,001,9,
logos/3.jpg,properties3.xlsx,frogs/ab40.jpg,0,0,400,l,0,3,3,2,0,25,25,39,,,['l'],0,[0.40086750665068394],2018_Jul_09_0443,60.0038826108,go-nogo,001,9,
logos/3.jpg,properties3.xlsx,frogs/ab66.jpg,0,0,400,l,0,3,3,2,0,26,26,64,,,['l'],0,[1.0673294941079803],2018_Jul_09_0443,60.0038826108,go-nogo,001,9,
logos/3.jpg,properties3.xlsx,frogs/ab32.jpg,0,0,400,l,0,3,3,2,0,27,27,31,,,['l'],0,[0.40084340924659045],2018_Jul_09_0443,60.0038826108,go-nogo,001,9,
logos/3.jpg,properties3.xlsx,frogs/ab15.jpg,0,0,400,l,0,3,3,2,0,28,28,14,,,['l'],0,[0.3346228421141859],2018_Jul_09_0443,60.0038826108,go-nogo,001,9,
logos/3.jpg,properties3.xlsx,frogs/ab68.jpg,0,0,400,l,0,3,3,2,0,29,29,66,,,['l'],0,[0.8344213610107545],2018_Jul_09_0443,60.0038826108,go-nogo,001,9,
logos/3.jpg,properties3.xlsx,frogs/ab60.jpg,0,0,400,l,0,3,3,2,0,30,30,58,,,['l'],0,[0.46755217199824983],2018_Jul_09_0443,60.0038826108,go-nogo,001,9,
logos/3.jpg,properties3.xlsx,frogs/ab50.jpg,0,0,400,l,0,3,3,2,0,31,31,49,,,['l'],0,[0.4509209448879119],2018_Jul_09_0443,60.0038826108,go-nogo,001,9,
logos/3.jpg,properties3.xlsx,frogs/ab57.jpg,0,0,400,l,0,3,3,2,0,32,32,56,,,['l'],0,[0.40185371535335435],2018_Jul_09_0443,60.0038826108,go-nogo,001,9,
logos/3.jpg,properties3.xlsx,frogs/ab13.jpg,0,0,400,l,0,3,3,2,0,33,33,12,,,['l'],0,[1.9174288959184196],2018_Jul_09_0443,60.0038826108,go-nogo,001,9,
logos/3.jpg,properties3.xlsx,frogs/ab16.jpg,0,0,400,l,0,3,3,2,0,34,34,15,,,['l'],0,[0.4509102349256864],2018_Jul_09_0443,60.0038826108,go-nogo,001,9,
logos/3.jpg,properties3.xlsx,frogs/ab48.jpg,0,0,400,l,0,3,3,2,0,35,35,47,,,['l'],0,[0.36747474792355206],2018_Jul_09_0443,60.0038826108,go-nogo,001,9,
logos/3.jpg,properties3.xlsx,frogs/ab9.jpg,0,0,400,l,0,3,3,2,0,36,36,8,,,['l'],0,[0.5337562279528356],2018_Jul_09_0443,60.0038826108,go-nogo,001,9,
logos/3.jpg,properties3.xlsx,frogs/ab2.jpg,0,0,400,l,0,3,3,2,0,37,37,1,,,['l'],0,[1.0318947032574215],2018_Jul_09_0443,60.0038826108,go-nogo,001,9,
logos/3.jpg,properties3.xlsx,frogs/ab3.jpg,0,0,400,l,0,3,3,2,0,38,38,2,,,['l'],0,[0.31760248649516143],2018_Jul_09_0443,60.0038826108,go-nogo,001,9,
logos/3.jpg,properties3.xlsx,frogs/ab42.jpg,0,0,400,l,0,3,3,2,0,39,39,41,,,['l'],0,[0.46761509300995385],2018_Jul_09_0443,60.0038826108,go-nogo,001,9,
logos/3.jpg,properties3.xlsx,frogs/ab29.jpg,0,0,400,l,0,3,3,2,0,40,40,28,,,['l'],0,[0.5175498291937402],2018_Jul_09_0443,60.0038826108,go-nogo,001,9,
logos/3.jpg,properties3.xlsx,frogs/ab25.jpg,0,0,400,l,0,3,3,2,0,41,41,24,,,['l'],0,[0.3843299916770775],2018_Jul_09_0443,60.0038826108,go-nogo,001,9,
logos/3.jpg,properties3.xlsx,frogs/ab36.jpg,0,0,400,l,0,3,3,2,0,42,42,35,,,['l'],0,[0.31754358172474895],2018_Jul_09_0443,60.0038826108,go-nogo,001,9,
logos/3.jpg,properties3.xlsx,frogs/ab1.jpg,0,0,400,l,0,3,3,2,0,43,43,0,,,['l'],0,[0.3675697988073807],2018_Jul_09_0443,60.0038826108,go-nogo,001,9,
logos/3.jpg,properties3.xlsx,frogs/ab62.jpg,0,0,400,l,0,3,3,2,0,44,44,60,,,['l'],0,[0.30108862267661607],2018_Jul_09_0443,60.0038826108,go-nogo,001,9,
logos/3.jpg,properties3.xlsx,frogs/ab22.jpg,0,0,400,l,0,3,3,2,0,45,45,21,,,['l'],0,[0.30095251694729086],2018_Jul_09_0443,60.0038826108,go-nogo,001,9,
logos/3.jpg,properties3.xlsx,frogs/ab34.jpg,0,0,400,l,0,3,3,2,0,46,46,33,,,['l'],0,[0.4008527804617188],2018_Jul_09_0443,60.0038826108,go-nogo,001,9,
logos/3.jpg,properties3.xlsx,frogs/ab41.jpg,0,0,400,l,0,3,3,2,0,47,47,40,,,['l'],0,[0.41751256746647414],2018_Jul_09_0443,60.0038826108,go-nogo,001,9,
logos/3.jpg,properties3.xlsx,frogs/ab67.jpg,0,0,400,l,0,3,3,2,0,48,48,65,,,['l'],0,[0.4508178615360521],2018_Jul_09_0443,60.0038826108,go-nogo,001,9,
logos/3.jpg,properties3.xlsx,frogs/ab38.jpg,0,0,400,l,0,3,3,2,0,49,49,37,,,['l'],0,[0.384236279540346],2018_Jul_09_0443,60.0038826108,go-nogo,001,9,
logos/3.jpg,properties3.xlsx,frogs/ab80.jpg,0,0,400,l,0,3,3,2,0,50,50,78,,,['l'],0,[0.4834082658562693],2018_Jul_09_0443,60.0038826108,go-nogo,001,9,
logos/3.jpg,properties3.xlsx,frogs/ab65.jpg,0,0,400,l,0,3,3,2,0,51,51,63,,,['l'],0,[0.5007967763012857],2018_Jul_09_0443,60.0038826108,go-nogo,001,9,
logos/3.jpg,properties3.xlsx,frogs/ab74.jpg,0,0,400,l,0,3,3,2,0,52,52,72,,,['l'],0,[0.2509963608463295],2018_Jul_09_0443,60.0038826108,go-nogo,001,9,
logos/3.jpg,properties3.xlsx,logos/3.jpg,0,0,400,a,0,3,3,2,0,53,53,86,,,['a'],0,[0.38416220232466003],2018_Jul_09_0443,60.0038826108,go-nogo,001,9,
logos/3.jpg,properties3.xlsx,logos/3.jpg,0,0,400,a,0,3,3,2,0,54,54,83,,,['a'],0,[0.26760349055257393],2018_Jul_09_0443,60.0038826108,go-nogo,001,9,
logos/3.jpg,properties3.xlsx,frogs/ab10.jpg,0,0,400,l,0,3,3,2,0,55,55,9,,,['l'],0,[0.08457877509499667],2018_Jul_09_0443,60.0038826108,go-nogo,001,9,
logos/3.jpg,properties3.xlsx,frogs/ab14.jpg,0,0,400,l,0,3,3,2,0,56,56,13,,,['l'],0,[0.2341852956742514],2018_Jul_09_0443,60.0038826108,go-nogo,001,9,
logos/3.jpg,properties3.xlsx,logos/3.jpg,0,0,400,a,0,3,3,2,0,57,57,84,,,['a'],0,[0.3176408638464636],2018_Jul_09_0443,60.0038826108,go-nogo,001,9,
logos/3.jpg,properties3.xlsx,frogs/ab45.jpg,0,0,400,l,0,3,3,2,0,58,58,44,,,['l'],0,[0.1508702957071364],2018_Jul_09_0443,60.0038826108,go-nogo,001,9,
logos/3.jpg,properties3.xlsx,logos/3.jpg,0,0,400,a,0,3,3,2,0,59,59,88,,,['a'],0,[0.017461248913605232],2018_Jul_09_0443,60.0038826108,go-nogo,001,9,
logos/3.jpg,properties3.xlsx,frogs/ab55.jpg,0,0,400,l,0,3,3,2,0,60,60,54,,,['l'],0,[0.8673326178468415],2018_Jul_09_0443,60.0038826108,go-nogo,001,9,
logos/3.jpg,properties3.xlsx,logos/3.jpg,0,0,400,a,0,3,3,2,0,61,61,81,,,['a'],0,[0.06789801442209864],2018_Jul_09_0443,60.0038826108,go-nogo,001,9,
logos/3.jpg,properties3.xlsx,frogs/ab64.jpg,0,0,400,l,0,3,3,2,0,62,62,62,,,['l'],0,[0.7840680439330754],2018_Jul_09_0443,60.0038826108,go-nogo,001,9,
logos/3.jpg,properties3.xlsx,frogs/ab21.jpg,0,0,400,l,0,3,3,2,0,63,63,20,,,['l'],0,[0.13431046831829008],2018_Jul_09_0443,60.0038826108,go-nogo,001,9,
logos/3.jpg,properties3.xlsx,logos/3.jpg,0,0,400,a,0,3,3,2,0,64,64,80,,,['a'],0,[0.000971928755461704],2018_Jul_09_0443,60.0038826108,go-nogo,001,9,
logos/3.jpg,properties3.xlsx,frogs/ab17.jpg,0,0,400,l,0,3,3,2,0,65,65,16,,,['l'],0,[0.0009946874124580063],2018_Jul_09_0443,60.0038826108,go-nogo,001,9,
logos/3.jpg,properties3.xlsx,frogs/ab76.jpg,0,0,400,l,0,3,3,2,0,66,66,74,,,['l'],0,[0.1509198292696965],2018_Jul_09_0443,60.0038826108,go-nogo,001,9,
logos/3.jpg,properties3.xlsx,frogs/ab20.jpg,0,0,400,l,0,3,3,2,0,67,67,19,,,['l'],0,[0.01765179693029495],2018_Jul_09_0443,60.0038826108,go-nogo,001,9,
logos/3.jpg,properties3.xlsx,logos/3.jpg,0,0,400,a,0,3,3,2,0,68,68,89,,,['a'],0,[0.034485174517612904],2018_Jul_09_0443,60.0038826108,go-nogo,001,9,
logos/3.jpg,properties3.xlsx,frogs/ab70.jpg,0,0,400,l,0,3,3,2,0,69,69,68,,,['l'],0,[1.66713760735729],2018_Jul_09_0443,60.0038826108,go-nogo,001,9,
logos/3.jpg,properties3.xlsx,frogs/ab8.jpg,0,0,400,l,0,3,3,2,0,70,70,7,,,['l'],0,[0.2177464015694568],2018_Jul_09_0443,60.0038826108,go-nogo,001,9,
logos/3.jpg,properties3.xlsx,frogs/ab35.jpg,0,0,400,l,0,3,3,2,0,71,71,34,,,['l'],0,[0.23423527547856793],2018_Jul_09_0443,60.0038826108,go-nogo,001,9,
logos/3.jpg,properties3.xlsx,frogs/ab81.jpg,0,0,400,l,0,3,3,2,0,72,72,79,,,['l'],0,[0.6673156604156247],2018_Jul_09_0443,60.0038826108,go-nogo,001,9,
logos/3.jpg,properties3.xlsx,frogs/ab27.jpg,0,0,400,l,0,3,3,2,0,73,73,26,,,['l'],0,[0.3009275270451326],2018_Jul_09_0443,60.0038826108,go-nogo,001,9,
logos/3.jpg,properties3.xlsx,frogs/ab28.jpg,0,0,400,l,0,3,3,2,0,74,74,27,,,['l'],0,[0.8673071817029268],2018_Jul_09_0443,60.0038826108,go-nogo,001,9,
logos/3.jpg,properties3.xlsx,frogs/ab26.jpg,0,0,400,l,0,3,3,2,0,75,75,25,,,['l'],0,[1.4336511364890612],2018_Jul_09_0443,60.0038826108,go-nogo,001,9,
logos/3.jpg,properties3.xlsx,frogs/ab39.jpg,0,0,400,l,0,3,3,2,0,76,76,38,,,['l'],0,[0.36753811518428847],2018_Jul_09_0443,60.0038826108,go-nogo,001,9,
logos/3.jpg,properties3.xlsx,frogs/ab43.jpg,0,0,400,l,0,3,3,2,0,77,77,42,,,['l'],0,[0.7674827803930384],2018_Jul_09_0443,60.0038826108,go-nogo,001,9,
logos/3.jpg,properties3.xlsx,frogs/ab51.jpg,0,0,400,l,0,3,3,2,0,78,78,50,,,['l'],0,[0.38421128963818774],2018_Jul_09_0443,60.0038826108,go-nogo,001,9,
logos/3.jpg,properties3.xlsx,logos/3.jpg,0,0,400,a,0,3,3,2,0,79,79,85,,,['a'],0,[0.36759657370566856],2018_Jul_09_0443,60.0038826108,go-nogo,001,9,
logos/3.jpg,properties3.xlsx,frogs/ab37.jpg,0,0,400,l,0,3,3,2,0,80,80,36,,,['l'],0,[0.25093477858172264],2018_Jul_09_0443,60.0038826108,go-nogo,001,9,
logos/3.jpg,properties3.xlsx,frogs/ab75.jpg,0,0,400,l,0,3,3,2,0,81,81,73,,,['l'],0,[0.5174695045061526],2018_Jul_09_0443,60.0038826108,go-nogo,001,9,
logos/3.jpg,properties3.xlsx,frogs/ab71.jpg,0,0,400,l,0,3,3,2,0,82,82,69,,,['l'],0,[0.6008117256205878],2018_Jul_09_0443,60.0038826108,go-nogo,001,9,
logos/3.jpg,properties3.xlsx,frogs/ab7.jpg,0,0,400,l,0,3,3,2,0,83,83,6,,,['l'],0,[0.7506967051231186],2018_Jul_09_0443,60.0038826108,go-nogo,001,9,
logos/3.jpg,properties3.xlsx,frogs/ab44.jpg,0,0,400,l,0,3,3,2,0,84,84,43,,,['l'],0,[1.8170913090871181],2018_Jul_09_0443,60.0038826108,go-nogo,001,9,
logos/3.jpg,properties3.xlsx,frogs/ab46.jpg,0,0,400,l,0,3,3,2,0,85,85,45,,,['l'],0,[1.3339454372253385],2018_Jul_09_0443,60.0038826108,go-nogo,001,9,
logos/3.jpg,properties3.xlsx,frogs/ab11.jpg,0,0,400,l,0,3,3,2,0,86,86,10,,,['l'],0,[0.3342216649107286],2018_Jul_09_0443,60.0038826108,go-nogo,001,9,
logos/3.jpg,properties3.xlsx,frogs/ab52.jpg,0,0,400,l,0,3,3,2,0,87,87,51,,,['l'],0,[0.550696705126029],2018_Jul_09_0443,60.0038826108,go-nogo,001,9,
logos/3.jpg,properties3.xlsx,frogs/ab5.jpg,0,0,400,l,0,3,3,2,0,88,88,4,,,['l'],0,[0.35377492575207725],2018_Jul_09_0443,60.0038826108,go-nogo,001,9,
logos/3.jpg,properties3.xlsx,frogs/ab53.jpg,0,0,400,l,0,3,3,2,0,89,89,52,,,['l'],0,[1.201648441143334],2018_Jul_09_0443,60.0038826108,go-nogo,001,9,
logos/3.jpg,properties3.xlsx,,,,,,0,3,3,2,,,,,,,,,,2018_Jul_09_0443,60.0038826108,go-nogo,001,9,
